"acc","accuracy","average_response_time","avg_rt","background","bidi","canvas_backend","clock_backend","color_backend","compensation","cond_disColor","cond_disColorRGB","cond_disFeature","cond_disPresent","cond_disProbability","cond_disShape","cond_primingDisColor","cond_primingDisShape","cond_primingTarColor","cond_primingTarShape","cond_tarColor","cond_tarColorRGB","cond_tarLocation","cond_tarLocationLong","cond_tarShape","coordinates","correct","correct_continuePress","count_blockAcc","count_blockFeed","count_blockLoop","count_blockRT","count_blockSeq","count_blockSumCorrect","count_blockSumRT","count_continuePress","count_example","count_expSettings","count_exp_mainLoop","count_experiment","count_instructions","count_instructions1","count_instructions2","count_log","count_main","count_prepCanvas","count_totalAcc","count_totalRT","count_totalSumCorrect","count_totalSumRT","count_trialResp","count_trialSeq","count_trialTask","datetime","description","disable_garbage_collection","dispBlank","dispBlockStart","dispFeedBlock","dispFix","dispInstructions","dispSearch","dispStartScreen","distance2screen","experiment_file","experiment_path","font_bold","font_family","font_italic","font_size","font_underline","foreground","form_clicks","fullscreen","gaborFreq","gaborSize","height","keyboard_backend","lineOriTar","live_row","live_row_blockLoop","live_row_exp_mainLoop","logfile","mouse_backend","noExpBlocks","noExpTrials","noPracTrials","opensesame_codename","opensesame_version","osf_always_upload_experiment","osf_id","physical_screensize","previousDisColor","previousDisShape","previousTarColor","previousTarShape","repeat_cycle","response","responseTime","response_continuePress","response_time","response_time_continuePress","rgb_gray","rgb_green","rgb_red","rgb_white","round_decimals","sampler_backend","set_blockType","set_counterPositions","set_respCorrect","set_respTimeoutExp","set_respTimeoutPrac","set_rotation","set_setSize","sizeImaginary","sound_buf_size","sound_channels","sound_freq","sound_sample_size","start","stimPositions","stimuli","subject_nr","subject_parity","tarIdx","time_blockFeed","time_blockLoop","time_blockSeq","time_continuePress","time_example","time_expSettings","time_exp_mainLoop","time_experiment","time_instructions","time_instructions1","time_instructions2","time_log","time_main","time_prepCanvas","time_trialResp","time_trialSeq","time_trialTask","timing_EEGwait","timing_fix","title","total_correct","total_response_time","total_responses","uniform_coordinates","width"
"undefined","undefined","3134","3134","black","no","legacy","legacy","legacy","0","red","(179, 0, 0)","shape","present","highProb","circular","swap","swap","swap","swap","red","(179, 0, 0)","lowProb","lowProb1","rectangular","uniform","1","undefined","0.00520833333333","1","1","3.63541666667","1","1","698","0","0","0","0","0","0","0","0","25","0","1","0.00520833333333","3.63541666667","1","698","25","25","25","08/21/17 15:45:23","Default description","yes","<openexp._canvas.legacy.legacy object at 0x049C27F0>","<openexp._canvas.legacy.legacy object at 0x049CE7B0>","<openexp._canvas.legacy.legacy object at 0x049BA510>","<openexp._canvas.legacy.legacy object at 0x04AB09D0>","<openexp._canvas.legacy.legacy object at 0x04A814B0>","<openexp._canvas.legacy.legacy object at 0x049BE550>","<openexp._canvas.legacy.legacy object at 0x04A82A50>","75","IndividualPriorityWithDis_v1.osexp","C:/Userdata/Michel/SpatialProb/IndividualPriorityMaps/Experiment2","no","mono","no","18","no","white","no","yes","0.09","98","1050","legacy","315","0","0","1","C:/Userdata/Michel/SpatialProb/IndividualPriorityMaps/Experiment2/data/subject-12.csv","legacy","9","192","25","Jazzy James","3.1.3","yes","598477b2b83f69022949e7e9","47","red","circular","red","rectangular","0","/","698","space","3134","3134","(80, 80, 80)","(0, 122, 0)","(179, 0, 0)","(155, 155, 155)","2","legacy","experiment","[3, 4, 5, 6, 7, 0, 1, 2]","/","2500","3000","0","8","252.758751519","1024","2","48000","-16","main","[(0, -252), (178, -178), (252, 0), (178, 178), (0, 252), (-178, 178), (-252, 0), (-178, -178)]","[]","12","even","4","99865","138672","138672","20367","19361","1802","25820","25820","1802","1802","23501","145812","1799","138672","145111","139061","139061","NA","973","study_X","0","3134","1","yes","1680"
"undefined","undefined","3134","3134","black","no","legacy","legacy","legacy","0","red","(179, 0, 0)","shape","present","lowProb6","circular","same","same","same","same","red","(179, 0, 0)","lowProb","lowProb4","rectangular","uniform","1","undefined","0.0104166666667","1","1","8.80208333333","1","2","1690","0","0","0","0","0","0","0","0","26","0","1","0.0104166666667","8.80208333333","2","1690","26","26","26","08/21/17 15:45:23","Default description","yes","<openexp._canvas.legacy.legacy object at 0x049C27F0>","<openexp._canvas.legacy.legacy object at 0x049CE7B0>","<openexp._canvas.legacy.legacy object at 0x049BA510>","<openexp._canvas.legacy.legacy object at 0x04AB09D0>","<openexp._canvas.legacy.legacy object at 0x04A814B0>","<openexp._canvas.legacy.legacy object at 0x049CEFB0>","<openexp._canvas.legacy.legacy object at 0x04A82A50>","75","IndividualPriorityWithDis_v1.osexp","C:/Userdata/Michel/SpatialProb/IndividualPriorityMaps/Experiment2","no","mono","no","18","no","white","no","yes","0.09","98","1050","legacy","315","1","1","1","C:/Userdata/Michel/SpatialProb/IndividualPriorityMaps/Experiment2/data/subject-12.csv","legacy","9","192","25","Jazzy James","3.1.3","yes","598477b2b83f69022949e7e9","47","red","circular","red","rectangular","0","/","992","space","3134","3134","(80, 80, 80)","(0, 122, 0)","(179, 0, 0)","(155, 155, 155)","2","legacy","experiment","[3, 4, 5, 6, 7, 0, 1, 2]","/","2500","3000","0","8","252.758751519","1024","2","48000","-16","main","[(0, -252), (178, -178), (252, 0), (178, 178), (0, 252), (-178, 178), (-252, 0), (-178, -178)]","[]","12","even","0","99865","138672","138672","20367","19361","1802","25820","25820","1802","1802","23501","148220","1799","138672","147225","146246","146246","NA","973","study_X","0","3134","1","yes","1680"
"undefined","undefined","3134","3134","black","no","legacy","legacy","legacy","0","green","(0, 122, 0)","color","present","highProb","circular","swap","same","same","swap","red","(179, 0, 0)","lowProb","lowProb3","circular","uniform","1","undefined","0.015625","1","1","12.9270833333","1","3","2482","0","0","0","0","0","0","0","0","27","0","1","0.015625","12.9270833333","3","2482","27","27","27","08/21/17 15:45:23","Default description","yes","<openexp._canvas.legacy.legacy object at 0x049C27F0>","<openexp._canvas.legacy.legacy object at 0x049CE7B0>","<openexp._canvas.legacy.legacy object at 0x049BA510>","<openexp._canvas.legacy.legacy object at 0x04AB09D0>","<openexp._canvas.legacy.legacy object at 0x04A814B0>","<openexp._canvas.legacy.legacy object at 0x049BF950>","<openexp._canvas.legacy.legacy object at 0x04A82A50>","75","IndividualPriorityWithDis_v1.osexp","C:/Userdata/Michel/SpatialProb/IndividualPriorityMaps/Experiment2","no","mono","no","18","no","white","no","yes","0.09","98","1050","legacy","45","2","2","1","C:/Userdata/Michel/SpatialProb/IndividualPriorityMaps/Experiment2/data/subject-12.csv","legacy","9","192","25","Jazzy James","3.1.3","yes","598477b2b83f69022949e7e9","47","green","circular","red","circular","0","\","792","space","3134","3134","(80, 80, 80)","(0, 122, 0)","(179, 0, 0)","(155, 155, 155)","2","legacy","experiment","[3, 4, 5, 6, 7, 0, 1, 2]","\","2500","3000","0","8","252.758751519","1024","2","48000","-16","main","[(0, -252), (178, -178), (252, 0), (178, 178), (0, 252), (-178, 178), (-252, 0), (-178, -178)]","[]","12","even","6","99865","138672","138672","20367","19361","1802","25820","25820","1802","1802","23501","150421","1799","138672","149626","148647","148647","NA","973","study_X","0","3134","1","yes","1680"
"undefined","undefined","3134","3134","black","no","legacy","legacy","legacy","0","green","(0, 122, 0)","color","present","lowProb5","circular","same","same","same","same","red","(179, 0, 0)","lowProb","lowProb4","circular","uniform","1","undefined","0.0208333333333","1","1","16.3958333333","1","4","3148","0","0","0","0","0","0","0","0","28","0","1","0.0208333333333","16.3958333333","4","3148","28","28","28","08/21/17 15:45:23","Default description","yes","<openexp._canvas.legacy.legacy object at 0x049C27F0>","<openexp._canvas.legacy.legacy object at 0x049CE7B0>","<openexp._canvas.legacy.legacy object at 0x049BA510>","<openexp._canvas.legacy.legacy object at 0x04AB09D0>","<openexp._canvas.legacy.legacy object at 0x04A814B0>","<openexp._canvas.legacy.legacy object at 0x049BAFD0>","<openexp._canvas.legacy.legacy object at 0x04A82A50>","75","IndividualPriorityWithDis_v1.osexp","C:/Userdata/Michel/SpatialProb/IndividualPriorityMaps/Experiment2","no","mono","no","18","no","white","no","yes","0.09","98","1050","legacy","45","3","3","1","C:/Userdata/Michel/SpatialProb/IndividualPriorityMaps/Experiment2/data/subject-12.csv","legacy","9","192","25","Jazzy James","3.1.3","yes","598477b2b83f69022949e7e9","47","green","circular","red","circular","0","\","666","space","3134","3134","(80, 80, 80)","(0, 122, 0)","(179, 0, 0)","(155, 155, 155)","2","legacy","experiment","[3, 4, 5, 6, 7, 0, 1, 2]","\","2500","3000","0","8","252.758751519","1024","2","48000","-16","main","[(0, -252), (178, -178), (252, 0), (178, 178), (0, 252), (-178, 178), (-252, 0), (-178, -178)]","[]","12","even","0","99865","138672","138672","20367","19361","1802","25820","25820","1802","1802","23501","152509","1799","138672","151840","150861","150861","NA","973","study_X","0","3134","1","yes","1680"
"undefined","undefined","3134","3134","black","no","legacy","legacy","legacy","0","green","(0, 122, 0)","shape","present","highProb","rectangular","same","swap","swap","same","green","(0, 122, 0)","lowProb","lowProb6","circular","uniform","1","undefined","0.0260416666667","1","1","20.1041666667","1","5","3860","0","0","0","0","0","0","0","0","29","0","1","0.0260416666667","20.1041666667","5","3860","29","29","29","08/21/17 15:45:23","Default description","yes","<openexp._canvas.legacy.legacy object at 0x049C27F0>","<openexp._canvas.legacy.legacy object at 0x049CE7B0>","<openexp._canvas.legacy.legacy object at 0x049BA510>","<openexp._canvas.legacy.legacy object at 0x04AB09D0>","<openexp._canvas.legacy.legacy object at 0x04A814B0>","<openexp._canvas.legacy.legacy object at 0x049BFF50>","<openexp._canvas.legacy.legacy object at 0x04A82A50>","75","IndividualPriorityWithDis_v1.osexp","C:/Userdata/Michel/SpatialProb/IndividualPriorityMaps/Experiment2","no","mono","no","18","no","white","no","yes","0.09","98","1050","legacy","315","4","4","1","C:/Userdata/Michel/SpatialProb/IndividualPriorityMaps/Experiment2/data/subject-12.csv","legacy","9","192","25","Jazzy James","3.1.3","yes","598477b2b83f69022949e7e9","47","green","rectangular","green","circular","0","/","712","space","3134","3134","(80, 80, 80)","(0, 122, 0)","(179, 0, 0)","(155, 155, 155)","2","legacy","experiment","[3, 4, 5, 6, 7, 0, 1, 2]","/","2500","3000","0","8","252.758751519","1024","2","48000","-16","main","[(0, -252), (178, -178), (252, 0), (178, 178), (0, 252), (-178, 178), (-252, 0), (-178, -178)]","[]","12","even","2","99865","138672","138672","20367","19361","1802","25820","25820","1802","1802","23501","154629","1799","138672","153913","152934","152935","NA","973","study_X","0","3134","1","yes","1680"
"undefined","undefined","3134","3134","black","no","legacy","legacy","legacy","0","red","(179, 0, 0)","color","present","lowProb4","circular","swap","swap","same","same","green","(0, 122, 0)","lowProb","lowProb5","circular","uniform","1","undefined","0.03125","1","1","22.8177083333","1","6","4381","0","0","0","0","0","0","0","0","30","0","1","0.03125","22.8177083333","6","4381","30","30","30","08/21/17 15:45:23","Default description","yes","<openexp._canvas.legacy.legacy object at 0x049C27F0>","<openexp._canvas.legacy.legacy object at 0x049CE7B0>","<openexp._canvas.legacy.legacy object at 0x049BA510>","<openexp._canvas.legacy.legacy object at 0x04AB09D0>","<openexp._canvas.legacy.legacy object at 0x04A814B0>","<openexp._canvas.legacy.legacy object at 0x04AB02B0>","<openexp._canvas.legacy.legacy object at 0x04A82A50>","75","IndividualPriorityWithDis_v1.osexp","C:/Userdata/Michel/SpatialProb/IndividualPriorityMaps/Experiment2","no","mono","no","18","no","white","no","yes","0.09","98","1050","legacy","315","5","5","1","C:/Userdata/Michel/SpatialProb/IndividualPriorityMaps/Experiment2/data/subject-12.csv","legacy","9","192","25","Jazzy James","3.1.3","yes","598477b2b83f69022949e7e9","47","red","circular","green","circular","0","/","521","space","3134","3134","(80, 80, 80)","(0, 122, 0)","(179, 0, 0)","(155, 155, 155)","2","legacy","experiment","[3, 4, 5, 6, 7, 0, 1, 2]","/","2500","3000","0","8","252.758751519","1024","2","48000","-16","main","[(0, -252), (178, -178), (252, 0), (178, 178), (0, 252), (-178, 178), (-252, 0), (-178, -178)]","[]","12","even","1","99865","138672","138672","20367","19361","1802","25820","25820","1802","1802","23501","156549","1799","138672","156024","155045","155045","NA","973","study_X","0","3134","1","yes","1680"
"undefined","undefined","3134","3134","black","no","legacy","legacy","legacy","0","green","(0, 122, 0)","color","present","lowProb6","rectangular","swap","swap","swap","swap","red","(179, 0, 0)","highProbShape","highProbShape","rectangular","uniform","1","undefined","0.0364583333333","1","1","26.7135416667","1","7","5129","0","0","0","0","0","0","0","0","31","0","1","0.0364583333333","26.7135416667","7","5129","31","31","31","08/21/17 15:45:23","Default description","yes","<openexp._canvas.legacy.legacy object at 0x049C27F0>","<openexp._canvas.legacy.legacy object at 0x049CE7B0>","<openexp._canvas.legacy.legacy object at 0x049BA510>","<openexp._canvas.legacy.legacy object at 0x04AB09D0>","<openexp._canvas.legacy.legacy object at 0x04A814B0>","<openexp._canvas.legacy.legacy object at 0x049BAED0>","<openexp._canvas.legacy.legacy object at 0x04A82A50>","75","IndividualPriorityWithDis_v1.osexp","C:/Userdata/Michel/SpatialProb/IndividualPriorityMaps/Experiment2","no","mono","no","18","no","white","no","yes","0.09","98","1050","legacy","45","6","6","1","C:/Userdata/Michel/SpatialProb/IndividualPriorityMaps/Experiment2/data/subject-12.csv","legacy","9","192","25","Jazzy James","3.1.3","yes","598477b2b83f69022949e7e9","47","green","rectangular","red","rectangular","0","\","748","space","3134","3134","(80, 80, 80)","(0, 122, 0)","(179, 0, 0)","(155, 155, 155)","2","legacy","experiment","[3, 4, 5, 6, 7, 0, 1, 2]","\","2500","3000","0","8","252.758751519","1024","2","48000","-16","main","[(0, -252), (178, -178), (252, 0), (178, 178), (0, 252), (-178, 178), (-252, 0), (-178, -178)]","[]","12","even","7","99865","138672","138672","20367","19361","1802","25820","25820","1802","1802","23501","158700","1799","138672","157949","156970","156970","NA","973","study_X","0","3134","1","yes","1680"
"undefined","undefined","3134","3134","black","no","legacy","legacy","legacy","0","green","(0, 122, 0)","color","present","highProb","circular","same","swap","same","swap","red","(179, 0, 0)","highProbShape","highProbShape","circular","uniform","1","undefined","0.0416666666667","1","1","29.4947916667","1","8","5663","0","0","0","0","0","0","0","0","32","0","1","0.0416666666667","29.4947916667","8","5663","32","32","32","08/21/17 15:45:23","Default description","yes","<openexp._canvas.legacy.legacy object at 0x049C27F0>","<openexp._canvas.legacy.legacy object at 0x049CE7B0>","<openexp._canvas.legacy.legacy object at 0x049BA510>","<openexp._canvas.legacy.legacy object at 0x04AB09D0>","<openexp._canvas.legacy.legacy object at 0x04A814B0>","<openexp._canvas.legacy.legacy object at 0x049BE550>","<openexp._canvas.legacy.legacy object at 0x04A82A50>","75","IndividualPriorityWithDis_v1.osexp","C:/Userdata/Michel/SpatialProb/IndividualPriorityMaps/Experiment2","no","mono","no","18","no","white","no","yes","0.09","98","1050","legacy","45","7","7","1","C:/Userdata/Michel/SpatialProb/IndividualPriorityMaps/Experiment2/data/subject-12.csv","legacy","9","192","25","Jazzy James","3.1.3","yes","598477b2b83f69022949e7e9","47","green","circular","red","circular","0","\","534","space","3134","3134","(80, 80, 80)","(0, 122, 0)","(179, 0, 0)","(155, 155, 155)","2","legacy","experiment","[3, 4, 5, 6, 7, 0, 1, 2]","\","2500","3000","0","8","252.758751519","1024","2","48000","-16","main","[(0, -252), (178, -178), (252, 0), (178, 178), (0, 252), (-178, 178), (-252, 0), (-178, -178)]","[]","12","even","7","99865","138672","138672","20367","19361","1802","25820","25820","1802","1802","23501","160660","1799","138672","160123","159144","159144","NA","973","study_X","0","3134","1","yes","1680"
"undefined","undefined","3134","3134","black","no","legacy","legacy","legacy","0","red","(179, 0, 0)","shape","absent","lowProb6","rectangular","swap","swap","same","swap","red","(179, 0, 0)","highProbColor","highProbColor","rectangular","uniform","1","undefined","0.046875","1","1","34.8854166667","1","9","6698","0","0","0","0","0","0","0","0","33","0","1","0.046875","34.8854166667","9","6698","33","33","33","08/21/17 15:45:23","Default description","yes","<openexp._canvas.legacy.legacy object at 0x049C27F0>","<openexp._canvas.legacy.legacy object at 0x049CE7B0>","<openexp._canvas.legacy.legacy object at 0x049BA510>","<openexp._canvas.legacy.legacy object at 0x04AB09D0>","<openexp._canvas.legacy.legacy object at 0x04A814B0>","<openexp._canvas.legacy.legacy object at 0x04AB0AB0>","<openexp._canvas.legacy.legacy object at 0x04A82A50>","75","IndividualPriorityWithDis_v1.osexp","C:/Userdata/Michel/SpatialProb/IndividualPriorityMaps/Experiment2","no","mono","no","18","no","white","no","yes","0.09","98","1050","legacy","45","8","8","1","C:/Userdata/Michel/SpatialProb/IndividualPriorityMaps/Experiment2/data/subject-12.csv","legacy","9","192","25","Jazzy James","3.1.3","yes","598477b2b83f69022949e7e9","47","red","rectangular","red","rectangular","0","\","1035","space","3134","3134","(80, 80, 80)","(0, 122, 0)","(179, 0, 0)","(155, 155, 155)","2","legacy","experiment","[3, 4, 5, 6, 7, 0, 1, 2]","\","2500","3000","0","8","252.758751519","1024","2","48000","-16","main","[(0, -252), (178, -178), (252, 0), (178, 178), (0, 252), (-178, 178), (-252, 0), (-178, -178)]","[]","12","even","3","99865","138672","138672","20367","19361","1802","25820","25820","1802","1802","23501","163092","1799","138672","162054","161075","161075","NA","973","study_X","0","3134","1","yes","1680"
"undefined","undefined","3134","3134","black","no","legacy","legacy","legacy","0","red","(179, 0, 0)","color","present","highProb","circular","same","swap","swap","swap","green","(0, 122, 0)","lowProb","lowProb5","circular","uniform","1","undefined","0.0520833333333","1","1","40.59375","1","10","7794","0","0","0","0","0","0","0","0","34","0","1","0.0520833333333","40.59375","10","7794","34","34","34","08/21/17 15:45:23","Default description","yes","<openexp._canvas.legacy.legacy object at 0x049C27F0>","<openexp._canvas.legacy.legacy object at 0x049CE7B0>","<openexp._canvas.legacy.legacy object at 0x049BA510>","<openexp._canvas.legacy.legacy object at 0x04AB09D0>","<openexp._canvas.legacy.legacy object at 0x04A814B0>","<openexp._canvas.legacy.legacy object at 0x04AB0250>","<openexp._canvas.legacy.legacy object at 0x04A82A50>","75","IndividualPriorityWithDis_v1.osexp","C:/Userdata/Michel/SpatialProb/IndividualPriorityMaps/Experiment2","no","mono","no","18","no","white","no","yes","0.09","98","1050","legacy","45","9","9","1","C:/Userdata/Michel/SpatialProb/IndividualPriorityMaps/Experiment2/data/subject-12.csv","legacy","9","192","25","Jazzy James","3.1.3","yes","598477b2b83f69022949e7e9","47","red","circular","green","circular","0","\","1096","space","3134","3134","(80, 80, 80)","(0, 122, 0)","(179, 0, 0)","(155, 155, 155)","2","legacy","experiment","[3, 4, 5, 6, 7, 0, 1, 2]","\","2500","3000","0","8","252.758751519","1024","2","48000","-16","main","[(0, -252), (178, -178), (252, 0), (178, 178), (0, 252), (-178, 178), (-252, 0), (-178, -178)]","[]","12","even","1","99865","138672","138672","20367","19361","1802","25820","25820","1802","1802","23501","165596","1799","138672","164498","163519","163519","NA","973","study_X","0","3134","1","yes","1680"
"undefined","undefined","3134","3134","black","no","legacy","legacy","legacy","0","red","(179, 0, 0)","shape","present","highProb","rectangular","same","swap","swap","same","red","(179, 0, 0)","lowProb","lowProb1","circular","uniform","1","undefined","0.0572916666667","1","1","45.40625","1","11","8718","0","0","0","0","0","0","0","0","35","0","1","0.0572916666667","45.40625","11","8718","35","35","35","08/21/17 15:45:23","Default description","yes","<openexp._canvas.legacy.legacy object at 0x049C27F0>","<openexp._canvas.legacy.legacy object at 0x049CE7B0>","<openexp._canvas.legacy.legacy object at 0x049BA510>","<openexp._canvas.legacy.legacy object at 0x04AB09D0>","<openexp._canvas.legacy.legacy object at 0x04A814B0>","<openexp._canvas.legacy.legacy object at 0x049BA790>","<openexp._canvas.legacy.legacy object at 0x04A82A50>","75","IndividualPriorityWithDis_v1.osexp","C:/Userdata/Michel/SpatialProb/IndividualPriorityMaps/Experiment2","no","mono","no","18","no","white","no","yes","0.09","98","1050","legacy","315","10","10","1","C:/Userdata/Michel/SpatialProb/IndividualPriorityMaps/Experiment2/data/subject-12.csv","legacy","9","192","25","Jazzy James","3.1.3","yes","598477b2b83f69022949e7e9","47","red","rectangular","red","circular","0","/","924","space","3134","3134","(80, 80, 80)","(0, 122, 0)","(179, 0, 0)","(155, 155, 155)","2","legacy","experiment","[3, 4, 5, 6, 7, 0, 1, 2]","/","2500","3000","0","8","252.758751519","1024","2","48000","-16","main","[(0, -252), (178, -178), (252, 0), (178, 178), (0, 252), (-178, 178), (-252, 0), (-178, -178)]","[]","12","even","4","99865","138672","138672","20367","19361","1802","25820","25820","1802","1802","23501","167925","1799","138672","166998","166019","166019","NA","973","study_X","0","3134","1","yes","1680"
"undefined","undefined","3134","3134","black","no","legacy","legacy","legacy","0","red","(179, 0, 0)","color","present","highProb","rectangular","same","same","swap","swap","green","(0, 122, 0)","lowProb","lowProb3","rectangular","uniform","1","undefined","0.0625","1","1","51.3020833333","1","12","9850","0","0","0","0","0","0","0","0","36","0","1","0.0625","51.3020833333","12","9850","36","36","36","08/21/17 15:45:23","Default description","yes","<openexp._canvas.legacy.legacy object at 0x049C27F0>","<openexp._canvas.legacy.legacy object at 0x049CE7B0>","<openexp._canvas.legacy.legacy object at 0x049BA510>","<openexp._canvas.legacy.legacy object at 0x04AB09D0>","<openexp._canvas.legacy.legacy object at 0x04A814B0>","<openexp._canvas.legacy.legacy object at 0x049BAC90>","<openexp._canvas.legacy.legacy object at 0x04A82A50>","75","IndividualPriorityWithDis_v1.osexp","C:/Userdata/Michel/SpatialProb/IndividualPriorityMaps/Experiment2","no","mono","no","18","no","white","no","yes","0.09","98","1050","legacy","45","11","11","1","C:/Userdata/Michel/SpatialProb/IndividualPriorityMaps/Experiment2/data/subject-12.csv","legacy","9","192","25","Jazzy James","3.1.3","yes","598477b2b83f69022949e7e9","47","red","rectangular","green","rectangular","0","\","1132","space","3134","3134","(80, 80, 80)","(0, 122, 0)","(179, 0, 0)","(155, 155, 155)","2","legacy","experiment","[3, 4, 5, 6, 7, 0, 1, 2]","\","2500","3000","0","8","252.758751519","1024","2","48000","-16","main","[(0, -252), (178, -178), (252, 0), (178, 178), (0, 252), (-178, 178), (-252, 0), (-178, -178)]","[]","12","even","6","99865","138672","138672","20367","19361","1802","25820","25820","1802","1802","23501","170461","1799","138672","169325","168346","168346","NA","973","study_X","0","3134","1","yes","1680"
"undefined","undefined","3134","3134","black","no","legacy","legacy","legacy","0","red","(179, 0, 0)","shape","present","highProb","circular","same","swap","swap","same","red","(179, 0, 0)","lowProb","lowProb5","rectangular","uniform","1","undefined","0.0677083333333","1","1","59.0572916667","1","13","11339","0","0","0","0","0","0","0","0","37","0","1","0.0677083333333","59.0572916667","13","11339","37","37","37","08/21/17 15:45:23","Default description","yes","<openexp._canvas.legacy.legacy object at 0x049C27F0>","<openexp._canvas.legacy.legacy object at 0x049CE7B0>","<openexp._canvas.legacy.legacy object at 0x049BA510>","<openexp._canvas.legacy.legacy object at 0x04AB09D0>","<openexp._canvas.legacy.legacy object at 0x04A814B0>","<openexp._canvas.legacy.legacy object at 0x04AB08B0>","<openexp._canvas.legacy.legacy object at 0x04A82A50>","75","IndividualPriorityWithDis_v1.osexp","C:/Userdata/Michel/SpatialProb/IndividualPriorityMaps/Experiment2","no","mono","no","18","no","white","no","yes","0.09","98","1050","legacy","315","12","12","1","C:/Userdata/Michel/SpatialProb/IndividualPriorityMaps/Experiment2/data/subject-12.csv","legacy","9","192","25","Jazzy James","3.1.3","yes","598477b2b83f69022949e7e9","47","red","circular","red","rectangular","0","/","1489","space","3134","3134","(80, 80, 80)","(0, 122, 0)","(179, 0, 0)","(155, 155, 155)","2","legacy","experiment","[3, 4, 5, 6, 7, 0, 1, 2]","/","2500","3000","0","8","252.758751519","1024","2","48000","-16","main","[(0, -252), (178, -178), (252, 0), (178, 178), (0, 252), (-178, 178), (-252, 0), (-178, -178)]","[]","12","even","1","99865","138672","138672","20367","19361","1802","25820","25820","1802","1802","23501","173365","1799","138672","171873","170894","170894","NA","973","study_X","0","3134","1","yes","1680"
"undefined","undefined","3134","3134","black","no","legacy","legacy","legacy","0","red","(179, 0, 0)","shape","present","highProb","rectangular","same","swap","same","swap","red","(179, 0, 0)","lowProb","lowProb5","circular","uniform","0","undefined","0.0677083333333","1","1","72.078125","1","13","13839","0","0","0","0","0","0","0","0","38","0","1","0.0677083333333","72.078125","13","13839","38","38","38","08/21/17 15:45:23","Default description","yes","<openexp._canvas.legacy.legacy object at 0x049C27F0>","<openexp._canvas.legacy.legacy object at 0x049CE7B0>","<openexp._canvas.legacy.legacy object at 0x049BA510>","<openexp._canvas.legacy.legacy object at 0x04AB09D0>","<openexp._canvas.legacy.legacy object at 0x04A814B0>","<openexp._canvas.legacy.legacy object at 0x049CEE70>","<openexp._canvas.legacy.legacy object at 0x04A82A50>","75","IndividualPriorityWithDis_v1.osexp","C:/Userdata/Michel/SpatialProb/IndividualPriorityMaps/Experiment2","no","mono","no","18","no","white","no","yes","0.09","98","1050","legacy","45","13","13","1","C:/Userdata/Michel/SpatialProb/IndividualPriorityMaps/Experiment2/data/subject-12.csv","legacy","9","192","25","Jazzy James","3.1.3","yes","598477b2b83f69022949e7e9","47","red","rectangular","red","circular","0","None","2500","space","3134","3134","(80, 80, 80)","(0, 122, 0)","(179, 0, 0)","(155, 155, 155)","2","legacy","experiment","[3, 4, 5, 6, 7, 0, 1, 2]","\","2500","3000","0","8","252.758751519","1024","2","48000","-16","main","[(0, -252), (178, -178), (252, 0), (178, 178), (0, 252), (-178, 178), (-252, 0), (-178, -178)]","[]","12","even","1","99865","138672","138672","20367","19361","1802","25820","25820","1802","1802","23501","177270","1799","138672","174768","173789","173789","NA","973","study_X","0","3134","1","yes","1680"
"undefined","undefined","3134","3134","black","no","legacy","legacy","legacy","0","red","(179, 0, 0)","shape","present","highProb","circular","same","swap","same","swap","red","(179, 0, 0)","lowProb","lowProb3","rectangular","uniform","1","undefined","0.0729166666667","1","1","76.984375","1","14","14781","0","0","0","0","0","0","0","0","39","0","1","0.0729166666667","76.984375","14","14781","39","39","39","08/21/17 15:45:23","Default description","yes","<openexp._canvas.legacy.legacy object at 0x049C27F0>","<openexp._canvas.legacy.legacy object at 0x049CE7B0>","<openexp._canvas.legacy.legacy object at 0x049BA510>","<openexp._canvas.legacy.legacy object at 0x04AB09D0>","<openexp._canvas.legacy.legacy object at 0x04A814B0>","<openexp._canvas.legacy.legacy object at 0x049BEE70>","<openexp._canvas.legacy.legacy object at 0x04A82A50>","75","IndividualPriorityWithDis_v1.osexp","C:/Userdata/Michel/SpatialProb/IndividualPriorityMaps/Experiment2","no","mono","no","18","no","white","no","yes","0.09","98","1050","legacy","45","14","14","1","C:/Userdata/Michel/SpatialProb/IndividualPriorityMaps/Experiment2/data/subject-12.csv","legacy","9","192","25","Jazzy James","3.1.3","yes","598477b2b83f69022949e7e9","47","red","circular","red","rectangular","0","\","942","space","3134","3134","(80, 80, 80)","(0, 122, 0)","(179, 0, 0)","(155, 155, 155)","2","legacy","experiment","[3, 4, 5, 6, 7, 0, 1, 2]","\","2500","3000","0","8","252.758751519","1024","2","48000","-16","main","[(0, -252), (178, -178), (252, 0), (178, 178), (0, 252), (-178, 178), (-252, 0), (-178, -178)]","[]","12","even","6","99865","138672","138672","20367","19361","1802","25820","25820","1802","1802","23501","179596","1799","138672","178651","177673","177673","NA","973","study_X","0","3134","1","yes","1680"
"undefined","undefined","3134","3134","black","no","legacy","legacy","legacy","0","red","(179, 0, 0)","shape","present","highProb","circular","same","same","same","same","red","(179, 0, 0)","lowProb","lowProb5","rectangular","uniform","1","undefined","0.078125","1","1","82.5416666667","1","15","15848","0","0","0","0","0","0","0","0","40","0","1","0.078125","82.5416666667","15","15848","40","40","40","08/21/17 15:45:23","Default description","yes","<openexp._canvas.legacy.legacy object at 0x049C27F0>","<openexp._canvas.legacy.legacy object at 0x049CE7B0>","<openexp._canvas.legacy.legacy object at 0x049BA510>","<openexp._canvas.legacy.legacy object at 0x04AB09D0>","<openexp._canvas.legacy.legacy object at 0x04A814B0>","<openexp._canvas.legacy.legacy object at 0x049D2B30>","<openexp._canvas.legacy.legacy object at 0x04A82A50>","75","IndividualPriorityWithDis_v1.osexp","C:/Userdata/Michel/SpatialProb/IndividualPriorityMaps/Experiment2","no","mono","no","18","no","white","no","yes","0.09","98","1050","legacy","45","15","15","1","C:/Userdata/Michel/SpatialProb/IndividualPriorityMaps/Experiment2/data/subject-12.csv","legacy","9","192","25","Jazzy James","3.1.3","yes","598477b2b83f69022949e7e9","47","red","circular","red","rectangular","0","\","1067","space","3134","3134","(80, 80, 80)","(0, 122, 0)","(179, 0, 0)","(155, 155, 155)","2","legacy","experiment","[3, 4, 5, 6, 7, 0, 1, 2]","\","2500","3000","0","8","252.758751519","1024","2","48000","-16","main","[(0, -252), (178, -178), (252, 0), (178, 178), (0, 252), (-178, 178), (-252, 0), (-178, -178)]","[]","12","even","1","99865","138672","138672","20367","19361","1802","25820","25820","1802","1802","23501","182116","1799","138672","181046","180067","180067","NA","973","study_X","0","3134","1","yes","1680"
"undefined","undefined","3134","3134","black","no","legacy","legacy","legacy","0","red","(179, 0, 0)","shape","present","highProb","rectangular","same","swap","same","swap","red","(179, 0, 0)","lowProb","lowProb1","circular","uniform","1","undefined","0.0833333333333","1","1","88.2864583333","1","16","16951","0","0","0","0","0","0","0","0","41","0","1","0.0833333333333","88.2864583333","16","16951","41","41","41","08/21/17 15:45:23","Default description","yes","<openexp._canvas.legacy.legacy object at 0x049C27F0>","<openexp._canvas.legacy.legacy object at 0x049CE7B0>","<openexp._canvas.legacy.legacy object at 0x049BA510>","<openexp._canvas.legacy.legacy object at 0x04AB09D0>","<openexp._canvas.legacy.legacy object at 0x04A814B0>","<openexp._canvas.legacy.legacy object at 0x049BFA50>","<openexp._canvas.legacy.legacy object at 0x04A82A50>","75","IndividualPriorityWithDis_v1.osexp","C:/Userdata/Michel/SpatialProb/IndividualPriorityMaps/Experiment2","no","mono","no","18","no","white","no","yes","0.09","98","1050","legacy","45","16","16","1","C:/Userdata/Michel/SpatialProb/IndividualPriorityMaps/Experiment2/data/subject-12.csv","legacy","9","192","25","Jazzy James","3.1.3","yes","598477b2b83f69022949e7e9","47","red","rectangular","red","circular","0","\","1103","space","3134","3134","(80, 80, 80)","(0, 122, 0)","(179, 0, 0)","(155, 155, 155)","2","legacy","experiment","[3, 4, 5, 6, 7, 0, 1, 2]","\","2500","3000","0","8","252.758751519","1024","2","48000","-16","main","[(0, -252), (178, -178), (252, 0), (178, 178), (0, 252), (-178, 178), (-252, 0), (-178, -178)]","[]","12","even","4","99865","138672","138672","20367","19361","1802","25820","25820","1802","1802","23501","184628","1799","138672","183521","182542","182543","NA","973","study_X","0","3134","1","yes","1680"
"undefined","undefined","3134","3134","black","no","legacy","legacy","legacy","0","green","(0, 122, 0)","color","absent","lowProb1","circular","swap","swap","swap","same","green","(0, 122, 0)","lowProb","lowProb1","circular","uniform","1","undefined","0.0885416666667","1","1","91.078125","1","17","17487","0","0","0","0","0","0","0","0","42","0","1","0.0885416666667","91.078125","17","17487","42","42","42","08/21/17 15:45:23","Default description","yes","<openexp._canvas.legacy.legacy object at 0x049C27F0>","<openexp._canvas.legacy.legacy object at 0x049CE7B0>","<openexp._canvas.legacy.legacy object at 0x049BA510>","<openexp._canvas.legacy.legacy object at 0x04AB09D0>","<openexp._canvas.legacy.legacy object at 0x04A814B0>","<openexp._canvas.legacy.legacy object at 0x049BAF30>","<openexp._canvas.legacy.legacy object at 0x04A82A50>","75","IndividualPriorityWithDis_v1.osexp","C:/Userdata/Michel/SpatialProb/IndividualPriorityMaps/Experiment2","no","mono","no","18","no","white","no","yes","0.09","98","1050","legacy","45","17","17","1","C:/Userdata/Michel/SpatialProb/IndividualPriorityMaps/Experiment2/data/subject-12.csv","legacy","9","192","25","Jazzy James","3.1.3","yes","598477b2b83f69022949e7e9","47","green","circular","green","circular","0","\","536","space","3134","3134","(80, 80, 80)","(0, 122, 0)","(179, 0, 0)","(155, 155, 155)","2","legacy","experiment","[3, 4, 5, 6, 7, 0, 1, 2]","\","2500","3000","0","8","252.758751519","1024","2","48000","-16","main","[(0, -252), (178, -178), (252, 0), (178, 178), (0, 252), (-178, 178), (-252, 0), (-178, -178)]","[]","12","even","4","99865","138672","138672","20367","19361","1802","25820","25820","1802","1802","23501","186581","1799","138672","186041","185062","185062","NA","973","study_X","0","3134","1","yes","1680"
"undefined","undefined","3134","3134","black","no","legacy","legacy","legacy","0","red","(179, 0, 0)","shape","present","lowProb2","circular","swap","same","swap","swap","red","(179, 0, 0)","lowProb","lowProb4","rectangular","uniform","1","undefined","0.09375","1","1","97.1302083333","1","18","18649","0","0","0","0","0","0","0","0","43","0","1","0.09375","97.1302083333","18","18649","43","43","43","08/21/17 15:45:23","Default description","yes","<openexp._canvas.legacy.legacy object at 0x049C27F0>","<openexp._canvas.legacy.legacy object at 0x049CE7B0>","<openexp._canvas.legacy.legacy object at 0x049BA510>","<openexp._canvas.legacy.legacy object at 0x04AB09D0>","<openexp._canvas.legacy.legacy object at 0x04A814B0>","<openexp._canvas.legacy.legacy object at 0x049C93D0>","<openexp._canvas.legacy.legacy object at 0x04A82A50>","75","IndividualPriorityWithDis_v1.osexp","C:/Userdata/Michel/SpatialProb/IndividualPriorityMaps/Experiment2","no","mono","no","18","no","white","no","yes","0.09","98","1050","legacy","315","18","18","1","C:/Userdata/Michel/SpatialProb/IndividualPriorityMaps/Experiment2/data/subject-12.csv","legacy","9","192","25","Jazzy James","3.1.3","yes","598477b2b83f69022949e7e9","47","red","circular","red","rectangular","0","/","1162","space","3134","3134","(80, 80, 80)","(0, 122, 0)","(179, 0, 0)","(155, 155, 155)","2","legacy","experiment","[3, 4, 5, 6, 7, 0, 1, 2]","/","2500","3000","0","8","252.758751519","1024","2","48000","-16","main","[(0, -252), (178, -178), (252, 0), (178, 178), (0, 252), (-178, 178), (-252, 0), (-178, -178)]","[]","12","even","0","99865","138672","138672","20367","19361","1802","25820","25820","1802","1802","23501","189141","1799","138672","187976","186997","186997","NA","973","study_X","0","3134","1","yes","1680"
"undefined","undefined","3134","3134","black","no","legacy","legacy","legacy","0","red","(179, 0, 0)","color","present","lowProb4","circular","same","same","swap","swap","green","(0, 122, 0)","lowProb","lowProb6","circular","uniform","1","undefined","0.0989583333333","1","1","102.755208333","1","19","19729","0","0","0","0","0","0","0","0","44","0","1","0.0989583333333","102.755208333","19","19729","44","44","44","08/21/17 15:45:23","Default description","yes","<openexp._canvas.legacy.legacy object at 0x049C27F0>","<openexp._canvas.legacy.legacy object at 0x049CE7B0>","<openexp._canvas.legacy.legacy object at 0x049BA510>","<openexp._canvas.legacy.legacy object at 0x04AB09D0>","<openexp._canvas.legacy.legacy object at 0x04A814B0>","<openexp._canvas.legacy.legacy object at 0x04AB1A50>","<openexp._canvas.legacy.legacy object at 0x04A82A50>","75","IndividualPriorityWithDis_v1.osexp","C:/Userdata/Michel/SpatialProb/IndividualPriorityMaps/Experiment2","no","mono","no","18","no","white","no","yes","0.09","98","1050","legacy","45","19","19","1","C:/Userdata/Michel/SpatialProb/IndividualPriorityMaps/Experiment2/data/subject-12.csv","legacy","9","192","25","Jazzy James","3.1.3","yes","598477b2b83f69022949e7e9","47","red","circular","green","circular","0","\","1080","space","3134","3134","(80, 80, 80)","(0, 122, 0)","(179, 0, 0)","(155, 155, 155)","2","legacy","experiment","[3, 4, 5, 6, 7, 0, 1, 2]","\","2500","3000","0","8","252.758751519","1024","2","48000","-16","main","[(0, -252), (178, -178), (252, 0), (178, 178), (0, 252), (-178, 178), (-252, 0), (-178, -178)]","[]","12","even","2","99865","138672","138672","20367","19361","1802","25820","25820","1802","1802","23501","191628","1799","138672","190545","189566","189566","NA","973","study_X","0","3134","1","yes","1680"
"undefined","undefined","3134","3134","black","no","legacy","legacy","legacy","0","green","(0, 122, 0)","shape","present","lowProb5","rectangular","swap","swap","same","same","green","(0, 122, 0)","lowProb","lowProb1","circular","uniform","1","undefined","0.104166666667","1","1","108.942708333","1","20","20917","0","0","0","0","0","0","0","0","45","0","1","0.104166666667","108.942708333","20","20917","45","45","45","08/21/17 15:45:23","Default description","yes","<openexp._canvas.legacy.legacy object at 0x049C27F0>","<openexp._canvas.legacy.legacy object at 0x049CE7B0>","<openexp._canvas.legacy.legacy object at 0x049BA510>","<openexp._canvas.legacy.legacy object at 0x04AB09D0>","<openexp._canvas.legacy.legacy object at 0x04A814B0>","<openexp._canvas.legacy.legacy object at 0x049BFF70>","<openexp._canvas.legacy.legacy object at 0x04A82A50>","75","IndividualPriorityWithDis_v1.osexp","C:/Userdata/Michel/SpatialProb/IndividualPriorityMaps/Experiment2","no","mono","no","18","no","white","no","yes","0.09","98","1050","legacy","45","20","20","1","C:/Userdata/Michel/SpatialProb/IndividualPriorityMaps/Experiment2/data/subject-12.csv","legacy","9","192","25","Jazzy James","3.1.3","yes","598477b2b83f69022949e7e9","47","green","rectangular","green","circular","0","\","1188","space","3134","3134","(80, 80, 80)","(0, 122, 0)","(179, 0, 0)","(155, 155, 155)","2","legacy","experiment","[3, 4, 5, 6, 7, 0, 1, 2]","\","2500","3000","0","8","252.758751519","1024","2","48000","-16","main","[(0, -252), (178, -178), (252, 0), (178, 178), (0, 252), (-178, 178), (-252, 0), (-178, -178)]","[]","12","even","4","99865","138672","138672","20367","19361","1802","25820","25820","1802","1802","23501","194220","1799","138672","193029","192050","192050","NA","973","study_X","0","3134","1","yes","1680"
"undefined","undefined","3134","3134","black","no","legacy","legacy","legacy","0","green","(0, 122, 0)","shape","present","highProb","rectangular","same","same","same","same","green","(0, 122, 0)","lowProb","lowProb2","circular","uniform","1","undefined","0.109375","1","1","115.369791667","1","21","22151","0","0","0","0","0","0","0","0","46","0","1","0.109375","115.369791667","21","22151","46","46","46","08/21/17 15:45:23","Default description","yes","<openexp._canvas.legacy.legacy object at 0x049C27F0>","<openexp._canvas.legacy.legacy object at 0x049CE7B0>","<openexp._canvas.legacy.legacy object at 0x049BA510>","<openexp._canvas.legacy.legacy object at 0x04AB09D0>","<openexp._canvas.legacy.legacy object at 0x04A814B0>","<openexp._canvas.legacy.legacy object at 0x049C9FB0>","<openexp._canvas.legacy.legacy object at 0x04A82A50>","75","IndividualPriorityWithDis_v1.osexp","C:/Userdata/Michel/SpatialProb/IndividualPriorityMaps/Experiment2","no","mono","no","18","no","white","no","yes","0.09","98","1050","legacy","315","21","21","1","C:/Userdata/Michel/SpatialProb/IndividualPriorityMaps/Experiment2/data/subject-12.csv","legacy","9","192","25","Jazzy James","3.1.3","yes","598477b2b83f69022949e7e9","47","green","rectangular","green","circular","0","/","1234","space","3134","3134","(80, 80, 80)","(0, 122, 0)","(179, 0, 0)","(155, 155, 155)","2","legacy","experiment","[3, 4, 5, 6, 7, 0, 1, 2]","/","2500","3000","0","8","252.758751519","1024","2","48000","-16","main","[(0, -252), (178, -178), (252, 0), (178, 178), (0, 252), (-178, 178), (-252, 0), (-178, -178)]","[]","12","even","5","99865","138672","138672","20367","19361","1802","25820","25820","1802","1802","23501","196860","1799","138672","195623","194644","194644","NA","973","study_X","0","3134","1","yes","1680"
"undefined","undefined","3134","3134","black","no","legacy","legacy","legacy","0","green","(0, 122, 0)","color","absent","lowProb5","circular","same","swap","same","same","green","(0, 122, 0)","lowProb","lowProb5","circular","uniform","1","undefined","0.114583333333","1","1","120.84375","1","22","23202","0","0","0","0","0","0","0","0","47","0","1","0.114583333333","120.84375","22","23202","47","47","47","08/21/17 15:45:23","Default description","yes","<openexp._canvas.legacy.legacy object at 0x049C27F0>","<openexp._canvas.legacy.legacy object at 0x049CE7B0>","<openexp._canvas.legacy.legacy object at 0x049BA510>","<openexp._canvas.legacy.legacy object at 0x04AB09D0>","<openexp._canvas.legacy.legacy object at 0x04A814B0>","<openexp._canvas.legacy.legacy object at 0x04AABB30>","<openexp._canvas.legacy.legacy object at 0x04A82A50>","75","IndividualPriorityWithDis_v1.osexp","C:/Userdata/Michel/SpatialProb/IndividualPriorityMaps/Experiment2","no","mono","no","18","no","white","no","yes","0.09","98","1050","legacy","315","22","22","1","C:/Userdata/Michel/SpatialProb/IndividualPriorityMaps/Experiment2/data/subject-12.csv","legacy","9","192","25","Jazzy James","3.1.3","yes","598477b2b83f69022949e7e9","47","green","circular","green","circular","0","/","1051","space","3134","3134","(80, 80, 80)","(0, 122, 0)","(179, 0, 0)","(155, 155, 155)","2","legacy","experiment","[3, 4, 5, 6, 7, 0, 1, 2]","/","2500","3000","0","8","252.758751519","1024","2","48000","-16","main","[(0, -252), (178, -178), (252, 0), (178, 178), (0, 252), (-178, 178), (-252, 0), (-178, -178)]","[]","12","even","1","99865","138672","138672","20367","19361","1802","25820","25820","1802","1802","23501","199332","1799","138672","198277","197298","197298","NA","973","study_X","0","3134","1","yes","1680"
"undefined","undefined","3134","3134","black","no","legacy","legacy","legacy","0","red","(179, 0, 0)","color","present","highProb","rectangular","swap","swap","same","swap","green","(0, 122, 0)","lowProb","lowProb1","rectangular","uniform","1","undefined","0.119791666667","1","1","126.578125","1","23","24303","0","0","0","0","0","0","0","0","48","0","1","0.119791666667","126.578125","23","24303","48","48","48","08/21/17 15:45:23","Default description","yes","<openexp._canvas.legacy.legacy object at 0x049C27F0>","<openexp._canvas.legacy.legacy object at 0x049CE7B0>","<openexp._canvas.legacy.legacy object at 0x049BA510>","<openexp._canvas.legacy.legacy object at 0x04AB09D0>","<openexp._canvas.legacy.legacy object at 0x04A814B0>","<openexp._canvas.legacy.legacy object at 0x049BECB0>","<openexp._canvas.legacy.legacy object at 0x04A82A50>","75","IndividualPriorityWithDis_v1.osexp","C:/Userdata/Michel/SpatialProb/IndividualPriorityMaps/Experiment2","no","mono","no","18","no","white","no","yes","0.09","98","1050","legacy","315","23","23","1","C:/Userdata/Michel/SpatialProb/IndividualPriorityMaps/Experiment2/data/subject-12.csv","legacy","9","192","25","Jazzy James","3.1.3","yes","598477b2b83f69022949e7e9","47","red","rectangular","green","rectangular","0","/","1101","space","3134","3134","(80, 80, 80)","(0, 122, 0)","(179, 0, 0)","(155, 155, 155)","2","legacy","experiment","[3, 4, 5, 6, 7, 0, 1, 2]","/","2500","3000","0","8","252.758751519","1024","2","48000","-16","main","[(0, -252), (178, -178), (252, 0), (178, 178), (0, 252), (-178, 178), (-252, 0), (-178, -178)]","[]","12","even","4","99865","138672","138672","20367","19361","1802","25820","25820","1802","1802","23501","201836","1799","138672","200731","199753","199753","NA","973","study_X","0","3134","1","yes","1680"
"undefined","undefined","3134","3134","black","no","legacy","legacy","legacy","0","red","(179, 0, 0)","color","present","lowProb5","circular","same","swap","same","swap","green","(0, 122, 0)","lowProb","lowProb2","circular","uniform","1","undefined","0.125","1","1","130.75","1","24","25104","0","0","0","0","0","0","0","0","49","0","1","0.125","130.75","24","25104","49","49","49","08/21/17 15:45:23","Default description","yes","<openexp._canvas.legacy.legacy object at 0x049C27F0>","<openexp._canvas.legacy.legacy object at 0x049CE7B0>","<openexp._canvas.legacy.legacy object at 0x049BA510>","<openexp._canvas.legacy.legacy object at 0x04AB09D0>","<openexp._canvas.legacy.legacy object at 0x04A814B0>","<openexp._canvas.legacy.legacy object at 0x04AB1410>","<openexp._canvas.legacy.legacy object at 0x04A82A50>","75","IndividualPriorityWithDis_v1.osexp","C:/Userdata/Michel/SpatialProb/IndividualPriorityMaps/Experiment2","no","mono","no","18","no","white","no","yes","0.09","98","1050","legacy","45","24","24","1","C:/Userdata/Michel/SpatialProb/IndividualPriorityMaps/Experiment2/data/subject-12.csv","legacy","9","192","25","Jazzy James","3.1.3","yes","598477b2b83f69022949e7e9","47","red","circular","green","circular","0","\","801","space","3134","3134","(80, 80, 80)","(0, 122, 0)","(179, 0, 0)","(155, 155, 155)","2","legacy","experiment","[3, 4, 5, 6, 7, 0, 1, 2]","\","2500","3000","0","8","252.758751519","1024","2","48000","-16","main","[(0, -252), (178, -178), (252, 0), (178, 178), (0, 252), (-178, 178), (-252, 0), (-178, -178)]","[]","12","even","5","99865","138672","138672","20367","19361","1802","25820","25820","1802","1802","23501","204061","1799","138672","203256","202277","202277","NA","973","study_X","0","3134","1","yes","1680"
"undefined","undefined","3134","3134","black","no","legacy","legacy","legacy","0","red","(179, 0, 0)","shape","present","lowProb2","rectangular","same","swap","swap","same","red","(179, 0, 0)","lowProb","lowProb5","circular","uniform","1","undefined","0.130208333333","1","1","137.911458333","1","25","26479","0","0","0","0","0","0","0","0","50","0","1","0.130208333333","137.911458333","25","26479","50","50","50","08/21/17 15:45:23","Default description","yes","<openexp._canvas.legacy.legacy object at 0x049C27F0>","<openexp._canvas.legacy.legacy object at 0x049CE7B0>","<openexp._canvas.legacy.legacy object at 0x049BA510>","<openexp._canvas.legacy.legacy object at 0x04AB09D0>","<openexp._canvas.legacy.legacy object at 0x04A814B0>","<openexp._canvas.legacy.legacy object at 0x04AB09B0>","<openexp._canvas.legacy.legacy object at 0x04A82A50>","75","IndividualPriorityWithDis_v1.osexp","C:/Userdata/Michel/SpatialProb/IndividualPriorityMaps/Experiment2","no","mono","no","18","no","white","no","yes","0.09","98","1050","legacy","45","25","25","1","C:/Userdata/Michel/SpatialProb/IndividualPriorityMaps/Experiment2/data/subject-12.csv","legacy","9","192","25","Jazzy James","3.1.3","yes","598477b2b83f69022949e7e9","47","red","rectangular","red","circular","0","\","1375","space","3134","3134","(80, 80, 80)","(0, 122, 0)","(179, 0, 0)","(155, 155, 155)","2","legacy","experiment","[3, 4, 5, 6, 7, 0, 1, 2]","\","2500","3000","0","8","252.758751519","1024","2","48000","-16","main","[(0, -252), (178, -178), (252, 0), (178, 178), (0, 252), (-178, 178), (-252, 0), (-178, -178)]","[]","12","even","1","99865","138672","138672","20367","19361","1802","25820","25820","1802","1802","23501","206836","1799","138672","205458","204479","204480","NA","973","study_X","0","3134","1","yes","1680"
"undefined","undefined","3134","3134","black","no","legacy","legacy","legacy","0","green","(0, 122, 0)","shape","present","highProb","circular","swap","swap","swap","swap","green","(0, 122, 0)","lowProb","lowProb1","rectangular","uniform","1","undefined","0.135416666667","1","1","146.34375","1","26","28098","0","0","0","0","0","0","0","0","51","0","1","0.135416666667","146.34375","26","28098","51","51","51","08/21/17 15:45:23","Default description","yes","<openexp._canvas.legacy.legacy object at 0x049C27F0>","<openexp._canvas.legacy.legacy object at 0x049CE7B0>","<openexp._canvas.legacy.legacy object at 0x049BA510>","<openexp._canvas.legacy.legacy object at 0x04AB09D0>","<openexp._canvas.legacy.legacy object at 0x04A814B0>","<openexp._canvas.legacy.legacy object at 0x049C9B50>","<openexp._canvas.legacy.legacy object at 0x04A82A50>","75","IndividualPriorityWithDis_v1.osexp","C:/Userdata/Michel/SpatialProb/IndividualPriorityMaps/Experiment2","no","mono","no","18","no","white","no","yes","0.09","98","1050","legacy","45","26","26","1","C:/Userdata/Michel/SpatialProb/IndividualPriorityMaps/Experiment2/data/subject-12.csv","legacy","9","192","25","Jazzy James","3.1.3","yes","598477b2b83f69022949e7e9","47","green","circular","green","rectangular","0","\","1619","space","3134","3134","(80, 80, 80)","(0, 122, 0)","(179, 0, 0)","(155, 155, 155)","2","legacy","experiment","[3, 4, 5, 6, 7, 0, 1, 2]","\","2500","3000","0","8","252.758751519","1024","2","48000","-16","main","[(0, -252), (178, -178), (252, 0), (178, 178), (0, 252), (-178, 178), (-252, 0), (-178, -178)]","[]","12","even","4","99865","138672","138672","20367","19361","1802","25820","25820","1802","1802","23501","209852","1799","138672","208230","207251","207251","NA","973","study_X","0","3134","1","yes","1680"
"undefined","undefined","3134","3134","black","no","legacy","legacy","legacy","0","red","(179, 0, 0)","shape","present","highProb","rectangular","swap","swap","swap","swap","red","(179, 0, 0)","highProbColor","highProbColor","circular","uniform","1","undefined","0.140625","1","1","151.536458333","1","27","29095","0","0","0","0","0","0","0","0","52","0","1","0.140625","151.536458333","27","29095","52","52","52","08/21/17 15:45:23","Default description","yes","<openexp._canvas.legacy.legacy object at 0x049C27F0>","<openexp._canvas.legacy.legacy object at 0x049CE7B0>","<openexp._canvas.legacy.legacy object at 0x049BA510>","<openexp._canvas.legacy.legacy object at 0x04AB09D0>","<openexp._canvas.legacy.legacy object at 0x04A814B0>","<openexp._canvas.legacy.legacy object at 0x04AB0130>","<openexp._canvas.legacy.legacy object at 0x04A82A50>","75","IndividualPriorityWithDis_v1.osexp","C:/Userdata/Michel/SpatialProb/IndividualPriorityMaps/Experiment2","no","mono","no","18","no","white","no","yes","0.09","98","1050","legacy","45","27","27","1","C:/Userdata/Michel/SpatialProb/IndividualPriorityMaps/Experiment2/data/subject-12.csv","legacy","9","192","25","Jazzy James","3.1.3","yes","598477b2b83f69022949e7e9","47","red","rectangular","red","circular","0","\","997","space","3134","3134","(80, 80, 80)","(0, 122, 0)","(179, 0, 0)","(155, 155, 155)","2","legacy","experiment","[3, 4, 5, 6, 7, 0, 1, 2]","\","2500","3000","0","8","252.758751519","1024","2","48000","-16","main","[(0, -252), (178, -178), (252, 0), (178, 178), (0, 252), (-178, 178), (-252, 0), (-178, -178)]","[]","12","even","3","99865","138672","138672","20367","19361","1802","25820","25820","1802","1802","23501","212252","1799","138672","211252","210273","210273","NA","973","study_X","0","3134","1","yes","1680"
"undefined","undefined","3134","3134","black","no","legacy","legacy","legacy","0","red","(179, 0, 0)","color","present","highProb","rectangular","same","same","swap","swap","green","(0, 122, 0)","lowProb","lowProb2","rectangular","uniform","1","undefined","0.145833333333","1","1","155.8125","1","28","29916","0","0","0","0","0","0","0","0","53","0","1","0.145833333333","155.8125","28","29916","53","53","53","08/21/17 15:45:23","Default description","yes","<openexp._canvas.legacy.legacy object at 0x049C27F0>","<openexp._canvas.legacy.legacy object at 0x049CE7B0>","<openexp._canvas.legacy.legacy object at 0x049BA510>","<openexp._canvas.legacy.legacy object at 0x04AB09D0>","<openexp._canvas.legacy.legacy object at 0x04A814B0>","<openexp._canvas.legacy.legacy object at 0x049BE0F0>","<openexp._canvas.legacy.legacy object at 0x04A82A50>","75","IndividualPriorityWithDis_v1.osexp","C:/Userdata/Michel/SpatialProb/IndividualPriorityMaps/Experiment2","no","mono","no","18","no","white","no","yes","0.09","98","1050","legacy","315","28","28","1","C:/Userdata/Michel/SpatialProb/IndividualPriorityMaps/Experiment2/data/subject-12.csv","legacy","9","192","25","Jazzy James","3.1.3","yes","598477b2b83f69022949e7e9","47","red","rectangular","green","rectangular","0","/","821","space","3134","3134","(80, 80, 80)","(0, 122, 0)","(179, 0, 0)","(155, 155, 155)","2","legacy","experiment","[3, 4, 5, 6, 7, 0, 1, 2]","/","2500","3000","0","8","252.758751519","1024","2","48000","-16","main","[(0, -252), (178, -178), (252, 0), (178, 178), (0, 252), (-178, 178), (-252, 0), (-178, -178)]","[]","12","even","5","99865","138672","138672","20367","19361","1802","25820","25820","1802","1802","23501","214484","1799","138672","213660","212682","212682","NA","973","study_X","0","3134","1","yes","1680"
"undefined","undefined","3134","3134","black","no","legacy","legacy","legacy","0","green","(0, 122, 0)","shape","absent","lowProb1","circular","swap","swap","same","swap","green","(0, 122, 0)","lowProb","lowProb4","circular","uniform","1","undefined","0.151041666667","1","1","160.171875","1","29","30753","0","0","0","0","0","0","0","0","54","0","1","0.151041666667","160.171875","29","30753","54","54","54","08/21/17 15:45:23","Default description","yes","<openexp._canvas.legacy.legacy object at 0x049C27F0>","<openexp._canvas.legacy.legacy object at 0x049CE7B0>","<openexp._canvas.legacy.legacy object at 0x049BA510>","<openexp._canvas.legacy.legacy object at 0x04AB09D0>","<openexp._canvas.legacy.legacy object at 0x04A814B0>","<openexp._canvas.legacy.legacy object at 0x049BF2B0>","<openexp._canvas.legacy.legacy object at 0x04A82A50>","75","IndividualPriorityWithDis_v1.osexp","C:/Userdata/Michel/SpatialProb/IndividualPriorityMaps/Experiment2","no","mono","no","18","no","white","no","yes","0.09","98","1050","legacy","315","29","29","1","C:/Userdata/Michel/SpatialProb/IndividualPriorityMaps/Experiment2/data/subject-12.csv","legacy","9","192","25","Jazzy James","3.1.3","yes","598477b2b83f69022949e7e9","47","green","circular","green","circular","0","/","837","space","3134","3134","(80, 80, 80)","(0, 122, 0)","(179, 0, 0)","(155, 155, 155)","2","legacy","experiment","[3, 4, 5, 6, 7, 0, 1, 2]","/","2500","3000","0","8","252.758751519","1024","2","48000","-16","main","[(0, -252), (178, -178), (252, 0), (178, 178), (0, 252), (-178, 178), (-252, 0), (-178, -178)]","[]","12","even","0","99865","138672","138672","20367","19361","1802","25820","25820","1802","1802","23501","216732","1799","138672","215891","214912","214912","NA","973","study_X","0","3134","1","yes","1680"
"undefined","undefined","3134","3134","black","no","legacy","legacy","legacy","0","red","(179, 0, 0)","color","present","lowProb6","rectangular","swap","swap","same","swap","green","(0, 122, 0)","lowProb","lowProb5","rectangular","uniform","1","undefined","0.15625","1","1","166.901041667","1","30","32045","0","0","0","0","0","0","0","0","55","0","1","0.15625","166.901041667","30","32045","55","55","55","08/21/17 15:45:23","Default description","yes","<openexp._canvas.legacy.legacy object at 0x049C27F0>","<openexp._canvas.legacy.legacy object at 0x049CE7B0>","<openexp._canvas.legacy.legacy object at 0x049BA510>","<openexp._canvas.legacy.legacy object at 0x04AB09D0>","<openexp._canvas.legacy.legacy object at 0x04A814B0>","<openexp._canvas.legacy.legacy object at 0x049CEE70>","<openexp._canvas.legacy.legacy object at 0x04A82A50>","75","IndividualPriorityWithDis_v1.osexp","C:/Userdata/Michel/SpatialProb/IndividualPriorityMaps/Experiment2","no","mono","no","18","no","white","no","yes","0.09","98","1050","legacy","315","30","30","1","C:/Userdata/Michel/SpatialProb/IndividualPriorityMaps/Experiment2/data/subject-12.csv","legacy","9","192","25","Jazzy James","3.1.3","yes","598477b2b83f69022949e7e9","47","red","rectangular","green","rectangular","0","/","1292","space","3134","3134","(80, 80, 80)","(0, 122, 0)","(179, 0, 0)","(155, 155, 155)","2","legacy","experiment","[3, 4, 5, 6, 7, 0, 1, 2]","/","2500","3000","0","8","252.758751519","1024","2","48000","-16","main","[(0, -252), (178, -178), (252, 0), (178, 178), (0, 252), (-178, 178), (-252, 0), (-178, -178)]","[]","12","even","1","99865","138672","138672","20367","19361","1802","25820","25820","1802","1802","23501","219420","1799","138672","218124","217145","217145","NA","973","study_X","0","3134","1","yes","1680"
"undefined","undefined","3134","3134","black","no","legacy","legacy","legacy","0","red","(179, 0, 0)","shape","present","highProb","rectangular","same","same","swap","swap","red","(179, 0, 0)","lowProb","lowProb2","circular","uniform","1","undefined","0.161458333333","1","1","172.682291667","1","31","33155","0","0","0","0","0","0","0","0","56","0","1","0.161458333333","172.682291667","31","33155","56","56","56","08/21/17 15:45:23","Default description","yes","<openexp._canvas.legacy.legacy object at 0x049C27F0>","<openexp._canvas.legacy.legacy object at 0x049CE7B0>","<openexp._canvas.legacy.legacy object at 0x049BA510>","<openexp._canvas.legacy.legacy object at 0x04AB09D0>","<openexp._canvas.legacy.legacy object at 0x04A814B0>","<openexp._canvas.legacy.legacy object at 0x049BA9B0>","<openexp._canvas.legacy.legacy object at 0x04A82A50>","75","IndividualPriorityWithDis_v1.osexp","C:/Userdata/Michel/SpatialProb/IndividualPriorityMaps/Experiment2","no","mono","no","18","no","white","no","yes","0.09","98","1050","legacy","315","31","31","1","C:/Userdata/Michel/SpatialProb/IndividualPriorityMaps/Experiment2/data/subject-12.csv","legacy","9","192","25","Jazzy James","3.1.3","yes","598477b2b83f69022949e7e9","47","red","rectangular","red","circular","0","/","1110","space","3134","3134","(80, 80, 80)","(0, 122, 0)","(179, 0, 0)","(155, 155, 155)","2","legacy","experiment","[3, 4, 5, 6, 7, 0, 1, 2]","/","2500","3000","0","8","252.758751519","1024","2","48000","-16","main","[(0, -252), (178, -178), (252, 0), (178, 178), (0, 252), (-178, 178), (-252, 0), (-178, -178)]","[]","12","even","5","99865","138672","138672","20367","19361","1802","25820","25820","1802","1802","23501","221996","1799","138672","220883","219904","219904","NA","973","study_X","0","3134","1","yes","1680"
"undefined","undefined","3134","3134","black","no","legacy","legacy","legacy","0","red","(179, 0, 0)","color","present","highProb","circular","same","swap","swap","same","green","(0, 122, 0)","highProbShape","highProbShape","circular","uniform","1","undefined","0.166666666667","1","1","176.354166667","1","32","33860","0","0","0","0","0","0","0","0","57","0","1","0.166666666667","176.354166667","32","33860","57","57","57","08/21/17 15:45:23","Default description","yes","<openexp._canvas.legacy.legacy object at 0x049C27F0>","<openexp._canvas.legacy.legacy object at 0x049CE7B0>","<openexp._canvas.legacy.legacy object at 0x049BA510>","<openexp._canvas.legacy.legacy object at 0x04AB09D0>","<openexp._canvas.legacy.legacy object at 0x04A814B0>","<openexp._canvas.legacy.legacy object at 0x049BAA30>","<openexp._canvas.legacy.legacy object at 0x04A82A50>","75","IndividualPriorityWithDis_v1.osexp","C:/Userdata/Michel/SpatialProb/IndividualPriorityMaps/Experiment2","no","mono","no","18","no","white","no","yes","0.09","98","1050","legacy","45","32","32","1","C:/Userdata/Michel/SpatialProb/IndividualPriorityMaps/Experiment2/data/subject-12.csv","legacy","9","192","25","Jazzy James","3.1.3","yes","598477b2b83f69022949e7e9","47","red","circular","green","circular","0","\","705","space","3134","3134","(80, 80, 80)","(0, 122, 0)","(179, 0, 0)","(155, 155, 155)","2","legacy","experiment","[3, 4, 5, 6, 7, 0, 1, 2]","\","2500","3000","0","8","252.758751519","1024","2","48000","-16","main","[(0, -252), (178, -178), (252, 0), (178, 178), (0, 252), (-178, 178), (-252, 0), (-178, -178)]","[]","12","even","7","99865","138672","138672","20367","19361","1802","25820","25820","1802","1802","23501","224124","1799","138672","223416","222437","222437","NA","973","study_X","0","3134","1","yes","1680"
"undefined","undefined","3134","3134","black","no","legacy","legacy","legacy","0","green","(0, 122, 0)","shape","present","lowProb4","rectangular","swap","swap","same","same","green","(0, 122, 0)","lowProb","lowProb1","circular","uniform","1","undefined","0.171875","1","1","181.208333333","1","33","34792","0","0","0","0","0","0","0","0","58","0","1","0.171875","181.208333333","33","34792","58","58","58","08/21/17 15:45:23","Default description","yes","<openexp._canvas.legacy.legacy object at 0x049C27F0>","<openexp._canvas.legacy.legacy object at 0x049CE7B0>","<openexp._canvas.legacy.legacy object at 0x049BA510>","<openexp._canvas.legacy.legacy object at 0x04AB09D0>","<openexp._canvas.legacy.legacy object at 0x04A814B0>","<openexp._canvas.legacy.legacy object at 0x049D2E30>","<openexp._canvas.legacy.legacy object at 0x04A82A50>","75","IndividualPriorityWithDis_v1.osexp","C:/Userdata/Michel/SpatialProb/IndividualPriorityMaps/Experiment2","no","mono","no","18","no","white","no","yes","0.09","98","1050","legacy","45","33","33","1","C:/Userdata/Michel/SpatialProb/IndividualPriorityMaps/Experiment2/data/subject-12.csv","legacy","9","192","25","Jazzy James","3.1.3","yes","598477b2b83f69022949e7e9","47","green","rectangular","green","circular","0","\","932","space","3134","3134","(80, 80, 80)","(0, 122, 0)","(179, 0, 0)","(155, 155, 155)","2","legacy","experiment","[3, 4, 5, 6, 7, 0, 1, 2]","\","2500","3000","0","8","252.758751519","1024","2","48000","-16","main","[(0, -252), (178, -178), (252, 0), (178, 178), (0, 252), (-178, 178), (-252, 0), (-178, -178)]","[]","12","even","4","99865","138672","138672","20367","19361","1802","25820","25820","1802","1802","23501","226484","1799","138672","225549","224571","224571","NA","973","study_X","0","3134","1","yes","1680"
"undefined","undefined","3134","3134","black","no","legacy","legacy","legacy","0","red","(179, 0, 0)","shape","absent","lowProb3","circular","swap","swap","swap","same","red","(179, 0, 0)","lowProb","lowProb3","circular","uniform","1","undefined","0.177083333333","1","1","189.541666667","1","34","36392","0","0","0","0","0","0","0","0","59","0","1","0.177083333333","189.541666667","34","36392","59","59","59","08/21/17 15:45:23","Default description","yes","<openexp._canvas.legacy.legacy object at 0x049C27F0>","<openexp._canvas.legacy.legacy object at 0x049CE7B0>","<openexp._canvas.legacy.legacy object at 0x049BA510>","<openexp._canvas.legacy.legacy object at 0x04AB09D0>","<openexp._canvas.legacy.legacy object at 0x04A814B0>","<openexp._canvas.legacy.legacy object at 0x049BEC10>","<openexp._canvas.legacy.legacy object at 0x04A82A50>","75","IndividualPriorityWithDis_v1.osexp","C:/Userdata/Michel/SpatialProb/IndividualPriorityMaps/Experiment2","no","mono","no","18","no","white","no","yes","0.09","98","1050","legacy","315","34","34","1","C:/Userdata/Michel/SpatialProb/IndividualPriorityMaps/Experiment2/data/subject-12.csv","legacy","9","192","25","Jazzy James","3.1.3","yes","598477b2b83f69022949e7e9","47","red","circular","red","circular","0","/","1600","space","3134","3134","(80, 80, 80)","(0, 122, 0)","(179, 0, 0)","(155, 155, 155)","2","legacy","experiment","[3, 4, 5, 6, 7, 0, 1, 2]","/","2500","3000","0","8","252.758751519","1024","2","48000","-16","main","[(0, -252), (178, -178), (252, 0), (178, 178), (0, 252), (-178, 178), (-252, 0), (-178, -178)]","[]","12","even","6","99865","138672","138672","20367","19361","1802","25820","25820","1802","1802","23501","229492","1799","138672","227889","226910","226910","NA","973","study_X","0","3134","1","yes","1680"
"undefined","undefined","3134","3134","black","no","legacy","legacy","legacy","0","green","(0, 122, 0)","shape","absent","lowProb5","rectangular","swap","swap","swap","swap","green","(0, 122, 0)","lowProb","lowProb1","rectangular","uniform","1","undefined","0.182291666667","1","1","194.78125","1","35","37398","0","0","0","0","0","0","0","0","60","0","1","0.182291666667","194.78125","35","37398","60","60","60","08/21/17 15:45:23","Default description","yes","<openexp._canvas.legacy.legacy object at 0x049C27F0>","<openexp._canvas.legacy.legacy object at 0x049CE7B0>","<openexp._canvas.legacy.legacy object at 0x049BA510>","<openexp._canvas.legacy.legacy object at 0x04AB09D0>","<openexp._canvas.legacy.legacy object at 0x04A814B0>","<openexp._canvas.legacy.legacy object at 0x049C4E70>","<openexp._canvas.legacy.legacy object at 0x04A82A50>","75","IndividualPriorityWithDis_v1.osexp","C:/Userdata/Michel/SpatialProb/IndividualPriorityMaps/Experiment2","no","mono","no","18","no","white","no","yes","0.09","98","1050","legacy","45","35","35","1","C:/Userdata/Michel/SpatialProb/IndividualPriorityMaps/Experiment2/data/subject-12.csv","legacy","9","192","25","Jazzy James","3.1.3","yes","598477b2b83f69022949e7e9","47","green","rectangular","green","rectangular","0","\","1006","space","3134","3134","(80, 80, 80)","(0, 122, 0)","(179, 0, 0)","(155, 155, 155)","2","legacy","experiment","[3, 4, 5, 6, 7, 0, 1, 2]","\","2500","3000","0","8","252.758751519","1024","2","48000","-16","main","[(0, -252), (178, -178), (252, 0), (178, 178), (0, 252), (-178, 178), (-252, 0), (-178, -178)]","[]","12","even","4","99865","138672","138672","20367","19361","1802","25820","25820","1802","1802","23501","231900","1799","138672","230890","229911","229911","NA","973","study_X","0","3134","1","yes","1680"
"undefined","undefined","3134","3134","black","no","legacy","legacy","legacy","0","red","(179, 0, 0)","color","present","highProb","rectangular","swap","same","same","same","green","(0, 122, 0)","lowProb","lowProb2","rectangular","uniform","1","undefined","0.1875","1","1","199.416666667","1","36","38288","0","0","0","0","0","0","0","0","61","0","1","0.1875","199.416666667","36","38288","61","61","61","08/21/17 15:45:23","Default description","yes","<openexp._canvas.legacy.legacy object at 0x049C27F0>","<openexp._canvas.legacy.legacy object at 0x049CE7B0>","<openexp._canvas.legacy.legacy object at 0x049BA510>","<openexp._canvas.legacy.legacy object at 0x04AB09D0>","<openexp._canvas.legacy.legacy object at 0x04A814B0>","<openexp._canvas.legacy.legacy object at 0x049BED50>","<openexp._canvas.legacy.legacy object at 0x04A82A50>","75","IndividualPriorityWithDis_v1.osexp","C:/Userdata/Michel/SpatialProb/IndividualPriorityMaps/Experiment2","no","mono","no","18","no","white","no","yes","0.09","98","1050","legacy","45","36","36","1","C:/Userdata/Michel/SpatialProb/IndividualPriorityMaps/Experiment2/data/subject-12.csv","legacy","9","192","25","Jazzy James","3.1.3","yes","598477b2b83f69022949e7e9","47","red","rectangular","green","rectangular","0","\","890","space","3134","3134","(80, 80, 80)","(0, 122, 0)","(179, 0, 0)","(155, 155, 155)","2","legacy","experiment","[3, 4, 5, 6, 7, 0, 1, 2]","\","2500","3000","0","8","252.758751519","1024","2","48000","-16","main","[(0, -252), (178, -178), (252, 0), (178, 178), (0, 252), (-178, 178), (-252, 0), (-178, -178)]","[]","12","even","5","99865","138672","138672","20367","19361","1802","25820","25820","1802","1802","23501","234204","1799","138672","233310","232332","232332","NA","973","study_X","0","3134","1","yes","1680"
"undefined","undefined","3134","3134","black","no","legacy","legacy","legacy","0","red","(179, 0, 0)","shape","present","highProb","rectangular","same","same","swap","swap","red","(179, 0, 0)","highProbColor","highProbColor","circular","uniform","1","undefined","0.192708333333","1","1","204.09375","1","37","39186","0","0","0","0","0","0","0","0","62","0","1","0.192708333333","204.09375","37","39186","62","62","62","08/21/17 15:45:23","Default description","yes","<openexp._canvas.legacy.legacy object at 0x049C27F0>","<openexp._canvas.legacy.legacy object at 0x049CE7B0>","<openexp._canvas.legacy.legacy object at 0x049BA510>","<openexp._canvas.legacy.legacy object at 0x04AB09D0>","<openexp._canvas.legacy.legacy object at 0x04A814B0>","<openexp._canvas.legacy.legacy object at 0x049C4790>","<openexp._canvas.legacy.legacy object at 0x04A82A50>","75","IndividualPriorityWithDis_v1.osexp","C:/Userdata/Michel/SpatialProb/IndividualPriorityMaps/Experiment2","no","mono","no","18","no","white","no","yes","0.09","98","1050","legacy","315","37","37","1","C:/Userdata/Michel/SpatialProb/IndividualPriorityMaps/Experiment2/data/subject-12.csv","legacy","9","192","25","Jazzy James","3.1.3","yes","598477b2b83f69022949e7e9","47","red","rectangular","red","circular","0","/","898","space","3134","3134","(80, 80, 80)","(0, 122, 0)","(179, 0, 0)","(155, 155, 155)","2","legacy","experiment","[3, 4, 5, 6, 7, 0, 1, 2]","/","2500","3000","0","8","252.758751519","1024","2","48000","-16","main","[(0, -252), (178, -178), (252, 0), (178, 178), (0, 252), (-178, 178), (-252, 0), (-178, -178)]","[]","12","even","3","99865","138672","138672","20367","19361","1802","25820","25820","1802","1802","23501","236507","1799","138672","235606","234627","234628","NA","973","study_X","0","3134","1","yes","1680"
"undefined","undefined","3134","3134","black","no","legacy","legacy","legacy","0","red","(179, 0, 0)","color","present","lowProb3","rectangular","same","same","swap","swap","green","(0, 122, 0)","lowProb","lowProb2","rectangular","uniform","1","undefined","0.197916666667","1","1","212.359375","1","38","40773","0","0","0","0","0","0","0","0","63","0","1","0.197916666667","212.359375","38","40773","63","63","63","08/21/17 15:45:23","Default description","yes","<openexp._canvas.legacy.legacy object at 0x049C27F0>","<openexp._canvas.legacy.legacy object at 0x049CE7B0>","<openexp._canvas.legacy.legacy object at 0x049BA510>","<openexp._canvas.legacy.legacy object at 0x04AB09D0>","<openexp._canvas.legacy.legacy object at 0x04A814B0>","<openexp._canvas.legacy.legacy object at 0x049BEB30>","<openexp._canvas.legacy.legacy object at 0x04A82A50>","75","IndividualPriorityWithDis_v1.osexp","C:/Userdata/Michel/SpatialProb/IndividualPriorityMaps/Experiment2","no","mono","no","18","no","white","no","yes","0.09","98","1050","legacy","315","38","38","1","C:/Userdata/Michel/SpatialProb/IndividualPriorityMaps/Experiment2/data/subject-12.csv","legacy","9","192","25","Jazzy James","3.1.3","yes","598477b2b83f69022949e7e9","47","red","rectangular","green","rectangular","0","/","1587","space","3134","3134","(80, 80, 80)","(0, 122, 0)","(179, 0, 0)","(155, 155, 155)","2","legacy","experiment","[3, 4, 5, 6, 7, 0, 1, 2]","/","2500","3000","0","8","252.758751519","1024","2","48000","-16","main","[(0, -252), (178, -178), (252, 0), (178, 178), (0, 252), (-178, 178), (-252, 0), (-178, -178)]","[]","12","even","5","99865","138672","138672","20367","19361","1802","25820","25820","1802","1802","23501","239484","1799","138672","237894","236915","236916","NA","973","study_X","0","3134","1","yes","1680"
"undefined","undefined","3134","3134","black","no","legacy","legacy","legacy","0","green","(0, 122, 0)","shape","present","lowProb5","rectangular","swap","same","same","swap","green","(0, 122, 0)","lowProb","lowProb3","circular","uniform","1","undefined","0.203125","1","1","217.572916667","1","39","41774","0","0","0","0","0","0","0","0","64","0","1","0.203125","217.572916667","39","41774","64","64","64","08/21/17 15:45:23","Default description","yes","<openexp._canvas.legacy.legacy object at 0x049C27F0>","<openexp._canvas.legacy.legacy object at 0x049CE7B0>","<openexp._canvas.legacy.legacy object at 0x049BA510>","<openexp._canvas.legacy.legacy object at 0x04AB09D0>","<openexp._canvas.legacy.legacy object at 0x04A814B0>","<openexp._canvas.legacy.legacy object at 0x049C4B90>","<openexp._canvas.legacy.legacy object at 0x04A82A50>","75","IndividualPriorityWithDis_v1.osexp","C:/Userdata/Michel/SpatialProb/IndividualPriorityMaps/Experiment2","no","mono","no","18","no","white","no","yes","0.09","98","1050","legacy","315","39","39","1","C:/Userdata/Michel/SpatialProb/IndividualPriorityMaps/Experiment2/data/subject-12.csv","legacy","9","192","25","Jazzy James","3.1.3","yes","598477b2b83f69022949e7e9","47","green","rectangular","green","circular","0","/","1001","space","3134","3134","(80, 80, 80)","(0, 122, 0)","(179, 0, 0)","(155, 155, 155)","2","legacy","experiment","[3, 4, 5, 6, 7, 0, 1, 2]","/","2500","3000","0","8","252.758751519","1024","2","48000","-16","main","[(0, -252), (178, -178), (252, 0), (178, 178), (0, 252), (-178, 178), (-252, 0), (-178, -178)]","[]","12","even","6","99865","138672","138672","20367","19361","1802","25820","25820","1802","1802","23501","241892","1799","138672","240888","239909","239909","NA","973","study_X","0","3134","1","yes","1680"
"undefined","undefined","3134","3134","black","no","legacy","legacy","legacy","0","red","(179, 0, 0)","color","present","lowProb2","circular","swap","swap","same","same","green","(0, 122, 0)","lowProb","lowProb6","circular","uniform","1","undefined","0.208333333333","1","1","225.286458333","1","40","43255","0","0","0","0","0","0","0","0","65","0","1","0.208333333333","225.286458333","40","43255","65","65","65","08/21/17 15:45:23","Default description","yes","<openexp._canvas.legacy.legacy object at 0x049C27F0>","<openexp._canvas.legacy.legacy object at 0x049CE7B0>","<openexp._canvas.legacy.legacy object at 0x049BA510>","<openexp._canvas.legacy.legacy object at 0x04AB09D0>","<openexp._canvas.legacy.legacy object at 0x04A814B0>","<openexp._canvas.legacy.legacy object at 0x04AB0690>","<openexp._canvas.legacy.legacy object at 0x04A82A50>","75","IndividualPriorityWithDis_v1.osexp","C:/Userdata/Michel/SpatialProb/IndividualPriorityMaps/Experiment2","no","mono","no","18","no","white","no","yes","0.09","98","1050","legacy","45","40","40","1","C:/Userdata/Michel/SpatialProb/IndividualPriorityMaps/Experiment2/data/subject-12.csv","legacy","9","192","25","Jazzy James","3.1.3","yes","598477b2b83f69022949e7e9","47","red","circular","green","circular","0","\","1481","space","3134","3134","(80, 80, 80)","(0, 122, 0)","(179, 0, 0)","(155, 155, 155)","2","legacy","experiment","[3, 4, 5, 6, 7, 0, 1, 2]","\","2500","3000","0","8","252.758751519","1024","2","48000","-16","main","[(0, -252), (178, -178), (252, 0), (178, 178), (0, 252), (-178, 178), (-252, 0), (-178, -178)]","[]","12","even","2","99865","138672","138672","20367","19361","1802","25820","25820","1802","1802","23501","244796","1799","138672","243312","242333","242333","NA","973","study_X","0","3134","1","yes","1680"
"undefined","undefined","3134","3134","black","no","legacy","legacy","legacy","0","red","(179, 0, 0)","shape","present","highProb","rectangular","same","swap","swap","same","red","(179, 0, 0)","highProbColor","highProbColor","circular","uniform","1","undefined","0.213541666667","1","1","231.427083333","1","41","44434","0","0","0","0","0","0","0","0","66","0","1","0.213541666667","231.427083333","41","44434","66","66","66","08/21/17 15:45:23","Default description","yes","<openexp._canvas.legacy.legacy object at 0x049C27F0>","<openexp._canvas.legacy.legacy object at 0x049CE7B0>","<openexp._canvas.legacy.legacy object at 0x049BA510>","<openexp._canvas.legacy.legacy object at 0x04AB09D0>","<openexp._canvas.legacy.legacy object at 0x04A814B0>","<openexp._canvas.legacy.legacy object at 0x049C4AD0>","<openexp._canvas.legacy.legacy object at 0x04A82A50>","75","IndividualPriorityWithDis_v1.osexp","C:/Userdata/Michel/SpatialProb/IndividualPriorityMaps/Experiment2","no","mono","no","18","no","white","no","yes","0.09","98","1050","legacy","315","41","41","1","C:/Userdata/Michel/SpatialProb/IndividualPriorityMaps/Experiment2/data/subject-12.csv","legacy","9","192","25","Jazzy James","3.1.3","yes","598477b2b83f69022949e7e9","47","red","rectangular","red","circular","0","/","1179","space","3134","3134","(80, 80, 80)","(0, 122, 0)","(179, 0, 0)","(155, 155, 155)","2","legacy","experiment","[3, 4, 5, 6, 7, 0, 1, 2]","/","2500","3000","0","8","252.758751519","1024","2","48000","-16","main","[(0, -252), (178, -178), (252, 0), (178, 178), (0, 252), (-178, 178), (-252, 0), (-178, -178)]","[]","12","even","3","99865","138672","138672","20367","19361","1802","25820","25820","1802","1802","23501","247380","1799","138672","246197","245219","245219","NA","973","study_X","0","3134","1","yes","1680"
"undefined","undefined","3134","3134","black","no","legacy","legacy","legacy","0","red","(179, 0, 0)","shape","present","highProb","circular","same","swap","same","swap","red","(179, 0, 0)","highProbColor","highProbColor","rectangular","uniform","1","undefined","0.21875","1","1","241.734375","1","42","46413","0","0","0","0","0","0","0","0","67","0","1","0.21875","241.734375","42","46413","67","67","67","08/21/17 15:45:23","Default description","yes","<openexp._canvas.legacy.legacy object at 0x049C27F0>","<openexp._canvas.legacy.legacy object at 0x049CE7B0>","<openexp._canvas.legacy.legacy object at 0x049BA510>","<openexp._canvas.legacy.legacy object at 0x04AB09D0>","<openexp._canvas.legacy.legacy object at 0x04A814B0>","<openexp._canvas.legacy.legacy object at 0x049D9350>","<openexp._canvas.legacy.legacy object at 0x04A82A50>","75","IndividualPriorityWithDis_v1.osexp","C:/Userdata/Michel/SpatialProb/IndividualPriorityMaps/Experiment2","no","mono","no","18","no","white","no","yes","0.09","98","1050","legacy","45","42","42","1","C:/Userdata/Michel/SpatialProb/IndividualPriorityMaps/Experiment2/data/subject-12.csv","legacy","9","192","25","Jazzy James","3.1.3","yes","598477b2b83f69022949e7e9","47","red","circular","red","rectangular","0","\","1979","space","3134","3134","(80, 80, 80)","(0, 122, 0)","(179, 0, 0)","(155, 155, 155)","2","legacy","experiment","[3, 4, 5, 6, 7, 0, 1, 2]","\","2500","3000","0","8","252.758751519","1024","2","48000","-16","main","[(0, -252), (178, -178), (252, 0), (178, 178), (0, 252), (-178, 178), (-252, 0), (-178, -178)]","[]","12","even","3","99865","138672","138672","20367","19361","1802","25820","25820","1802","1802","23501","250756","1799","138672","248773","247795","247795","NA","973","study_X","0","3134","1","yes","1680"
"undefined","undefined","3134","3134","black","no","legacy","legacy","legacy","0","green","(0, 122, 0)","color","present","highProb","circular","swap","same","same","swap","red","(179, 0, 0)","highProbShape","highProbShape","circular","uniform","0","undefined","0.21875","1","1","254.755208333","1","42","48913","0","0","0","0","0","0","0","0","68","0","1","0.21875","254.755208333","42","48913","68","68","68","08/21/17 15:45:23","Default description","yes","<openexp._canvas.legacy.legacy object at 0x049C27F0>","<openexp._canvas.legacy.legacy object at 0x049CE7B0>","<openexp._canvas.legacy.legacy object at 0x049BA510>","<openexp._canvas.legacy.legacy object at 0x04AB09D0>","<openexp._canvas.legacy.legacy object at 0x04A814B0>","<openexp._canvas.legacy.legacy object at 0x049C4E70>","<openexp._canvas.legacy.legacy object at 0x04A82A50>","75","IndividualPriorityWithDis_v1.osexp","C:/Userdata/Michel/SpatialProb/IndividualPriorityMaps/Experiment2","no","mono","no","18","no","white","no","yes","0.09","98","1050","legacy","315","43","43","1","C:/Userdata/Michel/SpatialProb/IndividualPriorityMaps/Experiment2/data/subject-12.csv","legacy","9","192","25","Jazzy James","3.1.3","yes","598477b2b83f69022949e7e9","47","green","circular","red","circular","0","None","2500","space","3134","3134","(80, 80, 80)","(0, 122, 0)","(179, 0, 0)","(155, 155, 155)","2","legacy","experiment","[3, 4, 5, 6, 7, 0, 1, 2]","/","2500","3000","0","8","252.758751519","1024","2","48000","-16","main","[(0, -252), (178, -178), (252, 0), (178, 178), (0, 252), (-178, 178), (-252, 0), (-178, -178)]","[]","12","even","7","99865","138672","138672","20367","19361","1802","25820","25820","1802","1802","23501","254662","1799","138672","252159","251180","251180","NA","973","study_X","0","3134","1","yes","1680"
"undefined","undefined","3134","3134","black","no","legacy","legacy","legacy","0","red","(179, 0, 0)","color","present","highProbOther","circular","swap","same","swap","same","green","(0, 122, 0)","highProbColor","highProbColor","circular","uniform","1","undefined","0.223958333333","1","1","267.380208333","1","43","51337","0","0","0","0","0","0","0","0","69","0","1","0.223958333333","267.380208333","43","51337","69","69","69","08/21/17 15:45:23","Default description","yes","<openexp._canvas.legacy.legacy object at 0x049C27F0>","<openexp._canvas.legacy.legacy object at 0x049CE7B0>","<openexp._canvas.legacy.legacy object at 0x049BA510>","<openexp._canvas.legacy.legacy object at 0x04AB09D0>","<openexp._canvas.legacy.legacy object at 0x04A814B0>","<openexp._canvas.legacy.legacy object at 0x049D9C90>","<openexp._canvas.legacy.legacy object at 0x04A82A50>","75","IndividualPriorityWithDis_v1.osexp","C:/Userdata/Michel/SpatialProb/IndividualPriorityMaps/Experiment2","no","mono","no","18","no","white","no","yes","0.09","98","1050","legacy","45","44","44","1","C:/Userdata/Michel/SpatialProb/IndividualPriorityMaps/Experiment2/data/subject-12.csv","legacy","9","192","25","Jazzy James","3.1.3","yes","598477b2b83f69022949e7e9","47","red","circular","green","circular","0","\","2424","space","3134","3134","(80, 80, 80)","(0, 122, 0)","(179, 0, 0)","(155, 155, 155)","2","legacy","experiment","[3, 4, 5, 6, 7, 0, 1, 2]","\","2500","3000","0","8","252.758751519","1024","2","48000","-16","main","[(0, -252), (178, -178), (252, 0), (178, 178), (0, 252), (-178, 178), (-252, 0), (-178, -178)]","[]","12","even","3","99865","138672","138672","20367","19361","1802","25820","25820","1802","1802","23501","258476","1799","138672","256050","255071","255071","NA","973","study_X","0","3134","1","yes","1680"
"undefined","undefined","3134","3134","black","no","legacy","legacy","legacy","0","green","(0, 122, 0)","shape","present","lowProb6","circular","swap","same","same","swap","green","(0, 122, 0)","lowProb","lowProb5","rectangular","uniform","0","undefined","0.223958333333","1","1","278.453125","1","43","53463","0","0","0","0","0","0","0","0","70","0","1","0.223958333333","278.453125","43","53463","70","70","70","08/21/17 15:45:23","Default description","yes","<openexp._canvas.legacy.legacy object at 0x049C27F0>","<openexp._canvas.legacy.legacy object at 0x049CE7B0>","<openexp._canvas.legacy.legacy object at 0x049BA510>","<openexp._canvas.legacy.legacy object at 0x04AB09D0>","<openexp._canvas.legacy.legacy object at 0x04A814B0>","<openexp._canvas.legacy.legacy object at 0x049BE870>","<openexp._canvas.legacy.legacy object at 0x04A82A50>","75","IndividualPriorityWithDis_v1.osexp","C:/Userdata/Michel/SpatialProb/IndividualPriorityMaps/Experiment2","no","mono","no","18","no","white","no","yes","0.09","98","1050","legacy","45","45","45","1","C:/Userdata/Michel/SpatialProb/IndividualPriorityMaps/Experiment2/data/subject-12.csv","legacy","9","192","25","Jazzy James","3.1.3","yes","598477b2b83f69022949e7e9","47","green","circular","green","rectangular","0","/","2126","space","3134","3134","(80, 80, 80)","(0, 122, 0)","(179, 0, 0)","(155, 155, 155)","2","legacy","experiment","[3, 4, 5, 6, 7, 0, 1, 2]","\","2500","3000","0","8","252.758751519","1024","2","48000","-16","main","[(0, -252), (178, -178), (252, 0), (178, 178), (0, 252), (-178, 178), (-252, 0), (-178, -178)]","[]","12","even","1","99865","138672","138672","20367","19361","1802","25820","25820","1802","1802","23501","262020","1799","138672","259891","258912","258912","NA","973","study_X","0","3134","1","yes","1680"
"undefined","undefined","3134","3134","black","no","legacy","legacy","legacy","0","green","(0, 122, 0)","shape","present","highProb","rectangular","same","swap","same","swap","green","(0, 122, 0)","lowProb","lowProb1","circular","uniform","1","undefined","0.229166666667","1","1","285.208333333","1","44","54760","0","0","0","0","0","0","0","0","71","0","1","0.229166666667","285.208333333","44","54760","71","71","71","08/21/17 15:45:23","Default description","yes","<openexp._canvas.legacy.legacy object at 0x049C27F0>","<openexp._canvas.legacy.legacy object at 0x049CE7B0>","<openexp._canvas.legacy.legacy object at 0x049BA510>","<openexp._canvas.legacy.legacy object at 0x04AB09D0>","<openexp._canvas.legacy.legacy object at 0x04A814B0>","<openexp._canvas.legacy.legacy object at 0x049D2A50>","<openexp._canvas.legacy.legacy object at 0x04A82A50>","75","IndividualPriorityWithDis_v1.osexp","C:/Userdata/Michel/SpatialProb/IndividualPriorityMaps/Experiment2","no","mono","no","18","no","white","no","yes","0.09","98","1050","legacy","315","46","46","1","C:/Userdata/Michel/SpatialProb/IndividualPriorityMaps/Experiment2/data/subject-12.csv","legacy","9","192","25","Jazzy James","3.1.3","yes","598477b2b83f69022949e7e9","47","green","rectangular","green","circular","0","/","1297","space","3134","3134","(80, 80, 80)","(0, 122, 0)","(179, 0, 0)","(155, 155, 155)","2","legacy","experiment","[3, 4, 5, 6, 7, 0, 1, 2]","/","2500","3000","0","8","252.758751519","1024","2","48000","-16","main","[(0, -252), (178, -178), (252, 0), (178, 178), (0, 252), (-178, 178), (-252, 0), (-178, -178)]","[]","12","even","4","99865","138672","138672","20367","19361","1802","25820","25820","1802","1802","23501","264708","1799","138672","263407","262428","262428","NA","973","study_X","0","3134","1","yes","1680"
"undefined","undefined","3134","3134","black","no","legacy","legacy","legacy","0","red","(179, 0, 0)","color","present","lowProb5","circular","swap","swap","same","same","green","(0, 122, 0)","highProbShape","highProbShape","circular","uniform","1","undefined","0.234375","1","1","292.34375","1","45","56130","0","0","0","0","0","0","0","0","72","0","1","0.234375","292.34375","45","56130","72","72","72","08/21/17 15:45:23","Default description","yes","<openexp._canvas.legacy.legacy object at 0x049C27F0>","<openexp._canvas.legacy.legacy object at 0x049CE7B0>","<openexp._canvas.legacy.legacy object at 0x049BA510>","<openexp._canvas.legacy.legacy object at 0x04AB09D0>","<openexp._canvas.legacy.legacy object at 0x04A814B0>","<openexp._canvas.legacy.legacy object at 0x049BAED0>","<openexp._canvas.legacy.legacy object at 0x04A82A50>","75","IndividualPriorityWithDis_v1.osexp","C:/Userdata/Michel/SpatialProb/IndividualPriorityMaps/Experiment2","no","mono","no","18","no","white","no","yes","0.09","98","1050","legacy","315","47","47","1","C:/Userdata/Michel/SpatialProb/IndividualPriorityMaps/Experiment2/data/subject-12.csv","legacy","9","192","25","Jazzy James","3.1.3","yes","598477b2b83f69022949e7e9","47","red","circular","green","circular","0","/","1370","space","3134","3134","(80, 80, 80)","(0, 122, 0)","(179, 0, 0)","(155, 155, 155)","2","legacy","experiment","[3, 4, 5, 6, 7, 0, 1, 2]","/","2500","3000","0","8","252.758751519","1024","2","48000","-16","main","[(0, -252), (178, -178), (252, 0), (178, 178), (0, 252), (-178, 178), (-252, 0), (-178, -178)]","[]","12","even","7","99865","138672","138672","20367","19361","1802","25820","25820","1802","1802","23501","267484","1799","138672","266110","265131","265132","NA","973","study_X","0","3134","1","yes","1680"
"undefined","undefined","3134","3134","black","no","legacy","legacy","legacy","0","red","(179, 0, 0)","color","present","highProb","rectangular","same","swap","same","swap","green","(0, 122, 0)","highProbShape","highProbShape","rectangular","uniform","1","undefined","0.239583333333","1","1","296.447916667","1","46","56918","0","0","0","0","0","0","0","0","73","0","1","0.239583333333","296.447916667","46","56918","73","73","73","08/21/17 15:45:23","Default description","yes","<openexp._canvas.legacy.legacy object at 0x049C27F0>","<openexp._canvas.legacy.legacy object at 0x049CE7B0>","<openexp._canvas.legacy.legacy object at 0x049BA510>","<openexp._canvas.legacy.legacy object at 0x04AB09D0>","<openexp._canvas.legacy.legacy object at 0x04A814B0>","<openexp._canvas.legacy.legacy object at 0x049D43F0>","<openexp._canvas.legacy.legacy object at 0x04A82A50>","75","IndividualPriorityWithDis_v1.osexp","C:/Userdata/Michel/SpatialProb/IndividualPriorityMaps/Experiment2","no","mono","no","18","no","white","no","yes","0.09","98","1050","legacy","315","48","48","1","C:/Userdata/Michel/SpatialProb/IndividualPriorityMaps/Experiment2/data/subject-12.csv","legacy","9","192","25","Jazzy James","3.1.3","yes","598477b2b83f69022949e7e9","47","red","rectangular","green","rectangular","0","/","788","space","3134","3134","(80, 80, 80)","(0, 122, 0)","(179, 0, 0)","(155, 155, 155)","2","legacy","experiment","[3, 4, 5, 6, 7, 0, 1, 2]","/","2500","3000","0","8","252.758751519","1024","2","48000","-16","main","[(0, -252), (178, -178), (252, 0), (178, 178), (0, 252), (-178, 178), (-252, 0), (-178, -178)]","[]","12","even","7","99865","138672","138672","20367","19361","1802","25820","25820","1802","1802","23501","269683","1799","138672","268892","267913","267913","NA","973","study_X","0","3134","1","yes","1680"
"undefined","undefined","3134","3134","black","no","legacy","legacy","legacy","0","green","(0, 122, 0)","color","present","highProb","circular","swap","swap","swap","swap","red","(179, 0, 0)","lowProb","lowProb4","circular","uniform","1","undefined","0.244791666667","1","1","305.291666667","1","47","58616","0","0","0","0","0","0","0","0","74","0","1","0.244791666667","305.291666667","47","58616","74","74","74","08/21/17 15:45:23","Default description","yes","<openexp._canvas.legacy.legacy object at 0x049C27F0>","<openexp._canvas.legacy.legacy object at 0x049CE7B0>","<openexp._canvas.legacy.legacy object at 0x049BA510>","<openexp._canvas.legacy.legacy object at 0x04AB09D0>","<openexp._canvas.legacy.legacy object at 0x04A814B0>","<openexp._canvas.legacy.legacy object at 0x049D9D10>","<openexp._canvas.legacy.legacy object at 0x04A82A50>","75","IndividualPriorityWithDis_v1.osexp","C:/Userdata/Michel/SpatialProb/IndividualPriorityMaps/Experiment2","no","mono","no","18","no","white","no","yes","0.09","98","1050","legacy","45","49","49","1","C:/Userdata/Michel/SpatialProb/IndividualPriorityMaps/Experiment2/data/subject-12.csv","legacy","9","192","25","Jazzy James","3.1.3","yes","598477b2b83f69022949e7e9","47","green","circular","red","circular","0","\","1698","space","3134","3134","(80, 80, 80)","(0, 122, 0)","(179, 0, 0)","(155, 155, 155)","2","legacy","experiment","[3, 4, 5, 6, 7, 0, 1, 2]","\","2500","3000","0","8","252.758751519","1024","2","48000","-16","main","[(0, -252), (178, -178), (252, 0), (178, 178), (0, 252), (-178, 178), (-252, 0), (-178, -178)]","[]","12","even","0","99865","138672","138672","20367","19361","1802","25820","25820","1802","1802","23501","272796","1799","138672","271095","270116","270116","NA","973","study_X","0","3134","1","yes","1680"
"undefined","undefined","3134","3134","black","no","legacy","legacy","legacy","0","green","(0, 122, 0)","color","present","highProb","rectangular","same","swap","same","swap","red","(179, 0, 0)","lowProb","lowProb4","rectangular","uniform","1","undefined","0.25","1","1","308.869791667","1","48","59303","0","0","0","0","0","0","0","0","75","0","1","0.25","308.869791667","48","59303","75","75","75","08/21/17 15:45:23","Default description","yes","<openexp._canvas.legacy.legacy object at 0x049C27F0>","<openexp._canvas.legacy.legacy object at 0x049CE7B0>","<openexp._canvas.legacy.legacy object at 0x049BA510>","<openexp._canvas.legacy.legacy object at 0x04AB09D0>","<openexp._canvas.legacy.legacy object at 0x04A814B0>","<openexp._canvas.legacy.legacy object at 0x049D2D30>","<openexp._canvas.legacy.legacy object at 0x04A82A50>","75","IndividualPriorityWithDis_v1.osexp","C:/Userdata/Michel/SpatialProb/IndividualPriorityMaps/Experiment2","no","mono","no","18","no","white","no","yes","0.09","98","1050","legacy","45","50","50","1","C:/Userdata/Michel/SpatialProb/IndividualPriorityMaps/Experiment2/data/subject-12.csv","legacy","9","192","25","Jazzy James","3.1.3","yes","598477b2b83f69022949e7e9","47","green","rectangular","red","rectangular","0","\","687","space","3134","3134","(80, 80, 80)","(0, 122, 0)","(179, 0, 0)","(155, 155, 155)","2","legacy","experiment","[3, 4, 5, 6, 7, 0, 1, 2]","\","2500","3000","0","8","252.758751519","1024","2","48000","-16","main","[(0, -252), (178, -178), (252, 0), (178, 178), (0, 252), (-178, 178), (-252, 0), (-178, -178)]","[]","12","even","0","99865","138672","138672","20367","19361","1802","25820","25820","1802","1802","23501","274884","1799","138672","274194","273215","273215","NA","973","study_X","0","3134","1","yes","1680"
"undefined","undefined","3134","3134","black","no","legacy","legacy","legacy","0","green","(0, 122, 0)","shape","present","highProb","circular","same","swap","swap","same","green","(0, 122, 0)","lowProb","lowProb1","rectangular","uniform","1","undefined","0.255208333333","1","1","315.151041667","1","49","60509","0","0","0","0","0","0","0","0","76","0","1","0.255208333333","315.151041667","49","60509","76","76","76","08/21/17 15:45:23","Default description","yes","<openexp._canvas.legacy.legacy object at 0x049C27F0>","<openexp._canvas.legacy.legacy object at 0x049CE7B0>","<openexp._canvas.legacy.legacy object at 0x049BA510>","<openexp._canvas.legacy.legacy object at 0x04AB09D0>","<openexp._canvas.legacy.legacy object at 0x04A814B0>","<openexp._canvas.legacy.legacy object at 0x049BFF10>","<openexp._canvas.legacy.legacy object at 0x04A82A50>","75","IndividualPriorityWithDis_v1.osexp","C:/Userdata/Michel/SpatialProb/IndividualPriorityMaps/Experiment2","no","mono","no","18","no","white","no","yes","0.09","98","1050","legacy","45","51","51","1","C:/Userdata/Michel/SpatialProb/IndividualPriorityMaps/Experiment2/data/subject-12.csv","legacy","9","192","25","Jazzy James","3.1.3","yes","598477b2b83f69022949e7e9","47","green","circular","green","rectangular","0","\","1206","space","3134","3134","(80, 80, 80)","(0, 122, 0)","(179, 0, 0)","(155, 155, 155)","2","legacy","experiment","[3, 4, 5, 6, 7, 0, 1, 2]","\","2500","3000","0","8","252.758751519","1024","2","48000","-16","main","[(0, -252), (178, -178), (252, 0), (178, 178), (0, 252), (-178, 178), (-252, 0), (-178, -178)]","[]","12","even","4","99865","138672","138672","20367","19361","1802","25820","25820","1802","1802","23501","277540","1799","138672","276330","275352","275352","NA","973","study_X","0","3134","1","yes","1680"
"undefined","undefined","3134","3134","black","no","legacy","legacy","legacy","0","red","(179, 0, 0)","color","present","lowProb1","circular","swap","same","same","swap","green","(0, 122, 0)","lowProb","lowProb6","circular","uniform","1","undefined","0.260416666667","1","1","326.453125","1","50","62679","0","0","0","0","0","0","0","0","77","0","1","0.260416666667","326.453125","50","62679","77","77","77","08/21/17 15:45:23","Default description","yes","<openexp._canvas.legacy.legacy object at 0x049C27F0>","<openexp._canvas.legacy.legacy object at 0x049CE7B0>","<openexp._canvas.legacy.legacy object at 0x049BA510>","<openexp._canvas.legacy.legacy object at 0x04AB09D0>","<openexp._canvas.legacy.legacy object at 0x04A814B0>","<openexp._canvas.legacy.legacy object at 0x049BA690>","<openexp._canvas.legacy.legacy object at 0x04A82A50>","75","IndividualPriorityWithDis_v1.osexp","C:/Userdata/Michel/SpatialProb/IndividualPriorityMaps/Experiment2","no","mono","no","18","no","white","no","yes","0.09","98","1050","legacy","315","52","52","1","C:/Userdata/Michel/SpatialProb/IndividualPriorityMaps/Experiment2/data/subject-12.csv","legacy","9","192","25","Jazzy James","3.1.3","yes","598477b2b83f69022949e7e9","47","red","circular","green","circular","0","/","2170","space","3134","3134","(80, 80, 80)","(0, 122, 0)","(179, 0, 0)","(155, 155, 155)","2","legacy","experiment","[3, 4, 5, 6, 7, 0, 1, 2]","/","2500","3000","0","8","252.758751519","1024","2","48000","-16","main","[(0, -252), (178, -178), (252, 0), (178, 178), (0, 252), (-178, 178), (-252, 0), (-178, -178)]","[]","12","even","2","99865","138672","138672","20367","19361","1802","25820","25820","1802","1802","23501","281108","1799","138672","278934","277955","277955","NA","973","study_X","0","3134","1","yes","1680"
"undefined","undefined","3134","3134","black","no","legacy","legacy","legacy","0","green","(0, 122, 0)","color","present","highProb","circular","swap","same","swap","same","red","(179, 0, 0)","lowProb","lowProb6","circular","uniform","1","undefined","0.265625","1","1","330.385416667","1","51","63434","0","0","0","0","0","0","0","0","78","0","1","0.265625","330.385416667","51","63434","78","78","78","08/21/17 15:45:23","Default description","yes","<openexp._canvas.legacy.legacy object at 0x049C27F0>","<openexp._canvas.legacy.legacy object at 0x049CE7B0>","<openexp._canvas.legacy.legacy object at 0x049BA510>","<openexp._canvas.legacy.legacy object at 0x04AB09D0>","<openexp._canvas.legacy.legacy object at 0x04A814B0>","<openexp._canvas.legacy.legacy object at 0x049C9AF0>","<openexp._canvas.legacy.legacy object at 0x04A82A50>","75","IndividualPriorityWithDis_v1.osexp","C:/Userdata/Michel/SpatialProb/IndividualPriorityMaps/Experiment2","no","mono","no","18","no","white","no","yes","0.09","98","1050","legacy","45","53","53","1","C:/Userdata/Michel/SpatialProb/IndividualPriorityMaps/Experiment2/data/subject-12.csv","legacy","9","192","25","Jazzy James","3.1.3","yes","598477b2b83f69022949e7e9","47","green","circular","red","circular","0","\","755","space","3134","3134","(80, 80, 80)","(0, 122, 0)","(179, 0, 0)","(155, 155, 155)","2","legacy","experiment","[3, 4, 5, 6, 7, 0, 1, 2]","\","2500","3000","0","8","252.758751519","1024","2","48000","-16","main","[(0, -252), (178, -178), (252, 0), (178, 178), (0, 252), (-178, 178), (-252, 0), (-178, -178)]","[]","12","even","2","99865","138672","138672","20367","19361","1802","25820","25820","1802","1802","23501","283260","1799","138672","282501","281522","281522","NA","973","study_X","0","3134","1","yes","1680"
