"acc","accuracy","average_response_time","avg_rt","background","bidi","canvas_backend","clock_backend","color_backend","compensation","cond_disColor","cond_disColorRGB","cond_disFeature","cond_disPresent","cond_disProbability","cond_disShape","cond_primingDisColor","cond_primingDisShape","cond_primingTarColor","cond_primingTarShape","cond_tarColor","cond_tarColorRGB","cond_tarLocation","cond_tarLocationLong","cond_tarShape","coordinates","correct","correct_continuePress","count_blockAcc","count_blockFeed","count_blockLoop","count_blockRT","count_blockSeq","count_blockSumCorrect","count_blockSumRT","count_continuePress","count_example","count_expSettings","count_exp_mainLoop","count_experiment","count_instructions","count_instructions1","count_instructions2","count_log","count_main","count_prepCanvas","count_totalAcc","count_totalRT","count_totalSumCorrect","count_totalSumRT","count_trialResp","count_trialSeq","count_trialTask","datetime","description","disable_garbage_collection","dispBlank","dispBlockStart","dispFeedBlock","dispFix","dispInstructions","dispSearch","dispStartScreen","distance2screen","experiment_file","experiment_path","font_bold","font_family","font_italic","font_size","font_underline","foreground","form_clicks","fullscreen","gaborFreq","gaborSize","height","keyboard_backend","lineOriTar","live_row","live_row_blockLoop","live_row_exp_mainLoop","logfile","mouse_backend","noExpBlocks","noExpTrials","noPracTrials","opensesame_codename","opensesame_version","osf_always_upload_experiment","osf_id","physical_screensize","previousDisColor","previousDisShape","previousTarColor","previousTarShape","repeat_cycle","response","responseTime","response_continuePress","response_time","response_time_continuePress","rgb_gray","rgb_green","rgb_red","rgb_white","round_decimals","sampler_backend","set_blockType","set_counterPositions","set_respCorrect","set_respTimeoutExp","set_respTimeoutPrac","set_rotation","set_setSize","sizeImaginary","sound_buf_size","sound_channels","sound_freq","sound_sample_size","start","stimPositions","stimuli","subject_nr","subject_parity","tarIdx","time_blockFeed","time_blockLoop","time_blockSeq","time_continuePress","time_example","time_expSettings","time_exp_mainLoop","time_experiment","time_instructions","time_instructions1","time_instructions2","time_log","time_main","time_prepCanvas","time_trialResp","time_trialSeq","time_trialTask","timing_EEGwait","timing_fix","title","total_correct","total_response_time","total_responses","uniform_coordinates","width"
"undefined","undefined","11757","11757","black","no","legacy","legacy","legacy","0","green","(0, 122, 0)","color","present","highProb","circular","same","same","swap","same","red","(179, 0, 0)","lowProb","lowProb6","circular","uniform","1","undefined","0.00520833333333","1","1","5.22916666667","1","1","1004","0","0","0","0","0","0","0","0","25","0","1","0.00520833333333","5.22916666667","1","1004","25","25","25","08/22/17 15:43:37","Default description","yes","<openexp._canvas.legacy.legacy object at 0x048427F0>","<openexp._canvas.legacy.legacy object at 0x0484D7B0>","<openexp._canvas.legacy.legacy object at 0x0483A410>","<openexp._canvas.legacy.legacy object at 0x049309D0>","<openexp._canvas.legacy.legacy object at 0x049014B0>","<openexp._canvas.legacy.legacy object at 0x0483E550>","<openexp._canvas.legacy.legacy object at 0x049029F0>","75","IndividualPriorityWithDis_v1.osexp","C:/Userdata/Michel/SpatialProb/IndividualPriorityMaps/Experiment2","no","mono","no","18","no","white","no","yes","0.09","98","1050","legacy","45","0","0","1","C:/Userdata/Michel/SpatialProb/IndividualPriorityMaps/Experiment2/data/subject-15.csv","legacy","9","192","25","Jazzy James","3.1.3","yes","598477b2b83f69022949e7e9","47","green","circular","red","circular","0","\","1004","space","11757","11757","(80, 80, 80)","(0, 122, 0)","(179, 0, 0)","(155, 155, 155)","2","legacy","experiment","[6, 7, 0, 1, 2, 3, 4, 5]","\","2500","3000","0","8","252.758751519","1024","2","48000","-16","main","[(0, -252), (178, -178), (252, 0), (178, 178), (0, 252), (-178, 178), (-252, 0), (-178, -178)]","[]","15","odd","5","180301","202717","202717","91997","90990","1804","105514","105514","1804","1804","103755","210106","1803","202717","209099","203109","203109","NA","913","study_X","0","11757","1","yes","1680"
"undefined","undefined","11757","11757","black","no","legacy","legacy","legacy","0","green","(0, 122, 0)","color","present","highProb","rectangular","same","swap","same","swap","red","(179, 0, 0)","lowProb","lowProb4","rectangular","uniform","0","undefined","0.00520833333333","1","1","10.3958333333","1","1","1996","0","0","0","0","0","0","0","0","26","0","1","0.00520833333333","10.3958333333","1","1996","26","26","26","08/22/17 15:43:37","Default description","yes","<openexp._canvas.legacy.legacy object at 0x048427F0>","<openexp._canvas.legacy.legacy object at 0x0484D7B0>","<openexp._canvas.legacy.legacy object at 0x0483A410>","<openexp._canvas.legacy.legacy object at 0x049309D0>","<openexp._canvas.legacy.legacy object at 0x049014B0>","<openexp._canvas.legacy.legacy object at 0x0484DFB0>","<openexp._canvas.legacy.legacy object at 0x049029F0>","75","IndividualPriorityWithDis_v1.osexp","C:/Userdata/Michel/SpatialProb/IndividualPriorityMaps/Experiment2","no","mono","no","18","no","white","no","yes","0.09","98","1050","legacy","45","1","1","1","C:/Userdata/Michel/SpatialProb/IndividualPriorityMaps/Experiment2/data/subject-15.csv","legacy","9","192","25","Jazzy James","3.1.3","yes","598477b2b83f69022949e7e9","47","green","rectangular","red","rectangular","0","/","992","space","11757","11757","(80, 80, 80)","(0, 122, 0)","(179, 0, 0)","(155, 155, 155)","2","legacy","experiment","[6, 7, 0, 1, 2, 3, 4, 5]","\","2500","3000","0","8","252.758751519","1024","2","48000","-16","main","[(0, -252), (178, -178), (252, 0), (178, 178), (0, 252), (-178, 178), (-252, 0), (-178, -178)]","[]","15","odd","3","180301","202717","202717","91997","90990","1804","105514","105514","1804","1804","103755","212474","1803","202717","211478","210559","210559","NA","913","study_X","0","11757","1","yes","1680"
"undefined","undefined","11757","11757","black","no","legacy","legacy","legacy","0","red","(179, 0, 0)","shape","absent","highProb","circular","swap","swap","same","swap","red","(179, 0, 0)","lowProb","lowProb3","circular","uniform","1","undefined","0.0104166666667","1","1","14.0885416667","1","2","2705","0","0","0","0","0","0","0","0","27","0","1","0.0104166666667","14.0885416667","2","2705","27","27","27","08/22/17 15:43:37","Default description","yes","<openexp._canvas.legacy.legacy object at 0x048427F0>","<openexp._canvas.legacy.legacy object at 0x0484D7B0>","<openexp._canvas.legacy.legacy object at 0x0483A410>","<openexp._canvas.legacy.legacy object at 0x049309D0>","<openexp._canvas.legacy.legacy object at 0x049014B0>","<openexp._canvas.legacy.legacy object at 0x0483F950>","<openexp._canvas.legacy.legacy object at 0x049029F0>","75","IndividualPriorityWithDis_v1.osexp","C:/Userdata/Michel/SpatialProb/IndividualPriorityMaps/Experiment2","no","mono","no","18","no","white","no","yes","0.09","98","1050","legacy","315","2","2","1","C:/Userdata/Michel/SpatialProb/IndividualPriorityMaps/Experiment2/data/subject-15.csv","legacy","9","192","25","Jazzy James","3.1.3","yes","598477b2b83f69022949e7e9","47","red","circular","red","circular","0","/","709","space","11757","11757","(80, 80, 80)","(0, 122, 0)","(179, 0, 0)","(155, 155, 155)","2","legacy","experiment","[6, 7, 0, 1, 2, 3, 4, 5]","/","2500","3000","0","8","252.758751519","1024","2","48000","-16","main","[(0, -252), (178, -178), (252, 0), (178, 178), (0, 252), (-178, 178), (-252, 0), (-178, -178)]","[]","15","odd","1","180301","202717","202717","91997","90990","1804","105514","105514","1804","1804","103755","214546","1803","202717","213833","212914","212914","NA","913","study_X","0","11757","1","yes","1680"
"undefined","undefined","11757","11757","black","no","legacy","legacy","legacy","0","red","(179, 0, 0)","shape","present","highProb","circular","same","same","same","swap","red","(179, 0, 0)","lowProb","lowProb6","rectangular","uniform","1","undefined","0.015625","1","1","18.6354166667","1","3","3578","0","0","0","0","0","0","0","0","28","0","1","0.015625","18.6354166667","3","3578","28","28","28","08/22/17 15:43:37","Default description","yes","<openexp._canvas.legacy.legacy object at 0x048427F0>","<openexp._canvas.legacy.legacy object at 0x0484D7B0>","<openexp._canvas.legacy.legacy object at 0x0483A410>","<openexp._canvas.legacy.legacy object at 0x049309D0>","<openexp._canvas.legacy.legacy object at 0x049014B0>","<openexp._canvas.legacy.legacy object at 0x0483AFD0>","<openexp._canvas.legacy.legacy object at 0x049029F0>","75","IndividualPriorityWithDis_v1.osexp","C:/Userdata/Michel/SpatialProb/IndividualPriorityMaps/Experiment2","no","mono","no","18","no","white","no","yes","0.09","98","1050","legacy","45","3","3","1","C:/Userdata/Michel/SpatialProb/IndividualPriorityMaps/Experiment2/data/subject-15.csv","legacy","9","192","25","Jazzy James","3.1.3","yes","598477b2b83f69022949e7e9","47","red","circular","red","rectangular","0","\","873","space","11757","11757","(80, 80, 80)","(0, 122, 0)","(179, 0, 0)","(155, 155, 155)","2","legacy","experiment","[6, 7, 0, 1, 2, 3, 4, 5]","\","2500","3000","0","8","252.758751519","1024","2","48000","-16","main","[(0, -252), (178, -178), (252, 0), (178, 178), (0, 252), (-178, 178), (-252, 0), (-178, -178)]","[]","15","odd","5","180301","202717","202717","91997","90990","1804","105514","105514","1804","1804","103755","216770","1803","202717","215893","214974","214974","NA","913","study_X","0","11757","1","yes","1680"
"undefined","undefined","11757","11757","black","no","legacy","legacy","legacy","0","green","(0, 122, 0)","color","present","highProb","rectangular","swap","swap","same","same","red","(179, 0, 0)","lowProb","lowProb3","rectangular","uniform","1","undefined","0.0208333333333","1","1","23.09375","1","4","4434","0","0","0","0","0","0","0","0","29","0","1","0.0208333333333","23.09375","4","4434","29","29","29","08/22/17 15:43:37","Default description","yes","<openexp._canvas.legacy.legacy object at 0x048427F0>","<openexp._canvas.legacy.legacy object at 0x0484D7B0>","<openexp._canvas.legacy.legacy object at 0x0483A410>","<openexp._canvas.legacy.legacy object at 0x049309D0>","<openexp._canvas.legacy.legacy object at 0x049014B0>","<openexp._canvas.legacy.legacy object at 0x0483FF50>","<openexp._canvas.legacy.legacy object at 0x049029F0>","75","IndividualPriorityWithDis_v1.osexp","C:/Userdata/Michel/SpatialProb/IndividualPriorityMaps/Experiment2","no","mono","no","18","no","white","no","yes","0.09","98","1050","legacy","45","4","4","1","C:/Userdata/Michel/SpatialProb/IndividualPriorityMaps/Experiment2/data/subject-15.csv","legacy","9","192","25","Jazzy James","3.1.3","yes","598477b2b83f69022949e7e9","47","green","rectangular","red","rectangular","0","\","856","space","11757","11757","(80, 80, 80)","(0, 122, 0)","(179, 0, 0)","(155, 155, 155)","2","legacy","experiment","[6, 7, 0, 1, 2, 3, 4, 5]","\","2500","3000","0","8","252.758751519","1024","2","48000","-16","main","[(0, -252), (178, -178), (252, 0), (178, 178), (0, 252), (-178, 178), (-252, 0), (-178, -178)]","[]","15","odd","1","180301","202717","202717","91997","90990","1804","105514","105514","1804","1804","103755","218977","1803","202717","218118","217199","217199","NA","913","study_X","0","11757","1","yes","1680"
"undefined","undefined","11757","11757","black","no","legacy","legacy","legacy","0","green","(0, 122, 0)","color","present","lowProb5","rectangular","same","same","same","same","red","(179, 0, 0)","highProbShape","highProbShape","rectangular","uniform","1","undefined","0.0260416666667","1","1","28.4427083333","1","5","5461","0","0","0","0","0","0","0","0","30","0","1","0.0260416666667","28.4427083333","5","5461","30","30","30","08/22/17 15:43:37","Default description","yes","<openexp._canvas.legacy.legacy object at 0x048427F0>","<openexp._canvas.legacy.legacy object at 0x0484D7B0>","<openexp._canvas.legacy.legacy object at 0x0483A410>","<openexp._canvas.legacy.legacy object at 0x049309D0>","<openexp._canvas.legacy.legacy object at 0x049014B0>","<openexp._canvas.legacy.legacy object at 0x049302B0>","<openexp._canvas.legacy.legacy object at 0x049029F0>","75","IndividualPriorityWithDis_v1.osexp","C:/Userdata/Michel/SpatialProb/IndividualPriorityMaps/Experiment2","no","mono","no","18","no","white","no","yes","0.09","98","1050","legacy","315","5","5","1","C:/Userdata/Michel/SpatialProb/IndividualPriorityMaps/Experiment2/data/subject-15.csv","legacy","9","192","25","Jazzy James","3.1.3","yes","598477b2b83f69022949e7e9","47","green","rectangular","red","rectangular","0","/","1027","space","11757","11757","(80, 80, 80)","(0, 122, 0)","(179, 0, 0)","(155, 155, 155)","2","legacy","experiment","[6, 7, 0, 1, 2, 3, 4, 5]","/","2500","3000","0","8","252.758751519","1024","2","48000","-16","main","[(0, -252), (178, -178), (252, 0), (178, 178), (0, 252), (-178, 178), (-252, 0), (-178, -178)]","[]","15","odd","2","180301","202717","202717","91997","90990","1804","105514","105514","1804","1804","103755","221337","1803","202717","220308","219389","219389","NA","913","study_X","0","11757","1","yes","1680"
"undefined","undefined","11757","11757","black","no","legacy","legacy","legacy","0","green","(0, 122, 0)","color","present","lowProb1","circular","same","swap","same","swap","red","(179, 0, 0)","lowProb","lowProb4","circular","uniform","1","undefined","0.03125","1","1","39.8645833333","1","6","7654","0","0","0","0","0","0","0","0","31","0","1","0.03125","39.8645833333","6","7654","31","31","31","08/22/17 15:43:37","Default description","yes","<openexp._canvas.legacy.legacy object at 0x048427F0>","<openexp._canvas.legacy.legacy object at 0x0484D7B0>","<openexp._canvas.legacy.legacy object at 0x0483A410>","<openexp._canvas.legacy.legacy object at 0x049309D0>","<openexp._canvas.legacy.legacy object at 0x049014B0>","<openexp._canvas.legacy.legacy object at 0x0483AED0>","<openexp._canvas.legacy.legacy object at 0x049029F0>","75","IndividualPriorityWithDis_v1.osexp","C:/Userdata/Michel/SpatialProb/IndividualPriorityMaps/Experiment2","no","mono","no","18","no","white","no","yes","0.09","98","1050","legacy","315","6","6","1","C:/Userdata/Michel/SpatialProb/IndividualPriorityMaps/Experiment2/data/subject-15.csv","legacy","9","192","25","Jazzy James","3.1.3","yes","598477b2b83f69022949e7e9","47","green","circular","red","circular","0","/","2193","space","11757","11757","(80, 80, 80)","(0, 122, 0)","(179, 0, 0)","(155, 155, 155)","2","legacy","experiment","[6, 7, 0, 1, 2, 3, 4, 5]","/","2500","3000","0","8","252.758751519","1024","2","48000","-16","main","[(0, -252), (178, -178), (252, 0), (178, 178), (0, 252), (-178, 178), (-252, 0), (-178, -178)]","[]","15","odd","3","180301","202717","202717","91997","90990","1804","105514","105514","1804","1804","103755","224882","1803","202717","222686","221767","221767","NA","913","study_X","0","11757","1","yes","1680"
"undefined","undefined","11757","11757","black","no","legacy","legacy","legacy","0","red","(179, 0, 0)","color","present","highProb","circular","swap","same","swap","same","green","(0, 122, 0)","lowProb","lowProb6","circular","uniform","1","undefined","0.0364583333333","1","1","47.2864583333","1","7","9079","0","0","0","0","0","0","0","0","32","0","1","0.0364583333333","47.2864583333","7","9079","32","32","32","08/22/17 15:43:37","Default description","yes","<openexp._canvas.legacy.legacy object at 0x048427F0>","<openexp._canvas.legacy.legacy object at 0x0484D7B0>","<openexp._canvas.legacy.legacy object at 0x0483A410>","<openexp._canvas.legacy.legacy object at 0x049309D0>","<openexp._canvas.legacy.legacy object at 0x049014B0>","<openexp._canvas.legacy.legacy object at 0x0483E550>","<openexp._canvas.legacy.legacy object at 0x049029F0>","75","IndividualPriorityWithDis_v1.osexp","C:/Userdata/Michel/SpatialProb/IndividualPriorityMaps/Experiment2","no","mono","no","18","no","white","no","yes","0.09","98","1050","legacy","315","7","7","1","C:/Userdata/Michel/SpatialProb/IndividualPriorityMaps/Experiment2/data/subject-15.csv","legacy","9","192","25","Jazzy James","3.1.3","yes","598477b2b83f69022949e7e9","47","red","circular","green","circular","0","/","1425","space","11757","11757","(80, 80, 80)","(0, 122, 0)","(179, 0, 0)","(155, 155, 155)","2","legacy","experiment","[6, 7, 0, 1, 2, 3, 4, 5]","/","2500","3000","0","8","252.758751519","1024","2","48000","-16","main","[(0, -252), (178, -178), (252, 0), (178, 178), (0, 252), (-178, 178), (-252, 0), (-178, -178)]","[]","15","odd","5","180301","202717","202717","91997","90990","1804","105514","105514","1804","1804","103755","227650","1803","202717","226221","225302","225302","NA","913","study_X","0","11757","1","yes","1680"
"undefined","undefined","11757","11757","black","no","legacy","legacy","legacy","0","green","(0, 122, 0)","shape","present","lowProb1","circular","swap","same","same","swap","green","(0, 122, 0)","lowProb","lowProb5","rectangular","uniform","1","undefined","0.0416666666667","1","1","57.0416666667","1","8","10952","0","0","0","0","0","0","0","0","33","0","1","0.0416666666667","57.0416666667","8","10952","33","33","33","08/22/17 15:43:37","Default description","yes","<openexp._canvas.legacy.legacy object at 0x048427F0>","<openexp._canvas.legacy.legacy object at 0x0484D7B0>","<openexp._canvas.legacy.legacy object at 0x0483A410>","<openexp._canvas.legacy.legacy object at 0x049309D0>","<openexp._canvas.legacy.legacy object at 0x049014B0>","<openexp._canvas.legacy.legacy object at 0x04930AB0>","<openexp._canvas.legacy.legacy object at 0x049029F0>","75","IndividualPriorityWithDis_v1.osexp","C:/Userdata/Michel/SpatialProb/IndividualPriorityMaps/Experiment2","no","mono","no","18","no","white","no","yes","0.09","98","1050","legacy","315","8","8","1","C:/Userdata/Michel/SpatialProb/IndividualPriorityMaps/Experiment2/data/subject-15.csv","legacy","9","192","25","Jazzy James","3.1.3","yes","598477b2b83f69022949e7e9","47","green","circular","green","rectangular","0","/","1873","space","11757","11757","(80, 80, 80)","(0, 122, 0)","(179, 0, 0)","(155, 155, 155)","2","legacy","experiment","[6, 7, 0, 1, 2, 3, 4, 5]","/","2500","3000","0","8","252.758751519","1024","2","48000","-16","main","[(0, -252), (178, -178), (252, 0), (178, 178), (0, 252), (-178, 178), (-252, 0), (-178, -178)]","[]","15","odd","4","180301","202717","202717","91997","90990","1804","105514","105514","1804","1804","103755","230858","1803","202717","228981","228062","228062","NA","913","study_X","0","11757","1","yes","1680"
"undefined","undefined","11757","11757","black","no","legacy","legacy","legacy","0","red","(179, 0, 0)","color","present","highProb","rectangular","swap","swap","same","same","green","(0, 122, 0)","lowProb","lowProb2","rectangular","uniform","0","undefined","0.0416666666667","1","1","70.0625","1","8","13452","0","0","0","0","0","0","0","0","34","0","1","0.0416666666667","70.0625","8","13452","34","34","34","08/22/17 15:43:37","Default description","yes","<openexp._canvas.legacy.legacy object at 0x048427F0>","<openexp._canvas.legacy.legacy object at 0x0484D7B0>","<openexp._canvas.legacy.legacy object at 0x0483A410>","<openexp._canvas.legacy.legacy object at 0x049309D0>","<openexp._canvas.legacy.legacy object at 0x049014B0>","<openexp._canvas.legacy.legacy object at 0x048496D0>","<openexp._canvas.legacy.legacy object at 0x049029F0>","75","IndividualPriorityWithDis_v1.osexp","C:/Userdata/Michel/SpatialProb/IndividualPriorityMaps/Experiment2","no","mono","no","18","no","white","no","yes","0.09","98","1050","legacy","45","9","9","1","C:/Userdata/Michel/SpatialProb/IndividualPriorityMaps/Experiment2/data/subject-15.csv","legacy","9","192","25","Jazzy James","3.1.3","yes","598477b2b83f69022949e7e9","47","red","rectangular","green","rectangular","0","None","2500","space","11757","11757","(80, 80, 80)","(0, 122, 0)","(179, 0, 0)","(155, 155, 155)","2","legacy","experiment","[6, 7, 0, 1, 2, 3, 4, 5]","\","2500","3000","0","8","252.758751519","1024","2","48000","-16","main","[(0, -252), (178, -178), (252, 0), (178, 178), (0, 252), (-178, 178), (-252, 0), (-178, -178)]","[]","15","odd","0","180301","202717","202717","91997","90990","1804","105514","105514","1804","1804","103755","234691","1803","202717","232188","231269","231269","NA","913","study_X","0","11757","1","yes","1680"
"undefined","undefined","11757","11757","black","no","legacy","legacy","legacy","0","red","(179, 0, 0)","color","present","lowProb5","rectangular","same","same","same","same","green","(0, 122, 0)","lowProb","lowProb3","rectangular","uniform","1","undefined","0.046875","1","1","78.9739583333","1","9","15163","0","0","0","0","0","0","0","0","35","0","1","0.046875","78.9739583333","9","15163","35","35","35","08/22/17 15:43:37","Default description","yes","<openexp._canvas.legacy.legacy object at 0x048427F0>","<openexp._canvas.legacy.legacy object at 0x0484D7B0>","<openexp._canvas.legacy.legacy object at 0x0483A410>","<openexp._canvas.legacy.legacy object at 0x049309D0>","<openexp._canvas.legacy.legacy object at 0x049014B0>","<openexp._canvas.legacy.legacy object at 0x0483A790>","<openexp._canvas.legacy.legacy object at 0x049029F0>","75","IndividualPriorityWithDis_v1.osexp","C:/Userdata/Michel/SpatialProb/IndividualPriorityMaps/Experiment2","no","mono","no","18","no","white","no","yes","0.09","98","1050","legacy","45","10","10","1","C:/Userdata/Michel/SpatialProb/IndividualPriorityMaps/Experiment2/data/subject-15.csv","legacy","9","192","25","Jazzy James","3.1.3","yes","598477b2b83f69022949e7e9","47","red","rectangular","green","rectangular","0","\","1711","space","11757","11757","(80, 80, 80)","(0, 122, 0)","(179, 0, 0)","(155, 155, 155)","2","legacy","experiment","[6, 7, 0, 1, 2, 3, 4, 5]","\","2500","3000","0","8","252.758751519","1024","2","48000","-16","main","[(0, -252), (178, -178), (252, 0), (178, 178), (0, 252), (-178, 178), (-252, 0), (-178, -178)]","[]","15","odd","1","180301","202717","202717","91997","90990","1804","105514","105514","1804","1804","103755","237745","1803","202717","236031","235112","235112","NA","913","study_X","0","11757","1","yes","1680"
"undefined","undefined","11757","11757","black","no","legacy","legacy","legacy","0","green","(0, 122, 0)","color","absent","lowProb1","circular","swap","swap","same","swap","green","(0, 122, 0)","lowProb","lowProb5","circular","uniform","1","undefined","0.0520833333333","1","1","87.7083333333","1","10","16840","0","0","0","0","0","0","0","0","36","0","1","0.0520833333333","87.7083333333","10","16840","36","36","36","08/22/17 15:43:37","Default description","yes","<openexp._canvas.legacy.legacy object at 0x048427F0>","<openexp._canvas.legacy.legacy object at 0x0484D7B0>","<openexp._canvas.legacy.legacy object at 0x0483A410>","<openexp._canvas.legacy.legacy object at 0x049309D0>","<openexp._canvas.legacy.legacy object at 0x049014B0>","<openexp._canvas.legacy.legacy object at 0x0483EBF0>","<openexp._canvas.legacy.legacy object at 0x049029F0>","75","IndividualPriorityWithDis_v1.osexp","C:/Userdata/Michel/SpatialProb/IndividualPriorityMaps/Experiment2","no","mono","no","18","no","white","no","yes","0.09","98","1050","legacy","45","11","11","1","C:/Userdata/Michel/SpatialProb/IndividualPriorityMaps/Experiment2/data/subject-15.csv","legacy","9","192","25","Jazzy James","3.1.3","yes","598477b2b83f69022949e7e9","47","green","circular","green","circular","0","\","1677","space","11757","11757","(80, 80, 80)","(0, 122, 0)","(179, 0, 0)","(155, 155, 155)","2","legacy","experiment","[6, 7, 0, 1, 2, 3, 4, 5]","\","2500","3000","0","8","252.758751519","1024","2","48000","-16","main","[(0, -252), (178, -178), (252, 0), (178, 178), (0, 252), (-178, 178), (-252, 0), (-178, -178)]","[]","15","odd","4","180301","202717","202717","91997","90990","1804","105514","105514","1804","1804","103755","240753","1803","202717","239073","238154","238154","NA","913","study_X","0","11757","1","yes","1680"
"undefined","undefined","11757","11757","black","no","legacy","legacy","legacy","0","green","(0, 122, 0)","shape","absent","lowProb5","rectangular","same","swap","same","swap","green","(0, 122, 0)","lowProb","lowProb4","rectangular","uniform","1","undefined","0.0572916666667","1","1","92.5625","1","11","17772","0","0","0","0","0","0","0","0","37","0","1","0.0572916666667","92.5625","11","17772","37","37","37","08/22/17 15:43:37","Default description","yes","<openexp._canvas.legacy.legacy object at 0x048427F0>","<openexp._canvas.legacy.legacy object at 0x0484D7B0>","<openexp._canvas.legacy.legacy object at 0x0483A410>","<openexp._canvas.legacy.legacy object at 0x049309D0>","<openexp._canvas.legacy.legacy object at 0x049014B0>","<openexp._canvas.legacy.legacy object at 0x04930E30>","<openexp._canvas.legacy.legacy object at 0x049029F0>","75","IndividualPriorityWithDis_v1.osexp","C:/Userdata/Michel/SpatialProb/IndividualPriorityMaps/Experiment2","no","mono","no","18","no","white","no","yes","0.09","98","1050","legacy","315","12","12","1","C:/Userdata/Michel/SpatialProb/IndividualPriorityMaps/Experiment2/data/subject-15.csv","legacy","9","192","25","Jazzy James","3.1.3","yes","598477b2b83f69022949e7e9","47","green","rectangular","green","rectangular","0","/","932","space","11757","11757","(80, 80, 80)","(0, 122, 0)","(179, 0, 0)","(155, 155, 155)","2","legacy","experiment","[6, 7, 0, 1, 2, 3, 4, 5]","/","2500","3000","0","8","252.758751519","1024","2","48000","-16","main","[(0, -252), (178, -178), (252, 0), (178, 178), (0, 252), (-178, 178), (-252, 0), (-178, -178)]","[]","15","odd","3","180301","202717","202717","91997","90990","1804","105514","105514","1804","1804","103755","243018","1803","202717","242082","241163","241163","NA","913","study_X","0","11757","1","yes","1680"
"undefined","undefined","11757","11757","black","no","legacy","legacy","legacy","0","red","(179, 0, 0)","color","present","highProb","rectangular","swap","same","same","same","green","(0, 122, 0)","lowProb","lowProb5","rectangular","uniform","1","undefined","0.0625","1","1","97.78125","1","12","18774","0","0","0","0","0","0","0","0","38","0","1","0.0625","97.78125","12","18774","38","38","38","08/22/17 15:43:37","Default description","yes","<openexp._canvas.legacy.legacy object at 0x048427F0>","<openexp._canvas.legacy.legacy object at 0x0484D7B0>","<openexp._canvas.legacy.legacy object at 0x0483A410>","<openexp._canvas.legacy.legacy object at 0x049309D0>","<openexp._canvas.legacy.legacy object at 0x049014B0>","<openexp._canvas.legacy.legacy object at 0x048422B0>","<openexp._canvas.legacy.legacy object at 0x049029F0>","75","IndividualPriorityWithDis_v1.osexp","C:/Userdata/Michel/SpatialProb/IndividualPriorityMaps/Experiment2","no","mono","no","18","no","white","no","yes","0.09","98","1050","legacy","315","13","13","1","C:/Userdata/Michel/SpatialProb/IndividualPriorityMaps/Experiment2/data/subject-15.csv","legacy","9","192","25","Jazzy James","3.1.3","yes","598477b2b83f69022949e7e9","47","red","rectangular","green","rectangular","0","/","1002","space","11757","11757","(80, 80, 80)","(0, 122, 0)","(179, 0, 0)","(155, 155, 155)","2","legacy","experiment","[6, 7, 0, 1, 2, 3, 4, 5]","/","2500","3000","0","8","252.758751519","1024","2","48000","-16","main","[(0, -252), (178, -178), (252, 0), (178, 178), (0, 252), (-178, 178), (-252, 0), (-178, -178)]","[]","15","odd","4","180301","202717","202717","91997","90990","1804","105514","105514","1804","1804","103755","245370","1803","202717","244364","243445","243445","NA","913","study_X","0","11757","1","yes","1680"
"undefined","undefined","11757","11757","black","no","legacy","legacy","legacy","0","green","(0, 122, 0)","color","present","highProb","rectangular","swap","same","swap","same","red","(179, 0, 0)","lowProb","lowProb1","rectangular","uniform","1","undefined","0.0677083333333","1","1","104.78125","1","13","20118","0","0","0","0","0","0","0","0","39","0","1","0.0677083333333","104.78125","13","20118","39","39","39","08/22/17 15:43:37","Default description","yes","<openexp._canvas.legacy.legacy object at 0x048427F0>","<openexp._canvas.legacy.legacy object at 0x0484D7B0>","<openexp._canvas.legacy.legacy object at 0x0483A410>","<openexp._canvas.legacy.legacy object at 0x049309D0>","<openexp._canvas.legacy.legacy object at 0x049014B0>","<openexp._canvas.legacy.legacy object at 0x0483A090>","<openexp._canvas.legacy.legacy object at 0x049029F0>","75","IndividualPriorityWithDis_v1.osexp","C:/Userdata/Michel/SpatialProb/IndividualPriorityMaps/Experiment2","no","mono","no","18","no","white","no","yes","0.09","98","1050","legacy","315","14","14","1","C:/Userdata/Michel/SpatialProb/IndividualPriorityMaps/Experiment2/data/subject-15.csv","legacy","9","192","25","Jazzy James","3.1.3","yes","598477b2b83f69022949e7e9","47","green","rectangular","red","rectangular","0","/","1344","space","11757","11757","(80, 80, 80)","(0, 122, 0)","(179, 0, 0)","(155, 155, 155)","2","legacy","experiment","[6, 7, 0, 1, 2, 3, 4, 5]","/","2500","3000","0","8","252.758751519","1024","2","48000","-16","main","[(0, -252), (178, -178), (252, 0), (178, 178), (0, 252), (-178, 178), (-252, 0), (-178, -178)]","[]","15","odd","7","180301","202717","202717","91997","90990","1804","105514","105514","1804","1804","103755","248050","1803","202717","246702","245784","245784","NA","913","study_X","0","11757","1","yes","1680"
"undefined","undefined","11757","11757","black","no","legacy","legacy","legacy","0","red","(179, 0, 0)","color","present","highProb","rectangular","swap","same","swap","same","green","(0, 122, 0)","lowProb","lowProb4","rectangular","uniform","1","undefined","0.0729166666667","1","1","113.84375","1","14","21858","0","0","0","0","0","0","0","0","40","0","1","0.0729166666667","113.84375","14","21858","40","40","40","08/22/17 15:43:37","Default description","yes","<openexp._canvas.legacy.legacy object at 0x048427F0>","<openexp._canvas.legacy.legacy object at 0x0484D7B0>","<openexp._canvas.legacy.legacy object at 0x0483A410>","<openexp._canvas.legacy.legacy object at 0x049309D0>","<openexp._canvas.legacy.legacy object at 0x049014B0>","<openexp._canvas.legacy.legacy object at 0x0483E850>","<openexp._canvas.legacy.legacy object at 0x049029F0>","75","IndividualPriorityWithDis_v1.osexp","C:/Userdata/Michel/SpatialProb/IndividualPriorityMaps/Experiment2","no","mono","no","18","no","white","no","yes","0.09","98","1050","legacy","45","15","15","1","C:/Userdata/Michel/SpatialProb/IndividualPriorityMaps/Experiment2/data/subject-15.csv","legacy","9","192","25","Jazzy James","3.1.3","yes","598477b2b83f69022949e7e9","47","red","rectangular","green","rectangular","0","\","1740","space","11757","11757","(80, 80, 80)","(0, 122, 0)","(179, 0, 0)","(155, 155, 155)","2","legacy","experiment","[6, 7, 0, 1, 2, 3, 4, 5]","\","2500","3000","0","8","252.758751519","1024","2","48000","-16","main","[(0, -252), (178, -178), (252, 0), (178, 178), (0, 252), (-178, 178), (-252, 0), (-178, -178)]","[]","15","odd","3","180301","202717","202717","91997","90990","1804","105514","105514","1804","1804","103755","251113","1803","202717","249370","248451","248451","NA","913","study_X","0","11757","1","yes","1680"
"undefined","undefined","11757","11757","black","no","legacy","legacy","legacy","0","green","(0, 122, 0)","shape","present","highProb","circular","swap","swap","same","same","green","(0, 122, 0)","lowProb","lowProb6","rectangular","uniform","1","undefined","0.078125","1","1","119.130208333","1","15","22873","0","0","0","0","0","0","0","0","41","0","1","0.078125","119.130208333","15","22873","41","41","41","08/22/17 15:43:37","Default description","yes","<openexp._canvas.legacy.legacy object at 0x048427F0>","<openexp._canvas.legacy.legacy object at 0x0484D7B0>","<openexp._canvas.legacy.legacy object at 0x0483A410>","<openexp._canvas.legacy.legacy object at 0x049309D0>","<openexp._canvas.legacy.legacy object at 0x049014B0>","<openexp._canvas.legacy.legacy object at 0x04930DD0>","<openexp._canvas.legacy.legacy object at 0x049029F0>","75","IndividualPriorityWithDis_v1.osexp","C:/Userdata/Michel/SpatialProb/IndividualPriorityMaps/Experiment2","no","mono","no","18","no","white","no","yes","0.09","98","1050","legacy","45","16","16","1","C:/Userdata/Michel/SpatialProb/IndividualPriorityMaps/Experiment2/data/subject-15.csv","legacy","9","192","25","Jazzy James","3.1.3","yes","598477b2b83f69022949e7e9","47","green","circular","green","rectangular","0","\","1015","space","11757","11757","(80, 80, 80)","(0, 122, 0)","(179, 0, 0)","(155, 155, 155)","2","legacy","experiment","[6, 7, 0, 1, 2, 3, 4, 5]","\","2500","3000","0","8","252.758751519","1024","2","48000","-16","main","[(0, -252), (178, -178), (252, 0), (178, 178), (0, 252), (-178, 178), (-252, 0), (-178, -178)]","[]","15","odd","5","180301","202717","202717","91997","90990","1804","105514","105514","1804","1804","103755","253481","1803","202717","252463","251544","251544","NA","913","study_X","0","11757","1","yes","1680"
"undefined","undefined","11757","11757","black","no","legacy","legacy","legacy","0","red","(179, 0, 0)","shape","absent","lowProb4","circular","swap","same","swap","swap","red","(179, 0, 0)","lowProb","lowProb2","circular","uniform","1","undefined","0.0833333333333","1","1","123.125","1","16","23640","0","0","0","0","0","0","0","0","42","0","1","0.0833333333333","123.125","16","23640","42","42","42","08/22/17 15:43:37","Default description","yes","<openexp._canvas.legacy.legacy object at 0x048427F0>","<openexp._canvas.legacy.legacy object at 0x0484D7B0>","<openexp._canvas.legacy.legacy object at 0x0483A410>","<openexp._canvas.legacy.legacy object at 0x049309D0>","<openexp._canvas.legacy.legacy object at 0x049014B0>","<openexp._canvas.legacy.legacy object at 0x048490D0>","<openexp._canvas.legacy.legacy object at 0x049029F0>","75","IndividualPriorityWithDis_v1.osexp","C:/Userdata/Michel/SpatialProb/IndividualPriorityMaps/Experiment2","no","mono","no","18","no","white","no","yes","0.09","98","1050","legacy","315","17","17","1","C:/Userdata/Michel/SpatialProb/IndividualPriorityMaps/Experiment2/data/subject-15.csv","legacy","9","192","25","Jazzy James","3.1.3","yes","598477b2b83f69022949e7e9","47","red","circular","red","circular","0","/","767","space","11757","11757","(80, 80, 80)","(0, 122, 0)","(179, 0, 0)","(155, 155, 155)","2","legacy","experiment","[6, 7, 0, 1, 2, 3, 4, 5]","/","2500","3000","0","8","252.758751519","1024","2","48000","-16","main","[(0, -252), (178, -178), (252, 0), (178, 178), (0, 252), (-178, 178), (-252, 0), (-178, -178)]","[]","15","odd","0","180301","202717","202717","91997","90990","1804","105514","105514","1804","1804","103755","255593","1803","202717","254823","253904","253904","NA","913","study_X","0","11757","1","yes","1680"
"undefined","undefined","11757","11757","black","no","legacy","legacy","legacy","0","green","(0, 122, 0)","color","present","highProb","rectangular","swap","swap","same","swap","red","(179, 0, 0)","lowProb","lowProb2","rectangular","uniform","1","undefined","0.0885416666667","1","1","133.25","1","17","25584","0","0","0","0","0","0","0","0","43","0","1","0.0885416666667","133.25","17","25584","43","43","43","08/22/17 15:43:37","Default description","yes","<openexp._canvas.legacy.legacy object at 0x048427F0>","<openexp._canvas.legacy.legacy object at 0x0484D7B0>","<openexp._canvas.legacy.legacy object at 0x0483A410>","<openexp._canvas.legacy.legacy object at 0x049309D0>","<openexp._canvas.legacy.legacy object at 0x049014B0>","<openexp._canvas.legacy.legacy object at 0x0484D130>","<openexp._canvas.legacy.legacy object at 0x049029F0>","75","IndividualPriorityWithDis_v1.osexp","C:/Userdata/Michel/SpatialProb/IndividualPriorityMaps/Experiment2","no","mono","no","18","no","white","no","yes","0.09","98","1050","legacy","315","18","18","1","C:/Userdata/Michel/SpatialProb/IndividualPriorityMaps/Experiment2/data/subject-15.csv","legacy","9","192","25","Jazzy James","3.1.3","yes","598477b2b83f69022949e7e9","47","green","rectangular","red","rectangular","0","/","1944","space","11757","11757","(80, 80, 80)","(0, 122, 0)","(179, 0, 0)","(155, 155, 155)","2","legacy","experiment","[6, 7, 0, 1, 2, 3, 4, 5]","/","2500","3000","0","8","252.758751519","1024","2","48000","-16","main","[(0, -252), (178, -178), (252, 0), (178, 178), (0, 252), (-178, 178), (-252, 0), (-178, -178)]","[]","15","odd","0","180301","202717","202717","91997","90990","1804","105514","105514","1804","1804","103755","258874","1803","202717","256926","256007","256007","NA","913","study_X","0","11757","1","yes","1680"
"undefined","undefined","11757","11757","black","no","legacy","legacy","legacy","0","red","(179, 0, 0)","color","present","highProb","circular","swap","swap","swap","swap","green","(0, 122, 0)","highProbShape","highProbShape","circular","uniform","1","undefined","0.09375","1","1","138.84375","1","18","26658","0","0","0","0","0","0","0","0","44","0","1","0.09375","138.84375","18","26658","44","44","44","08/22/17 15:43:37","Default description","yes","<openexp._canvas.legacy.legacy object at 0x048427F0>","<openexp._canvas.legacy.legacy object at 0x0484D7B0>","<openexp._canvas.legacy.legacy object at 0x0483A410>","<openexp._canvas.legacy.legacy object at 0x049309D0>","<openexp._canvas.legacy.legacy object at 0x049014B0>","<openexp._canvas.legacy.legacy object at 0x04851A10>","<openexp._canvas.legacy.legacy object at 0x049029F0>","75","IndividualPriorityWithDis_v1.osexp","C:/Userdata/Michel/SpatialProb/IndividualPriorityMaps/Experiment2","no","mono","no","18","no","white","no","yes","0.09","98","1050","legacy","45","19","19","1","C:/Userdata/Michel/SpatialProb/IndividualPriorityMaps/Experiment2/data/subject-15.csv","legacy","9","192","25","Jazzy James","3.1.3","yes","598477b2b83f69022949e7e9","47","red","circular","green","circular","0","\","1074","space","11757","11757","(80, 80, 80)","(0, 122, 0)","(179, 0, 0)","(155, 155, 155)","2","legacy","experiment","[6, 7, 0, 1, 2, 3, 4, 5]","\","2500","3000","0","8","252.758751519","1024","2","48000","-16","main","[(0, -252), (178, -178), (252, 0), (178, 178), (0, 252), (-178, 178), (-252, 0), (-178, -178)]","[]","15","odd","2","180301","202717","202717","91997","90990","1804","105514","105514","1804","1804","103755","261290","1803","202717","260212","259293","259293","NA","913","study_X","0","11757","1","yes","1680"
"undefined","undefined","11757","11757","black","no","legacy","legacy","legacy","0","green","(0, 122, 0)","color","absent","lowProb2","circular","swap","same","same","same","green","(0, 122, 0)","lowProb","lowProb2","circular","uniform","1","undefined","0.0989583333333","1","1","143.713541667","1","19","27593","0","0","0","0","0","0","0","0","45","0","1","0.0989583333333","143.713541667","19","27593","45","45","45","08/22/17 15:43:37","Default description","yes","<openexp._canvas.legacy.legacy object at 0x048427F0>","<openexp._canvas.legacy.legacy object at 0x0484D7B0>","<openexp._canvas.legacy.legacy object at 0x0483A410>","<openexp._canvas.legacy.legacy object at 0x049309D0>","<openexp._canvas.legacy.legacy object at 0x049014B0>","<openexp._canvas.legacy.legacy object at 0x0492BF50>","<openexp._canvas.legacy.legacy object at 0x049029F0>","75","IndividualPriorityWithDis_v1.osexp","C:/Userdata/Michel/SpatialProb/IndividualPriorityMaps/Experiment2","no","mono","no","18","no","white","no","yes","0.09","98","1050","legacy","45","20","20","1","C:/Userdata/Michel/SpatialProb/IndividualPriorityMaps/Experiment2/data/subject-15.csv","legacy","9","192","25","Jazzy James","3.1.3","yes","598477b2b83f69022949e7e9","47","green","circular","green","circular","0","\","935","space","11757","11757","(80, 80, 80)","(0, 122, 0)","(179, 0, 0)","(155, 155, 155)","2","legacy","experiment","[6, 7, 0, 1, 2, 3, 4, 5]","\","2500","3000","0","8","252.758751519","1024","2","48000","-16","main","[(0, -252), (178, -178), (252, 0), (178, 178), (0, 252), (-178, 178), (-252, 0), (-178, -178)]","[]","15","odd","0","180301","202717","202717","91997","90990","1804","105514","105514","1804","1804","103755","263601","1803","202717","262663","261744","261744","NA","913","study_X","0","11757","1","yes","1680"
"undefined","undefined","11757","11757","black","no","legacy","legacy","legacy","0","green","(0, 122, 0)","shape","present","lowProb1","circular","same","same","same","swap","green","(0, 122, 0)","lowProb","lowProb6","rectangular","uniform","0","undefined","0.0989583333333","1","1","150.989583333","1","19","28990","0","0","0","0","0","0","0","0","46","0","1","0.0989583333333","150.989583333","19","28990","46","46","46","08/22/17 15:43:37","Default description","yes","<openexp._canvas.legacy.legacy object at 0x048427F0>","<openexp._canvas.legacy.legacy object at 0x0484D7B0>","<openexp._canvas.legacy.legacy object at 0x0483A410>","<openexp._canvas.legacy.legacy object at 0x049309D0>","<openexp._canvas.legacy.legacy object at 0x049014B0>","<openexp._canvas.legacy.legacy object at 0x049302F0>","<openexp._canvas.legacy.legacy object at 0x049029F0>","75","IndividualPriorityWithDis_v1.osexp","C:/Userdata/Michel/SpatialProb/IndividualPriorityMaps/Experiment2","no","mono","no","18","no","white","no","yes","0.09","98","1050","legacy","45","21","21","1","C:/Userdata/Michel/SpatialProb/IndividualPriorityMaps/Experiment2/data/subject-15.csv","legacy","9","192","25","Jazzy James","3.1.3","yes","598477b2b83f69022949e7e9","47","green","circular","green","rectangular","0","/","1397","space","11757","11757","(80, 80, 80)","(0, 122, 0)","(179, 0, 0)","(155, 155, 155)","2","legacy","experiment","[6, 7, 0, 1, 2, 3, 4, 5]","\","2500","3000","0","8","252.758751519","1024","2","48000","-16","main","[(0, -252), (178, -178), (252, 0), (178, 178), (0, 252), (-178, 178), (-252, 0), (-178, -178)]","[]","15","odd","5","180301","202717","202717","91997","90990","1804","105514","105514","1804","1804","103755","266353","1803","202717","264953","264034","264034","NA","913","study_X","0","11757","1","yes","1680"
"undefined","undefined","11757","11757","black","no","legacy","legacy","legacy","0","red","(179, 0, 0)","shape","present","highProb","circular","swap","same","swap","same","red","(179, 0, 0)","lowProb","lowProb2","rectangular","uniform","1","undefined","0.104166666667","1","1","157.338541667","1","20","30209","0","0","0","0","0","0","0","0","47","0","1","0.104166666667","157.338541667","20","30209","47","47","47","08/22/17 15:43:37","Default description","yes","<openexp._canvas.legacy.legacy object at 0x048427F0>","<openexp._canvas.legacy.legacy object at 0x0484D7B0>","<openexp._canvas.legacy.legacy object at 0x0483A410>","<openexp._canvas.legacy.legacy object at 0x049309D0>","<openexp._canvas.legacy.legacy object at 0x049014B0>","<openexp._canvas.legacy.legacy object at 0x048440D0>","<openexp._canvas.legacy.legacy object at 0x049029F0>","75","IndividualPriorityWithDis_v1.osexp","C:/Userdata/Michel/SpatialProb/IndividualPriorityMaps/Experiment2","no","mono","no","18","no","white","no","yes","0.09","98","1050","legacy","45","22","22","1","C:/Userdata/Michel/SpatialProb/IndividualPriorityMaps/Experiment2/data/subject-15.csv","legacy","9","192","25","Jazzy James","3.1.3","yes","598477b2b83f69022949e7e9","47","red","circular","red","rectangular","0","\","1219","space","11757","11757","(80, 80, 80)","(0, 122, 0)","(179, 0, 0)","(155, 155, 155)","2","legacy","experiment","[6, 7, 0, 1, 2, 3, 4, 5]","\","2500","3000","0","8","252.758751519","1024","2","48000","-16","main","[(0, -252), (178, -178), (252, 0), (178, 178), (0, 252), (-178, 178), (-252, 0), (-178, -178)]","[]","15","odd","0","180301","202717","202717","91997","90990","1804","105514","105514","1804","1804","103755","268905","1803","202717","267683","266764","266764","NA","913","study_X","0","11757","1","yes","1680"
"undefined","undefined","11757","11757","black","no","legacy","legacy","legacy","0","green","(0, 122, 0)","color","absent","highProbOther","rectangular","swap","swap","swap","same","green","(0, 122, 0)","lowProb","lowProb5","rectangular","uniform","1","undefined","0.109375","1","1","165.411458333","1","21","31759","0","0","0","0","0","0","0","0","48","0","1","0.109375","165.411458333","21","31759","48","48","48","08/22/17 15:43:37","Default description","yes","<openexp._canvas.legacy.legacy object at 0x048427F0>","<openexp._canvas.legacy.legacy object at 0x0484D7B0>","<openexp._canvas.legacy.legacy object at 0x0483A410>","<openexp._canvas.legacy.legacy object at 0x049309D0>","<openexp._canvas.legacy.legacy object at 0x049014B0>","<openexp._canvas.legacy.legacy object at 0x0483ECB0>","<openexp._canvas.legacy.legacy object at 0x049029F0>","75","IndividualPriorityWithDis_v1.osexp","C:/Userdata/Michel/SpatialProb/IndividualPriorityMaps/Experiment2","no","mono","no","18","no","white","no","yes","0.09","98","1050","legacy","315","23","23","1","C:/Userdata/Michel/SpatialProb/IndividualPriorityMaps/Experiment2/data/subject-15.csv","legacy","9","192","25","Jazzy James","3.1.3","yes","598477b2b83f69022949e7e9","47","green","rectangular","green","rectangular","0","/","1550","space","11757","11757","(80, 80, 80)","(0, 122, 0)","(179, 0, 0)","(155, 155, 155)","2","legacy","experiment","[6, 7, 0, 1, 2, 3, 4, 5]","/","2500","3000","0","8","252.758751519","1024","2","48000","-16","main","[(0, -252), (178, -178), (252, 0), (178, 178), (0, 252), (-178, 178), (-252, 0), (-178, -178)]","[]","15","odd","4","180301","202717","202717","91997","90990","1804","105514","105514","1804","1804","103755","271785","1803","202717","270232","269313","269313","NA","913","study_X","0","11757","1","yes","1680"
"undefined","undefined","11757","11757","black","no","legacy","legacy","legacy","0","green","(0, 122, 0)","color","present","highProbOther","circular","same","swap","swap","swap","red","(179, 0, 0)","lowProb","lowProb3","circular","uniform","1","undefined","0.114583333333","1","1","168.760416667","1","22","32402","0","0","0","0","0","0","0","0","49","0","1","0.114583333333","168.760416667","22","32402","49","49","49","08/22/17 15:43:37","Default description","yes","<openexp._canvas.legacy.legacy object at 0x048427F0>","<openexp._canvas.legacy.legacy object at 0x0484D7B0>","<openexp._canvas.legacy.legacy object at 0x0483A410>","<openexp._canvas.legacy.legacy object at 0x049309D0>","<openexp._canvas.legacy.legacy object at 0x049014B0>","<openexp._canvas.legacy.legacy object at 0x0483A030>","<openexp._canvas.legacy.legacy object at 0x049029F0>","75","IndividualPriorityWithDis_v1.osexp","C:/Userdata/Michel/SpatialProb/IndividualPriorityMaps/Experiment2","no","mono","no","18","no","white","no","yes","0.09","98","1050","legacy","315","24","24","1","C:/Userdata/Michel/SpatialProb/IndividualPriorityMaps/Experiment2/data/subject-15.csv","legacy","9","192","25","Jazzy James","3.1.3","yes","598477b2b83f69022949e7e9","47","green","circular","red","circular","0","/","643","space","11757","11757","(80, 80, 80)","(0, 122, 0)","(179, 0, 0)","(155, 155, 155)","2","legacy","experiment","[6, 7, 0, 1, 2, 3, 4, 5]","/","2500","3000","0","8","252.758751519","1024","2","48000","-16","main","[(0, -252), (178, -178), (252, 0), (178, 178), (0, 252), (-178, 178), (-252, 0), (-178, -178)]","[]","15","odd","1","180301","202717","202717","91997","90990","1804","105514","105514","1804","1804","103755","273785","1803","202717","273139","272221","272221","NA","913","study_X","0","11757","1","yes","1680"
"undefined","undefined","11757","11757","black","no","legacy","legacy","legacy","0","red","(179, 0, 0)","shape","present","lowProb6","circular","swap","same","same","swap","red","(179, 0, 0)","lowProb","lowProb4","rectangular","uniform","1","undefined","0.119791666667","1","1","176.838541667","1","23","33953","0","0","0","0","0","0","0","0","50","0","1","0.119791666667","176.838541667","23","33953","50","50","50","08/22/17 15:43:37","Default description","yes","<openexp._canvas.legacy.legacy object at 0x048427F0>","<openexp._canvas.legacy.legacy object at 0x0484D7B0>","<openexp._canvas.legacy.legacy object at 0x0483A410>","<openexp._canvas.legacy.legacy object at 0x049309D0>","<openexp._canvas.legacy.legacy object at 0x049014B0>","<openexp._canvas.legacy.legacy object at 0x0484DCB0>","<openexp._canvas.legacy.legacy object at 0x049029F0>","75","IndividualPriorityWithDis_v1.osexp","C:/Userdata/Michel/SpatialProb/IndividualPriorityMaps/Experiment2","no","mono","no","18","no","white","no","yes","0.09","98","1050","legacy","315","25","25","1","C:/Userdata/Michel/SpatialProb/IndividualPriorityMaps/Experiment2/data/subject-15.csv","legacy","9","192","25","Jazzy James","3.1.3","yes","598477b2b83f69022949e7e9","47","red","circular","red","rectangular","0","/","1551","space","11757","11757","(80, 80, 80)","(0, 122, 0)","(179, 0, 0)","(155, 155, 155)","2","legacy","experiment","[6, 7, 0, 1, 2, 3, 4, 5]","/","2500","3000","0","8","252.758751519","1024","2","48000","-16","main","[(0, -252), (178, -178), (252, 0), (178, 178), (0, 252), (-178, 178), (-252, 0), (-178, -178)]","[]","15","odd","3","180301","202717","202717","91997","90990","1804","105514","105514","1804","1804","103755","276674","1803","202717","275119","274201","274201","NA","913","study_X","0","11757","1","yes","1680"
"undefined","undefined","11757","11757","black","no","legacy","legacy","legacy","0","red","(179, 0, 0)","color","absent","lowProb6","rectangular","same","swap","same","same","red","(179, 0, 0)","lowProb","lowProb5","rectangular","uniform","1","undefined","0.125","1","1","184.9375","1","24","35508","0","0","0","0","0","0","0","0","51","0","1","0.125","184.9375","24","35508","51","51","51","08/22/17 15:43:37","Default description","yes","<openexp._canvas.legacy.legacy object at 0x048427F0>","<openexp._canvas.legacy.legacy object at 0x0484D7B0>","<openexp._canvas.legacy.legacy object at 0x0483A410>","<openexp._canvas.legacy.legacy object at 0x049309D0>","<openexp._canvas.legacy.legacy object at 0x049014B0>","<openexp._canvas.legacy.legacy object at 0x04930710>","<openexp._canvas.legacy.legacy object at 0x049029F0>","75","IndividualPriorityWithDis_v1.osexp","C:/Userdata/Michel/SpatialProb/IndividualPriorityMaps/Experiment2","no","mono","no","18","no","white","no","yes","0.09","98","1050","legacy","315","26","26","1","C:/Userdata/Michel/SpatialProb/IndividualPriorityMaps/Experiment2/data/subject-15.csv","legacy","9","192","25","Jazzy James","3.1.3","yes","598477b2b83f69022949e7e9","47","red","rectangular","red","rectangular","0","/","1555","space","11757","11757","(80, 80, 80)","(0, 122, 0)","(179, 0, 0)","(155, 155, 155)","2","legacy","experiment","[6, 7, 0, 1, 2, 3, 4, 5]","/","2500","3000","0","8","252.758751519","1024","2","48000","-16","main","[(0, -252), (178, -178), (252, 0), (178, 178), (0, 252), (-178, 178), (-252, 0), (-178, -178)]","[]","15","odd","4","180301","202717","202717","91997","90990","1804","105514","105514","1804","1804","103755","279561","1803","202717","278003","277084","277084","NA","913","study_X","0","11757","1","yes","1680"
"undefined","undefined","11757","11757","black","no","legacy","legacy","legacy","0","red","(179, 0, 0)","color","present","lowProb4","circular","same","swap","swap","swap","green","(0, 122, 0)","highProbShape","highProbShape","circular","uniform","1","undefined","0.130208333333","1","1","190.036458333","1","25","36487","0","0","0","0","0","0","0","0","52","0","1","0.130208333333","190.036458333","25","36487","52","52","52","08/22/17 15:43:37","Default description","yes","<openexp._canvas.legacy.legacy object at 0x048427F0>","<openexp._canvas.legacy.legacy object at 0x0484D7B0>","<openexp._canvas.legacy.legacy object at 0x0483A410>","<openexp._canvas.legacy.legacy object at 0x049309D0>","<openexp._canvas.legacy.legacy object at 0x049014B0>","<openexp._canvas.legacy.legacy object at 0x04851430>","<openexp._canvas.legacy.legacy object at 0x049029F0>","75","IndividualPriorityWithDis_v1.osexp","C:/Userdata/Michel/SpatialProb/IndividualPriorityMaps/Experiment2","no","mono","no","18","no","white","no","yes","0.09","98","1050","legacy","45","27","27","1","C:/Userdata/Michel/SpatialProb/IndividualPriorityMaps/Experiment2/data/subject-15.csv","legacy","9","192","25","Jazzy James","3.1.3","yes","598477b2b83f69022949e7e9","47","red","circular","green","circular","0","\","979","space","11757","11757","(80, 80, 80)","(0, 122, 0)","(179, 0, 0)","(155, 155, 155)","2","legacy","experiment","[6, 7, 0, 1, 2, 3, 4, 5]","\","2500","3000","0","8","252.758751519","1024","2","48000","-16","main","[(0, -252), (178, -178), (252, 0), (178, 178), (0, 252), (-178, 178), (-252, 0), (-178, -178)]","[]","15","odd","2","180301","202717","202717","91997","90990","1804","105514","105514","1804","1804","103755","281881","1803","202717","280899","279980","279980","NA","913","study_X","0","11757","1","yes","1680"
"undefined","undefined","11757","11757","black","no","legacy","legacy","legacy","0","green","(0, 122, 0)","color","present","highProb","rectangular","swap","swap","swap","swap","red","(179, 0, 0)","lowProb","lowProb4","rectangular","uniform","1","undefined","0.135416666667","1","1","196.03125","1","26","37638","0","0","0","0","0","0","0","0","53","0","1","0.135416666667","196.03125","26","37638","53","53","53","08/22/17 15:43:37","Default description","yes","<openexp._canvas.legacy.legacy object at 0x048427F0>","<openexp._canvas.legacy.legacy object at 0x0484D7B0>","<openexp._canvas.legacy.legacy object at 0x0483A410>","<openexp._canvas.legacy.legacy object at 0x049309D0>","<openexp._canvas.legacy.legacy object at 0x049014B0>","<openexp._canvas.legacy.legacy object at 0x0483E9D0>","<openexp._canvas.legacy.legacy object at 0x049029F0>","75","IndividualPriorityWithDis_v1.osexp","C:/Userdata/Michel/SpatialProb/IndividualPriorityMaps/Experiment2","no","mono","no","18","no","white","no","yes","0.09","98","1050","legacy","315","28","28","1","C:/Userdata/Michel/SpatialProb/IndividualPriorityMaps/Experiment2/data/subject-15.csv","legacy","9","192","25","Jazzy James","3.1.3","yes","598477b2b83f69022949e7e9","47","green","rectangular","red","rectangular","0","/","1151","space","11757","11757","(80, 80, 80)","(0, 122, 0)","(179, 0, 0)","(155, 155, 155)","2","legacy","experiment","[6, 7, 0, 1, 2, 3, 4, 5]","/","2500","3000","0","8","252.758751519","1024","2","48000","-16","main","[(0, -252), (178, -178), (252, 0), (178, 178), (0, 252), (-178, 178), (-252, 0), (-178, -178)]","[]","15","odd","3","180301","202717","202717","91997","90990","1804","105514","105514","1804","1804","103755","284369","1803","202717","283215","282296","282296","NA","913","study_X","0","11757","1","yes","1680"
"undefined","undefined","11757","11757","black","no","legacy","legacy","legacy","0","green","(0, 122, 0)","color","present","highProb","rectangular","same","same","same","same","red","(179, 0, 0)","lowProb","lowProb5","rectangular","uniform","1","undefined","0.140625","1","1","200.046875","1","27","38409","0","0","0","0","0","0","0","0","54","0","1","0.140625","200.046875","27","38409","54","54","54","08/22/17 15:43:37","Default description","yes","<openexp._canvas.legacy.legacy object at 0x048427F0>","<openexp._canvas.legacy.legacy object at 0x0484D7B0>","<openexp._canvas.legacy.legacy object at 0x0483A410>","<openexp._canvas.legacy.legacy object at 0x049309D0>","<openexp._canvas.legacy.legacy object at 0x049014B0>","<openexp._canvas.legacy.legacy object at 0x049315D0>","<openexp._canvas.legacy.legacy object at 0x049029F0>","75","IndividualPriorityWithDis_v1.osexp","C:/Userdata/Michel/SpatialProb/IndividualPriorityMaps/Experiment2","no","mono","no","18","no","white","no","yes","0.09","98","1050","legacy","315","29","29","1","C:/Userdata/Michel/SpatialProb/IndividualPriorityMaps/Experiment2/data/subject-15.csv","legacy","9","192","25","Jazzy James","3.1.3","yes","598477b2b83f69022949e7e9","47","green","rectangular","red","rectangular","0","/","771","space","11757","11757","(80, 80, 80)","(0, 122, 0)","(179, 0, 0)","(155, 155, 155)","2","legacy","experiment","[6, 7, 0, 1, 2, 3, 4, 5]","/","2500","3000","0","8","252.758751519","1024","2","48000","-16","main","[(0, -252), (178, -178), (252, 0), (178, 178), (0, 252), (-178, 178), (-252, 0), (-178, -178)]","[]","15","odd","4","180301","202717","202717","91997","90990","1804","105514","105514","1804","1804","103755","286481","1803","202717","285707","284788","284788","NA","913","study_X","0","11757","1","yes","1680"
"undefined","undefined","11757","11757","black","no","legacy","legacy","legacy","0","green","(0, 122, 0)","shape","present","lowProb3","circular","same","swap","swap","same","green","(0, 122, 0)","lowProb","lowProb6","rectangular","uniform","1","undefined","0.145833333333","1","1","203.567708333","1","28","39085","0","0","0","0","0","0","0","0","55","0","1","0.145833333333","203.567708333","28","39085","55","55","55","08/22/17 15:43:37","Default description","yes","<openexp._canvas.legacy.legacy object at 0x048427F0>","<openexp._canvas.legacy.legacy object at 0x0484D7B0>","<openexp._canvas.legacy.legacy object at 0x0483A410>","<openexp._canvas.legacy.legacy object at 0x049309D0>","<openexp._canvas.legacy.legacy object at 0x049014B0>","<openexp._canvas.legacy.legacy object at 0x0483AFD0>","<openexp._canvas.legacy.legacy object at 0x049029F0>","75","IndividualPriorityWithDis_v1.osexp","C:/Userdata/Michel/SpatialProb/IndividualPriorityMaps/Experiment2","no","mono","no","18","no","white","no","yes","0.09","98","1050","legacy","315","30","30","1","C:/Userdata/Michel/SpatialProb/IndividualPriorityMaps/Experiment2/data/subject-15.csv","legacy","9","192","25","Jazzy James","3.1.3","yes","598477b2b83f69022949e7e9","47","green","circular","green","rectangular","0","/","676","space","11757","11757","(80, 80, 80)","(0, 122, 0)","(179, 0, 0)","(155, 155, 155)","2","legacy","experiment","[6, 7, 0, 1, 2, 3, 4, 5]","/","2500","3000","0","8","252.758751519","1024","2","48000","-16","main","[(0, -252), (178, -178), (252, 0), (178, 178), (0, 252), (-178, 178), (-252, 0), (-178, -178)]","[]","15","odd","5","180301","202717","202717","91997","90990","1804","105514","105514","1804","1804","103755","288521","1803","202717","287842","286923","286923","NA","913","study_X","0","11757","1","yes","1680"
"undefined","undefined","11757","11757","black","no","legacy","legacy","legacy","0","red","(179, 0, 0)","color","present","lowProb6","rectangular","swap","swap","same","same","green","(0, 122, 0)","lowProb","lowProb4","rectangular","uniform","1","undefined","0.151041666667","1","1","208.770833333","1","29","40084","0","0","0","0","0","0","0","0","56","0","1","0.151041666667","208.770833333","29","40084","56","56","56","08/22/17 15:43:37","Default description","yes","<openexp._canvas.legacy.legacy object at 0x048427F0>","<openexp._canvas.legacy.legacy object at 0x0484D7B0>","<openexp._canvas.legacy.legacy object at 0x0483A410>","<openexp._canvas.legacy.legacy object at 0x049309D0>","<openexp._canvas.legacy.legacy object at 0x049014B0>","<openexp._canvas.legacy.legacy object at 0x04930E70>","<openexp._canvas.legacy.legacy object at 0x049029F0>","75","IndividualPriorityWithDis_v1.osexp","C:/Userdata/Michel/SpatialProb/IndividualPriorityMaps/Experiment2","no","mono","no","18","no","white","no","yes","0.09","98","1050","legacy","45","31","31","1","C:/Userdata/Michel/SpatialProb/IndividualPriorityMaps/Experiment2/data/subject-15.csv","legacy","9","192","25","Jazzy James","3.1.3","yes","598477b2b83f69022949e7e9","47","red","rectangular","green","rectangular","0","\","999","space","11757","11757","(80, 80, 80)","(0, 122, 0)","(179, 0, 0)","(155, 155, 155)","2","legacy","experiment","[6, 7, 0, 1, 2, 3, 4, 5]","\","2500","3000","0","8","252.758751519","1024","2","48000","-16","main","[(0, -252), (178, -178), (252, 0), (178, 178), (0, 252), (-178, 178), (-252, 0), (-178, -178)]","[]","15","odd","3","180301","202717","202717","91997","90990","1804","105514","105514","1804","1804","103755","290857","1803","202717","289854","288935","288935","NA","913","study_X","0","11757","1","yes","1680"
"undefined","undefined","11757","11757","black","no","legacy","legacy","legacy","0","red","(179, 0, 0)","color","present","highProb","rectangular","same","same","same","same","green","(0, 122, 0)","lowProb","lowProb3","rectangular","uniform","1","undefined","0.15625","1","1","214.885416667","1","30","41258","0","0","0","0","0","0","0","0","57","0","1","0.15625","214.885416667","30","41258","57","57","57","08/22/17 15:43:37","Default description","yes","<openexp._canvas.legacy.legacy object at 0x048427F0>","<openexp._canvas.legacy.legacy object at 0x0484D7B0>","<openexp._canvas.legacy.legacy object at 0x0483A410>","<openexp._canvas.legacy.legacy object at 0x049309D0>","<openexp._canvas.legacy.legacy object at 0x049014B0>","<openexp._canvas.legacy.legacy object at 0x04930330>","<openexp._canvas.legacy.legacy object at 0x049029F0>","75","IndividualPriorityWithDis_v1.osexp","C:/Userdata/Michel/SpatialProb/IndividualPriorityMaps/Experiment2","no","mono","no","18","no","white","no","yes","0.09","98","1050","legacy","45","32","32","1","C:/Userdata/Michel/SpatialProb/IndividualPriorityMaps/Experiment2/data/subject-15.csv","legacy","9","192","25","Jazzy James","3.1.3","yes","598477b2b83f69022949e7e9","47","red","rectangular","green","rectangular","0","\","1174","space","11757","11757","(80, 80, 80)","(0, 122, 0)","(179, 0, 0)","(155, 155, 155)","2","legacy","experiment","[6, 7, 0, 1, 2, 3, 4, 5]","\","2500","3000","0","8","252.758751519","1024","2","48000","-16","main","[(0, -252), (178, -178), (252, 0), (178, 178), (0, 252), (-178, 178), (-252, 0), (-178, -178)]","[]","15","odd","1","180301","202717","202717","91997","90990","1804","105514","105514","1804","1804","103755","293369","1803","202717","292191","291272","291272","NA","913","study_X","0","11757","1","yes","1680"
"undefined","undefined","11757","11757","black","no","legacy","legacy","legacy","0","green","(0, 122, 0)","shape","present","highProb","rectangular","swap","same","same","swap","green","(0, 122, 0)","lowProb","lowProb2","circular","uniform","1","undefined","0.161458333333","1","1","218.015625","1","31","41859","0","0","0","0","0","0","0","0","58","0","1","0.161458333333","218.015625","31","41859","58","58","58","08/22/17 15:43:37","Default description","yes","<openexp._canvas.legacy.legacy object at 0x048427F0>","<openexp._canvas.legacy.legacy object at 0x0484D7B0>","<openexp._canvas.legacy.legacy object at 0x0483A410>","<openexp._canvas.legacy.legacy object at 0x049309D0>","<openexp._canvas.legacy.legacy object at 0x049014B0>","<openexp._canvas.legacy.legacy object at 0x04858610>","<openexp._canvas.legacy.legacy object at 0x049029F0>","75","IndividualPriorityWithDis_v1.osexp","C:/Userdata/Michel/SpatialProb/IndividualPriorityMaps/Experiment2","no","mono","no","18","no","white","no","yes","0.09","98","1050","legacy","45","33","33","1","C:/Userdata/Michel/SpatialProb/IndividualPriorityMaps/Experiment2/data/subject-15.csv","legacy","9","192","25","Jazzy James","3.1.3","yes","598477b2b83f69022949e7e9","47","green","rectangular","green","circular","0","\","601","space","11757","11757","(80, 80, 80)","(0, 122, 0)","(179, 0, 0)","(155, 155, 155)","2","legacy","experiment","[6, 7, 0, 1, 2, 3, 4, 5]","\","2500","3000","0","8","252.758751519","1024","2","48000","-16","main","[(0, -252), (178, -178), (252, 0), (178, 178), (0, 252), (-178, 178), (-252, 0), (-178, -178)]","[]","15","odd","0","180301","202717","202717","91997","90990","1804","105514","105514","1804","1804","103755","295321","1803","202717","294717","293798","293798","NA","913","study_X","0","11757","1","yes","1680"
"undefined","undefined","11757","11757","black","no","legacy","legacy","legacy","0","red","(179, 0, 0)","color","present","lowProb6","circular","swap","swap","same","same","green","(0, 122, 0)","highProbShape","highProbShape","circular","uniform","1","undefined","0.166666666667","1","1","223.723958333","1","32","42955","0","0","0","0","0","0","0","0","59","0","1","0.166666666667","223.723958333","32","42955","59","59","59","08/22/17 15:43:37","Default description","yes","<openexp._canvas.legacy.legacy object at 0x048427F0>","<openexp._canvas.legacy.legacy object at 0x0484D7B0>","<openexp._canvas.legacy.legacy object at 0x0483A410>","<openexp._canvas.legacy.legacy object at 0x049309D0>","<openexp._canvas.legacy.legacy object at 0x049014B0>","<openexp._canvas.legacy.legacy object at 0x0483A390>","<openexp._canvas.legacy.legacy object at 0x049029F0>","75","IndividualPriorityWithDis_v1.osexp","C:/Userdata/Michel/SpatialProb/IndividualPriorityMaps/Experiment2","no","mono","no","18","no","white","no","yes","0.09","98","1050","legacy","45","34","34","1","C:/Userdata/Michel/SpatialProb/IndividualPriorityMaps/Experiment2/data/subject-15.csv","legacy","9","192","25","Jazzy James","3.1.3","yes","598477b2b83f69022949e7e9","47","red","circular","green","circular","0","\","1096","space","11757","11757","(80, 80, 80)","(0, 122, 0)","(179, 0, 0)","(155, 155, 155)","2","legacy","experiment","[6, 7, 0, 1, 2, 3, 4, 5]","\","2500","3000","0","8","252.758751519","1024","2","48000","-16","main","[(0, -252), (178, -178), (252, 0), (178, 178), (0, 252), (-178, 178), (-252, 0), (-178, -178)]","[]","15","odd","2","180301","202717","202717","91997","90990","1804","105514","105514","1804","1804","103755","297761","1803","202717","296662","295743","295743","NA","913","study_X","0","11757","1","yes","1680"
"undefined","undefined","11757","11757","black","no","legacy","legacy","legacy","0","red","(179, 0, 0)","color","present","lowProb2","rectangular","same","swap","same","swap","green","(0, 122, 0)","lowProb","lowProb6","rectangular","uniform","1","undefined","0.171875","1","1","228.697916667","1","33","43910","0","0","0","0","0","0","0","0","60","0","1","0.171875","228.697916667","33","43910","60","60","60","08/22/17 15:43:37","Default description","yes","<openexp._canvas.legacy.legacy object at 0x048427F0>","<openexp._canvas.legacy.legacy object at 0x0484D7B0>","<openexp._canvas.legacy.legacy object at 0x0483A410>","<openexp._canvas.legacy.legacy object at 0x049309D0>","<openexp._canvas.legacy.legacy object at 0x049014B0>","<openexp._canvas.legacy.legacy object at 0x0483A9B0>","<openexp._canvas.legacy.legacy object at 0x049029F0>","75","IndividualPriorityWithDis_v1.osexp","C:/Userdata/Michel/SpatialProb/IndividualPriorityMaps/Experiment2","no","mono","no","18","no","white","no","yes","0.09","98","1050","legacy","45","35","35","1","C:/Userdata/Michel/SpatialProb/IndividualPriorityMaps/Experiment2/data/subject-15.csv","legacy","9","192","25","Jazzy James","3.1.3","yes","598477b2b83f69022949e7e9","47","red","rectangular","green","rectangular","0","\","955","space","11757","11757","(80, 80, 80)","(0, 122, 0)","(179, 0, 0)","(155, 155, 155)","2","legacy","experiment","[6, 7, 0, 1, 2, 3, 4, 5]","\","2500","3000","0","8","252.758751519","1024","2","48000","-16","main","[(0, -252), (178, -178), (252, 0), (178, 178), (0, 252), (-178, 178), (-252, 0), (-178, -178)]","[]","15","odd","5","180301","202717","202717","91997","90990","1804","105514","105514","1804","1804","103755","300073","1803","202717","299115","298196","298196","NA","913","study_X","0","11757","1","yes","1680"
"undefined","undefined","11757","11757","black","no","legacy","legacy","legacy","0","green","(0, 122, 0)","color","present","highProb","rectangular","swap","same","swap","same","red","(179, 0, 0)","lowProb","lowProb5","rectangular","uniform","1","undefined","0.177083333333","1","1","235.401041667","1","34","45197","0","0","0","0","0","0","0","0","61","0","1","0.177083333333","235.401041667","34","45197","61","61","61","08/22/17 15:43:37","Default description","yes","<openexp._canvas.legacy.legacy object at 0x048427F0>","<openexp._canvas.legacy.legacy object at 0x0484D7B0>","<openexp._canvas.legacy.legacy object at 0x0483A410>","<openexp._canvas.legacy.legacy object at 0x049309D0>","<openexp._canvas.legacy.legacy object at 0x049014B0>","<openexp._canvas.legacy.legacy object at 0x0492BFD0>","<openexp._canvas.legacy.legacy object at 0x049029F0>","75","IndividualPriorityWithDis_v1.osexp","C:/Userdata/Michel/SpatialProb/IndividualPriorityMaps/Experiment2","no","mono","no","18","no","white","no","yes","0.09","98","1050","legacy","315","36","36","1","C:/Userdata/Michel/SpatialProb/IndividualPriorityMaps/Experiment2/data/subject-15.csv","legacy","9","192","25","Jazzy James","3.1.3","yes","598477b2b83f69022949e7e9","47","green","rectangular","red","rectangular","0","/","1287","space","11757","11757","(80, 80, 80)","(0, 122, 0)","(179, 0, 0)","(155, 155, 155)","2","legacy","experiment","[6, 7, 0, 1, 2, 3, 4, 5]","/","2500","3000","0","8","252.758751519","1024","2","48000","-16","main","[(0, -252), (178, -178), (252, 0), (178, 178), (0, 252), (-178, 178), (-252, 0), (-178, -178)]","[]","15","odd","4","180301","202717","202717","91997","90990","1804","105514","105514","1804","1804","103755","302697","1803","202717","301407","300488","300488","NA","913","study_X","0","11757","1","yes","1680"
"undefined","undefined","11757","11757","black","no","legacy","legacy","legacy","0","red","(179, 0, 0)","shape","present","highProb","rectangular","swap","same","same","swap","red","(179, 0, 0)","lowProb","lowProb4","circular","uniform","1","undefined","0.182291666667","1","1","242.984375","1","35","46653","0","0","0","0","0","0","0","0","62","0","1","0.182291666667","242.984375","35","46653","62","62","62","08/22/17 15:43:37","Default description","yes","<openexp._canvas.legacy.legacy object at 0x048427F0>","<openexp._canvas.legacy.legacy object at 0x0484D7B0>","<openexp._canvas.legacy.legacy object at 0x0483A410>","<openexp._canvas.legacy.legacy object at 0x049309D0>","<openexp._canvas.legacy.legacy object at 0x049014B0>","<openexp._canvas.legacy.legacy object at 0x0483E190>","<openexp._canvas.legacy.legacy object at 0x049029F0>","75","IndividualPriorityWithDis_v1.osexp","C:/Userdata/Michel/SpatialProb/IndividualPriorityMaps/Experiment2","no","mono","no","18","no","white","no","yes","0.09","98","1050","legacy","315","37","37","1","C:/Userdata/Michel/SpatialProb/IndividualPriorityMaps/Experiment2/data/subject-15.csv","legacy","9","192","25","Jazzy James","3.1.3","yes","598477b2b83f69022949e7e9","47","red","rectangular","red","circular","0","/","1456","space","11757","11757","(80, 80, 80)","(0, 122, 0)","(179, 0, 0)","(155, 155, 155)","2","legacy","experiment","[6, 7, 0, 1, 2, 3, 4, 5]","/","2500","3000","0","8","252.758751519","1024","2","48000","-16","main","[(0, -252), (178, -178), (252, 0), (178, 178), (0, 252), (-178, 178), (-252, 0), (-178, -178)]","[]","15","odd","3","180301","202717","202717","91997","90990","1804","105514","105514","1804","1804","103755","305497","1803","202717","304037","303118","303118","NA","913","study_X","0","11757","1","yes","1680"
"undefined","undefined","11757","11757","black","no","legacy","legacy","legacy","0","green","(0, 122, 0)","shape","present","highProb","circular","swap","swap","swap","swap","green","(0, 122, 0)","lowProb","lowProb6","rectangular","uniform","1","undefined","0.1875","1","1","247.125","1","36","47448","0","0","0","0","0","0","0","0","63","0","1","0.1875","247.125","36","47448","63","63","63","08/22/17 15:43:37","Default description","yes","<openexp._canvas.legacy.legacy object at 0x048427F0>","<openexp._canvas.legacy.legacy object at 0x0484D7B0>","<openexp._canvas.legacy.legacy object at 0x0483A410>","<openexp._canvas.legacy.legacy object at 0x049309D0>","<openexp._canvas.legacy.legacy object at 0x049014B0>","<openexp._canvas.legacy.legacy object at 0x04931A30>","<openexp._canvas.legacy.legacy object at 0x049029F0>","75","IndividualPriorityWithDis_v1.osexp","C:/Userdata/Michel/SpatialProb/IndividualPriorityMaps/Experiment2","no","mono","no","18","no","white","no","yes","0.09","98","1050","legacy","315","38","38","1","C:/Userdata/Michel/SpatialProb/IndividualPriorityMaps/Experiment2/data/subject-15.csv","legacy","9","192","25","Jazzy James","3.1.3","yes","598477b2b83f69022949e7e9","47","green","circular","green","rectangular","0","/","795","space","11757","11757","(80, 80, 80)","(0, 122, 0)","(179, 0, 0)","(155, 155, 155)","2","legacy","experiment","[6, 7, 0, 1, 2, 3, 4, 5]","/","2500","3000","0","8","252.758751519","1024","2","48000","-16","main","[(0, -252), (178, -178), (252, 0), (178, 178), (0, 252), (-178, 178), (-252, 0), (-178, -178)]","[]","15","odd","5","180301","202717","202717","91997","90990","1804","105514","105514","1804","1804","103755","307625","1803","202717","306826","305908","305908","NA","913","study_X","0","11757","1","yes","1680"
"undefined","undefined","11757","11757","black","no","legacy","legacy","legacy","0","red","(179, 0, 0)","color","present","highProbOther","rectangular","swap","swap","same","same","green","(0, 122, 0)","lowProb","lowProb1","rectangular","uniform","1","undefined","0.192708333333","1","1","250.739583333","1","37","48142","0","0","0","0","0","0","0","0","64","0","1","0.192708333333","250.739583333","37","48142","64","64","64","08/22/17 15:43:37","Default description","yes","<openexp._canvas.legacy.legacy object at 0x048427F0>","<openexp._canvas.legacy.legacy object at 0x0484D7B0>","<openexp._canvas.legacy.legacy object at 0x0483A410>","<openexp._canvas.legacy.legacy object at 0x049309D0>","<openexp._canvas.legacy.legacy object at 0x049014B0>","<openexp._canvas.legacy.legacy object at 0x0483E1D0>","<openexp._canvas.legacy.legacy object at 0x049029F0>","75","IndividualPriorityWithDis_v1.osexp","C:/Userdata/Michel/SpatialProb/IndividualPriorityMaps/Experiment2","no","mono","no","18","no","white","no","yes","0.09","98","1050","legacy","315","39","39","1","C:/Userdata/Michel/SpatialProb/IndividualPriorityMaps/Experiment2/data/subject-15.csv","legacy","9","192","25","Jazzy James","3.1.3","yes","598477b2b83f69022949e7e9","47","red","rectangular","green","rectangular","0","/","694","space","11757","11757","(80, 80, 80)","(0, 122, 0)","(179, 0, 0)","(155, 155, 155)","2","legacy","experiment","[6, 7, 0, 1, 2, 3, 4, 5]","/","2500","3000","0","8","252.758751519","1024","2","48000","-16","main","[(0, -252), (178, -178), (252, 0), (178, 178), (0, 252), (-178, 178), (-252, 0), (-178, -178)]","[]","15","odd","7","180301","202717","202717","91997","90990","1804","105514","105514","1804","1804","103755","309657","1803","202717","308959","308040","308040","NA","913","study_X","0","11757","1","yes","1680"
"undefined","undefined","11757","11757","black","no","legacy","legacy","legacy","0","green","(0, 122, 0)","shape","present","lowProb1","rectangular","swap","same","same","swap","green","(0, 122, 0)","highProbShape","highProbShape","circular","uniform","1","undefined","0.197916666667","1","1","256.083333333","1","38","49168","0","0","0","0","0","0","0","0","65","0","1","0.197916666667","256.083333333","38","49168","65","65","65","08/22/17 15:43:37","Default description","yes","<openexp._canvas.legacy.legacy object at 0x048427F0>","<openexp._canvas.legacy.legacy object at 0x0484D7B0>","<openexp._canvas.legacy.legacy object at 0x0483A410>","<openexp._canvas.legacy.legacy object at 0x049309D0>","<openexp._canvas.legacy.legacy object at 0x049014B0>","<openexp._canvas.legacy.legacy object at 0x04931F90>","<openexp._canvas.legacy.legacy object at 0x049029F0>","75","IndividualPriorityWithDis_v1.osexp","C:/Userdata/Michel/SpatialProb/IndividualPriorityMaps/Experiment2","no","mono","no","18","no","white","no","yes","0.09","98","1050","legacy","45","40","40","1","C:/Userdata/Michel/SpatialProb/IndividualPriorityMaps/Experiment2/data/subject-15.csv","legacy","9","192","25","Jazzy James","3.1.3","yes","598477b2b83f69022949e7e9","47","green","rectangular","green","circular","0","\","1026","space","11757","11757","(80, 80, 80)","(0, 122, 0)","(179, 0, 0)","(155, 155, 155)","2","legacy","experiment","[6, 7, 0, 1, 2, 3, 4, 5]","\","2500","3000","0","8","252.758751519","1024","2","48000","-16","main","[(0, -252), (178, -178), (252, 0), (178, 178), (0, 252), (-178, 178), (-252, 0), (-178, -178)]","[]","15","odd","2","180301","202717","202717","91997","90990","1804","105514","105514","1804","1804","103755","312025","1803","202717","310996","310077","310077","NA","913","study_X","0","11757","1","yes","1680"
"undefined","undefined","11757","11757","black","no","legacy","legacy","legacy","0","red","(179, 0, 0)","shape","present","highProb","circular","swap","swap","swap","swap","red","(179, 0, 0)","lowProb","lowProb4","rectangular","uniform","1","undefined","0.203125","1","1","261.677083333","1","39","50242","0","0","0","0","0","0","0","0","66","0","1","0.203125","261.677083333","39","50242","66","66","66","08/22/17 15:43:37","Default description","yes","<openexp._canvas.legacy.legacy object at 0x048427F0>","<openexp._canvas.legacy.legacy object at 0x0484D7B0>","<openexp._canvas.legacy.legacy object at 0x0483A410>","<openexp._canvas.legacy.legacy object at 0x049309D0>","<openexp._canvas.legacy.legacy object at 0x049014B0>","<openexp._canvas.legacy.legacy object at 0x04849AF0>","<openexp._canvas.legacy.legacy object at 0x049029F0>","75","IndividualPriorityWithDis_v1.osexp","C:/Userdata/Michel/SpatialProb/IndividualPriorityMaps/Experiment2","no","mono","no","18","no","white","no","yes","0.09","98","1050","legacy","315","41","41","1","C:/Userdata/Michel/SpatialProb/IndividualPriorityMaps/Experiment2/data/subject-15.csv","legacy","9","192","25","Jazzy James","3.1.3","yes","598477b2b83f69022949e7e9","47","red","circular","red","rectangular","0","/","1074","space","11757","11757","(80, 80, 80)","(0, 122, 0)","(179, 0, 0)","(155, 155, 155)","2","legacy","experiment","[6, 7, 0, 1, 2, 3, 4, 5]","/","2500","3000","0","8","252.758751519","1024","2","48000","-16","main","[(0, -252), (178, -178), (252, 0), (178, 178), (0, 252), (-178, 178), (-252, 0), (-178, -178)]","[]","15","odd","3","180301","202717","202717","91997","90990","1804","105514","105514","1804","1804","103755","314433","1803","202717","313356","312437","312437","NA","913","study_X","0","11757","1","yes","1680"
"undefined","undefined","11757","11757","black","no","legacy","legacy","legacy","0","green","(0, 122, 0)","color","present","highProb","rectangular","swap","swap","same","same","red","(179, 0, 0)","highProbShape","highProbShape","rectangular","uniform","1","undefined","0.208333333333","1","1","270.802083333","1","40","51994","0","0","0","0","0","0","0","0","67","0","1","0.208333333333","270.802083333","40","51994","67","67","67","08/22/17 15:43:37","Default description","yes","<openexp._canvas.legacy.legacy object at 0x048427F0>","<openexp._canvas.legacy.legacy object at 0x0484D7B0>","<openexp._canvas.legacy.legacy object at 0x0483A410>","<openexp._canvas.legacy.legacy object at 0x049309D0>","<openexp._canvas.legacy.legacy object at 0x049014B0>","<openexp._canvas.legacy.legacy object at 0x04858E90>","<openexp._canvas.legacy.legacy object at 0x049029F0>","75","IndividualPriorityWithDis_v1.osexp","C:/Userdata/Michel/SpatialProb/IndividualPriorityMaps/Experiment2","no","mono","no","18","no","white","no","yes","0.09","98","1050","legacy","45","42","42","1","C:/Userdata/Michel/SpatialProb/IndividualPriorityMaps/Experiment2/data/subject-15.csv","legacy","9","192","25","Jazzy James","3.1.3","yes","598477b2b83f69022949e7e9","47","green","rectangular","red","rectangular","0","\","1752","space","11757","11757","(80, 80, 80)","(0, 122, 0)","(179, 0, 0)","(155, 155, 155)","2","legacy","experiment","[6, 7, 0, 1, 2, 3, 4, 5]","\","2500","3000","0","8","252.758751519","1024","2","48000","-16","main","[(0, -252), (178, -178), (252, 0), (178, 178), (0, 252), (-178, 178), (-252, 0), (-178, -178)]","[]","15","odd","2","180301","202717","202717","91997","90990","1804","105514","105514","1804","1804","103755","317505","1803","202717","315750","314831","314831","NA","913","study_X","0","11757","1","yes","1680"
"undefined","undefined","11757","11757","black","no","legacy","legacy","legacy","0","green","(0, 122, 0)","color","absent","lowProb4","circular","same","swap","swap","swap","green","(0, 122, 0)","lowProb","lowProb1","circular","uniform","1","undefined","0.213541666667","1","1","277.734375","1","41","53325","0","0","0","0","0","0","0","0","68","0","1","0.213541666667","277.734375","41","53325","68","68","68","08/22/17 15:43:37","Default description","yes","<openexp._canvas.legacy.legacy object at 0x048427F0>","<openexp._canvas.legacy.legacy object at 0x0484D7B0>","<openexp._canvas.legacy.legacy object at 0x0483A410>","<openexp._canvas.legacy.legacy object at 0x049309D0>","<openexp._canvas.legacy.legacy object at 0x049014B0>","<openexp._canvas.legacy.legacy object at 0x04930970>","<openexp._canvas.legacy.legacy object at 0x049029F0>","75","IndividualPriorityWithDis_v1.osexp","C:/Userdata/Michel/SpatialProb/IndividualPriorityMaps/Experiment2","no","mono","no","18","no","white","no","yes","0.09","98","1050","legacy","45","43","43","1","C:/Userdata/Michel/SpatialProb/IndividualPriorityMaps/Experiment2/data/subject-15.csv","legacy","9","192","25","Jazzy James","3.1.3","yes","598477b2b83f69022949e7e9","47","green","circular","green","circular","0","\","1331","space","11757","11757","(80, 80, 80)","(0, 122, 0)","(179, 0, 0)","(155, 155, 155)","2","legacy","experiment","[6, 7, 0, 1, 2, 3, 4, 5]","\","2500","3000","0","8","252.758751519","1024","2","48000","-16","main","[(0, -252), (178, -178), (252, 0), (178, 178), (0, 252), (-178, 178), (-252, 0), (-178, -178)]","[]","15","odd","7","180301","202717","202717","91997","90990","1804","105514","105514","1804","1804","103755","320177","1803","202717","318843","317924","317924","NA","913","study_X","0","11757","1","yes","1680"
"undefined","undefined","11757","11757","black","no","legacy","legacy","legacy","0","red","(179, 0, 0)","color","present","highProb","rectangular","swap","swap","same","swap","green","(0, 122, 0)","lowProb","lowProb3","rectangular","uniform","1","undefined","0.21875","1","1","282.40625","1","42","54222","0","0","0","0","0","0","0","0","69","0","1","0.21875","282.40625","42","54222","69","69","69","08/22/17 15:43:37","Default description","yes","<openexp._canvas.legacy.legacy object at 0x048427F0>","<openexp._canvas.legacy.legacy object at 0x0484D7B0>","<openexp._canvas.legacy.legacy object at 0x0483A410>","<openexp._canvas.legacy.legacy object at 0x049309D0>","<openexp._canvas.legacy.legacy object at 0x049014B0>","<openexp._canvas.legacy.legacy object at 0x04931230>","<openexp._canvas.legacy.legacy object at 0x049029F0>","75","IndividualPriorityWithDis_v1.osexp","C:/Userdata/Michel/SpatialProb/IndividualPriorityMaps/Experiment2","no","mono","no","18","no","white","no","yes","0.09","98","1050","legacy","315","44","44","1","C:/Userdata/Michel/SpatialProb/IndividualPriorityMaps/Experiment2/data/subject-15.csv","legacy","9","192","25","Jazzy James","3.1.3","yes","598477b2b83f69022949e7e9","47","red","rectangular","green","rectangular","0","/","897","space","11757","11757","(80, 80, 80)","(0, 122, 0)","(179, 0, 0)","(155, 155, 155)","2","legacy","experiment","[6, 7, 0, 1, 2, 3, 4, 5]","/","2500","3000","0","8","252.758751519","1024","2","48000","-16","main","[(0, -252), (178, -178), (252, 0), (178, 178), (0, 252), (-178, 178), (-252, 0), (-178, -178)]","[]","15","odd","1","180301","202717","202717","91997","90990","1804","105514","105514","1804","1804","103755","322425","1803","202717","321524","320605","320605","NA","913","study_X","0","11757","1","yes","1680"
"undefined","undefined","11757","11757","black","no","legacy","legacy","legacy","0","green","(0, 122, 0)","color","present","highProb","circular","swap","swap","swap","swap","red","(179, 0, 0)","lowProb","lowProb4","circular","uniform","1","undefined","0.223958333333","1","1","287.026041667","1","43","55109","0","0","0","0","0","0","0","0","70","0","1","0.223958333333","287.026041667","43","55109","70","70","70","08/22/17 15:43:37","Default description","yes","<openexp._canvas.legacy.legacy object at 0x048427F0>","<openexp._canvas.legacy.legacy object at 0x0484D7B0>","<openexp._canvas.legacy.legacy object at 0x0483A410>","<openexp._canvas.legacy.legacy object at 0x049309D0>","<openexp._canvas.legacy.legacy object at 0x049014B0>","<openexp._canvas.legacy.legacy object at 0x0483ED70>","<openexp._canvas.legacy.legacy object at 0x049029F0>","75","IndividualPriorityWithDis_v1.osexp","C:/Userdata/Michel/SpatialProb/IndividualPriorityMaps/Experiment2","no","mono","no","18","no","white","no","yes","0.09","98","1050","legacy","45","45","45","1","C:/Userdata/Michel/SpatialProb/IndividualPriorityMaps/Experiment2/data/subject-15.csv","legacy","9","192","25","Jazzy James","3.1.3","yes","598477b2b83f69022949e7e9","47","green","circular","red","circular","0","\","887","space","11757","11757","(80, 80, 80)","(0, 122, 0)","(179, 0, 0)","(155, 155, 155)","2","legacy","experiment","[6, 7, 0, 1, 2, 3, 4, 5]","\","2500","3000","0","8","252.758751519","1024","2","48000","-16","main","[(0, -252), (178, -178), (252, 0), (178, 178), (0, 252), (-178, 178), (-252, 0), (-178, -178)]","[]","15","odd","3","180301","202717","202717","91997","90990","1804","105514","105514","1804","1804","103755","324673","1803","202717","323782","322863","322863","NA","913","study_X","0","11757","1","yes","1680"
"undefined","undefined","11757","11757","black","no","legacy","legacy","legacy","0","green","(0, 122, 0)","color","absent","lowProb5","circular","same","same","swap","same","green","(0, 122, 0)","lowProb","lowProb4","circular","uniform","1","undefined","0.229166666667","1","1","292.760416667","1","44","56210","0","0","0","0","0","0","0","0","71","0","1","0.229166666667","292.760416667","44","56210","71","71","71","08/22/17 15:43:37","Default description","yes","<openexp._canvas.legacy.legacy object at 0x048427F0>","<openexp._canvas.legacy.legacy object at 0x0484D7B0>","<openexp._canvas.legacy.legacy object at 0x0483A410>","<openexp._canvas.legacy.legacy object at 0x049309D0>","<openexp._canvas.legacy.legacy object at 0x049014B0>","<openexp._canvas.legacy.legacy object at 0x04902CD0>","<openexp._canvas.legacy.legacy object at 0x049029F0>","75","IndividualPriorityWithDis_v1.osexp","C:/Userdata/Michel/SpatialProb/IndividualPriorityMaps/Experiment2","no","mono","no","18","no","white","no","yes","0.09","98","1050","legacy","45","46","46","1","C:/Userdata/Michel/SpatialProb/IndividualPriorityMaps/Experiment2/data/subject-15.csv","legacy","9","192","25","Jazzy James","3.1.3","yes","598477b2b83f69022949e7e9","47","green","circular","green","circular","0","\","1101","space","11757","11757","(80, 80, 80)","(0, 122, 0)","(179, 0, 0)","(155, 155, 155)","2","legacy","experiment","[6, 7, 0, 1, 2, 3, 4, 5]","\","2500","3000","0","8","252.758751519","1024","2","48000","-16","main","[(0, -252), (178, -178), (252, 0), (178, 178), (0, 252), (-178, 178), (-252, 0), (-178, -178)]","[]","15","odd","3","180301","202717","202717","91997","90990","1804","105514","105514","1804","1804","103755","327120","1803","202717","326016","325097","325097","NA","913","study_X","0","11757","1","yes","1680"
"undefined","undefined","11757","11757","black","no","legacy","legacy","legacy","0","green","(0, 122, 0)","shape","present","highProb","circular","same","same","same","swap","green","(0, 122, 0)","lowProb","lowProb4","rectangular","uniform","1","undefined","0.234375","1","1","299.161458333","1","45","57439","0","0","0","0","0","0","0","0","72","0","1","0.234375","299.161458333","45","57439","72","72","72","08/22/17 15:43:37","Default description","yes","<openexp._canvas.legacy.legacy object at 0x048427F0>","<openexp._canvas.legacy.legacy object at 0x0484D7B0>","<openexp._canvas.legacy.legacy object at 0x0483A410>","<openexp._canvas.legacy.legacy object at 0x049309D0>","<openexp._canvas.legacy.legacy object at 0x049014B0>","<openexp._canvas.legacy.legacy object at 0x049312F0>","<openexp._canvas.legacy.legacy object at 0x049029F0>","75","IndividualPriorityWithDis_v1.osexp","C:/Userdata/Michel/SpatialProb/IndividualPriorityMaps/Experiment2","no","mono","no","18","no","white","no","yes","0.09","98","1050","legacy","315","47","47","1","C:/Userdata/Michel/SpatialProb/IndividualPriorityMaps/Experiment2/data/subject-15.csv","legacy","9","192","25","Jazzy James","3.1.3","yes","598477b2b83f69022949e7e9","47","green","circular","green","rectangular","0","/","1229","space","11757","11757","(80, 80, 80)","(0, 122, 0)","(179, 0, 0)","(155, 155, 155)","2","legacy","experiment","[6, 7, 0, 1, 2, 3, 4, 5]","/","2500","3000","0","8","252.758751519","1024","2","48000","-16","main","[(0, -252), (178, -178), (252, 0), (178, 178), (0, 252), (-178, 178), (-252, 0), (-178, -178)]","[]","15","odd","3","180301","202717","202717","91997","90990","1804","105514","105514","1804","1804","103755","329689","1803","202717","328458","327539","327539","NA","913","study_X","0","11757","1","yes","1680"
"undefined","undefined","11757","11757","black","no","legacy","legacy","legacy","0","green","(0, 122, 0)","color","present","lowProb2","circular","same","same","swap","swap","red","(179, 0, 0)","highProbShape","highProbShape","circular","uniform","1","undefined","0.239583333333","1","1","303.765625","1","46","58323","0","0","0","0","0","0","0","0","73","0","1","0.239583333333","303.765625","46","58323","73","73","73","08/22/17 15:43:37","Default description","yes","<openexp._canvas.legacy.legacy object at 0x048427F0>","<openexp._canvas.legacy.legacy object at 0x0484D7B0>","<openexp._canvas.legacy.legacy object at 0x0483A410>","<openexp._canvas.legacy.legacy object at 0x049309D0>","<openexp._canvas.legacy.legacy object at 0x049014B0>","<openexp._canvas.legacy.legacy object at 0x0483A1D0>","<openexp._canvas.legacy.legacy object at 0x049029F0>","75","IndividualPriorityWithDis_v1.osexp","C:/Userdata/Michel/SpatialProb/IndividualPriorityMaps/Experiment2","no","mono","no","18","no","white","no","yes","0.09","98","1050","legacy","315","48","48","1","C:/Userdata/Michel/SpatialProb/IndividualPriorityMaps/Experiment2/data/subject-15.csv","legacy","9","192","25","Jazzy James","3.1.3","yes","598477b2b83f69022949e7e9","47","green","circular","red","circular","0","/","884","space","11757","11757","(80, 80, 80)","(0, 122, 0)","(179, 0, 0)","(155, 155, 155)","2","legacy","experiment","[6, 7, 0, 1, 2, 3, 4, 5]","/","2500","3000","0","8","252.758751519","1024","2","48000","-16","main","[(0, -252), (178, -178), (252, 0), (178, 178), (0, 252), (-178, 178), (-252, 0), (-178, -178)]","[]","15","odd","2","180301","202717","202717","91997","90990","1804","105514","105514","1804","1804","103755","331905","1803","202717","331018","330099","330099","NA","913","study_X","0","11757","1","yes","1680"
"undefined","undefined","11757","11757","black","no","legacy","legacy","legacy","0","red","(179, 0, 0)","shape","absent","lowProb4","circular","swap","same","same","same","red","(179, 0, 0)","lowProb","lowProb6","circular","uniform","1","undefined","0.244791666667","1","1","307.046875","1","47","58953","0","0","0","0","0","0","0","0","74","0","1","0.244791666667","307.046875","47","58953","74","74","74","08/22/17 15:43:37","Default description","yes","<openexp._canvas.legacy.legacy object at 0x048427F0>","<openexp._canvas.legacy.legacy object at 0x0484D7B0>","<openexp._canvas.legacy.legacy object at 0x0483A410>","<openexp._canvas.legacy.legacy object at 0x049309D0>","<openexp._canvas.legacy.legacy object at 0x049014B0>","<openexp._canvas.legacy.legacy object at 0x04853090>","<openexp._canvas.legacy.legacy object at 0x049029F0>","75","IndividualPriorityWithDis_v1.osexp","C:/Userdata/Michel/SpatialProb/IndividualPriorityMaps/Experiment2","no","mono","no","18","no","white","no","yes","0.09","98","1050","legacy","315","49","49","1","C:/Userdata/Michel/SpatialProb/IndividualPriorityMaps/Experiment2/data/subject-15.csv","legacy","9","192","25","Jazzy James","3.1.3","yes","598477b2b83f69022949e7e9","47","red","circular","red","circular","0","/","630","space","11757","11757","(80, 80, 80)","(0, 122, 0)","(179, 0, 0)","(155, 155, 155)","2","legacy","experiment","[6, 7, 0, 1, 2, 3, 4, 5]","/","2500","3000","0","8","252.758751519","1024","2","48000","-16","main","[(0, -252), (178, -178), (252, 0), (178, 178), (0, 252), (-178, 178), (-252, 0), (-178, -178)]","[]","15","odd","5","180301","202717","202717","91997","90990","1804","105514","105514","1804","1804","103755","333897","1803","202717","333264","332345","332345","NA","913","study_X","0","11757","1","yes","1680"
"undefined","undefined","11757","11757","black","no","legacy","legacy","legacy","0","red","(179, 0, 0)","shape","present","highProb","circular","same","same","same","swap","red","(179, 0, 0)","highProbColor","highProbColor","rectangular","uniform","1","undefined","0.25","1","1","315.958333333","1","48","60664","0","0","0","0","0","0","0","0","75","0","1","0.25","315.958333333","48","60664","75","75","75","08/22/17 15:43:37","Default description","yes","<openexp._canvas.legacy.legacy object at 0x048427F0>","<openexp._canvas.legacy.legacy object at 0x0484D7B0>","<openexp._canvas.legacy.legacy object at 0x0483A410>","<openexp._canvas.legacy.legacy object at 0x049309D0>","<openexp._canvas.legacy.legacy object at 0x049014B0>","<openexp._canvas.legacy.legacy object at 0x04930A50>","<openexp._canvas.legacy.legacy object at 0x049029F0>","75","IndividualPriorityWithDis_v1.osexp","C:/Userdata/Michel/SpatialProb/IndividualPriorityMaps/Experiment2","no","mono","no","18","no","white","no","yes","0.09","98","1050","legacy","315","50","50","1","C:/Userdata/Michel/SpatialProb/IndividualPriorityMaps/Experiment2/data/subject-15.csv","legacy","9","192","25","Jazzy James","3.1.3","yes","598477b2b83f69022949e7e9","47","red","circular","red","rectangular","0","/","1711","space","11757","11757","(80, 80, 80)","(0, 122, 0)","(179, 0, 0)","(155, 155, 155)","2","legacy","experiment","[6, 7, 0, 1, 2, 3, 4, 5]","/","2500","3000","0","8","252.758751519","1024","2","48000","-16","main","[(0, -252), (178, -178), (252, 0), (178, 178), (0, 252), (-178, 178), (-252, 0), (-178, -178)]","[]","15","odd","6","180301","202717","202717","91997","90990","1804","105514","105514","1804","1804","103755","336945","1803","202717","335230","334311","334311","NA","913","study_X","0","11757","1","yes","1680"
"undefined","undefined","11757","11757","black","no","legacy","legacy","legacy","0","green","(0, 122, 0)","color","present","highProb","rectangular","swap","swap","same","same","red","(179, 0, 0)","lowProb","lowProb4","rectangular","uniform","1","undefined","0.255208333333","1","1","320.265625","1","49","61491","0","0","0","0","0","0","0","0","76","0","1","0.255208333333","320.265625","49","61491","76","76","76","08/22/17 15:43:37","Default description","yes","<openexp._canvas.legacy.legacy object at 0x048427F0>","<openexp._canvas.legacy.legacy object at 0x0484D7B0>","<openexp._canvas.legacy.legacy object at 0x0483A410>","<openexp._canvas.legacy.legacy object at 0x049309D0>","<openexp._canvas.legacy.legacy object at 0x049014B0>","<openexp._canvas.legacy.legacy object at 0x04931A30>","<openexp._canvas.legacy.legacy object at 0x049029F0>","75","IndividualPriorityWithDis_v1.osexp","C:/Userdata/Michel/SpatialProb/IndividualPriorityMaps/Experiment2","no","mono","no","18","no","white","no","yes","0.09","98","1050","legacy","45","51","51","1","C:/Userdata/Michel/SpatialProb/IndividualPriorityMaps/Experiment2/data/subject-15.csv","legacy","9","192","25","Jazzy James","3.1.3","yes","598477b2b83f69022949e7e9","47","green","rectangular","red","rectangular","0","\","827","space","11757","11757","(80, 80, 80)","(0, 122, 0)","(179, 0, 0)","(155, 155, 155)","2","legacy","experiment","[6, 7, 0, 1, 2, 3, 4, 5]","\","2500","3000","0","8","252.758751519","1024","2","48000","-16","main","[(0, -252), (178, -178), (252, 0), (178, 178), (0, 252), (-178, 178), (-252, 0), (-178, -178)]","[]","15","odd","3","180301","202717","202717","91997","90990","1804","105514","105514","1804","1804","103755","339121","1803","202717","338291","337371","337371","NA","913","study_X","0","11757","1","yes","1680"
"undefined","undefined","11757","11757","black","no","legacy","legacy","legacy","0","green","(0, 122, 0)","color","present","highProb","circular","same","swap","same","swap","red","(179, 0, 0)","lowProb","lowProb2","circular","uniform","1","undefined","0.260416666667","1","1","324.296875","1","50","62265","0","0","0","0","0","0","0","0","77","0","1","0.260416666667","324.296875","50","62265","77","77","77","08/22/17 15:43:37","Default description","yes","<openexp._canvas.legacy.legacy object at 0x048427F0>","<openexp._canvas.legacy.legacy object at 0x0484D7B0>","<openexp._canvas.legacy.legacy object at 0x0483A410>","<openexp._canvas.legacy.legacy object at 0x049309D0>","<openexp._canvas.legacy.legacy object at 0x049014B0>","<openexp._canvas.legacy.legacy object at 0x0483EF10>","<openexp._canvas.legacy.legacy object at 0x049029F0>","75","IndividualPriorityWithDis_v1.osexp","C:/Userdata/Michel/SpatialProb/IndividualPriorityMaps/Experiment2","no","mono","no","18","no","white","no","yes","0.09","98","1050","legacy","45","52","52","1","C:/Userdata/Michel/SpatialProb/IndividualPriorityMaps/Experiment2/data/subject-15.csv","legacy","9","192","25","Jazzy James","3.1.3","yes","598477b2b83f69022949e7e9","47","green","circular","red","circular","0","\","774","space","11757","11757","(80, 80, 80)","(0, 122, 0)","(179, 0, 0)","(155, 155, 155)","2","legacy","experiment","[6, 7, 0, 1, 2, 3, 4, 5]","\","2500","3000","0","8","252.758751519","1024","2","48000","-16","main","[(0, -252), (178, -178), (252, 0), (178, 178), (0, 252), (-178, 178), (-252, 0), (-178, -178)]","[]","15","odd","0","180301","202717","202717","91997","90990","1804","105514","105514","1804","1804","103755","341241","1803","202717","340463","339544","339545","NA","913","study_X","0","11757","1","yes","1680"
"undefined","undefined","11757","11757","black","no","legacy","legacy","legacy","0","green","(0, 122, 0)","shape","present","highProbOther","rectangular","same","swap","swap","same","green","(0, 122, 0)","highProbShape","highProbShape","circular","uniform","1","undefined","0.265625","1","1","328.947916667","1","51","63158","0","0","0","0","0","0","0","0","78","0","1","0.265625","328.947916667","51","63158","78","78","78","08/22/17 15:43:37","Default description","yes","<openexp._canvas.legacy.legacy object at 0x048427F0>","<openexp._canvas.legacy.legacy object at 0x0484D7B0>","<openexp._canvas.legacy.legacy object at 0x0483A410>","<openexp._canvas.legacy.legacy object at 0x049309D0>","<openexp._canvas.legacy.legacy object at 0x049014B0>","<openexp._canvas.legacy.legacy object at 0x04849490>","<openexp._canvas.legacy.legacy object at 0x049029F0>","75","IndividualPriorityWithDis_v1.osexp","C:/Userdata/Michel/SpatialProb/IndividualPriorityMaps/Experiment2","no","mono","no","18","no","white","no","yes","0.09","98","1050","legacy","315","53","53","1","C:/Userdata/Michel/SpatialProb/IndividualPriorityMaps/Experiment2/data/subject-15.csv","legacy","9","192","25","Jazzy James","3.1.3","yes","598477b2b83f69022949e7e9","47","green","rectangular","green","circular","0","/","893","space","11757","11757","(80, 80, 80)","(0, 122, 0)","(179, 0, 0)","(155, 155, 155)","2","legacy","experiment","[6, 7, 0, 1, 2, 3, 4, 5]","/","2500","3000","0","8","252.758751519","1024","2","48000","-16","main","[(0, -252), (178, -178), (252, 0), (178, 178), (0, 252), (-178, 178), (-252, 0), (-178, -178)]","[]","15","odd","2","180301","202717","202717","91997","90990","1804","105514","105514","1804","1804","103755","343488","1803","202717","342592","341673","341673","NA","913","study_X","0","11757","1","yes","1680"
