"acc","accuracy","average_response_time","avg_rt","background","bidi","canvas_backend","clock_backend","color_backend","compensation","cond_disColor","cond_disColorRGB","cond_disFeature","cond_disPresent","cond_disProbability","cond_disShape","cond_primingDisColor","cond_primingDisShape","cond_primingTarColor","cond_primingTarShape","cond_tarColor","cond_tarColorRGB","cond_tarLocation","cond_tarLocationLong","cond_tarShape","coordinates","correct","correct_continuePress","count_blockAcc","count_blockFeed","count_blockLoop","count_blockRT","count_blockSeq","count_blockSumCorrect","count_blockSumRT","count_continuePress","count_example","count_expSettings","count_exp_mainLoop","count_experiment","count_instructions","count_instructions1","count_instructions2","count_log","count_main","count_prepCanvas","count_totalAcc","count_totalRT","count_totalSumCorrect","count_totalSumRT","count_trialResp","count_trialSeq","count_trialTask","datetime","description","disable_garbage_collection","dispBlank","dispBlockStart","dispFeedBlock","dispFix","dispInstructions","dispSearch","dispStartScreen","distance2screen","experiment_file","experiment_path","font_bold","font_family","font_italic","font_size","font_underline","foreground","form_clicks","fullscreen","gaborFreq","gaborSize","height","keyboard_backend","lineOriTar","live_row","live_row_blockLoop","live_row_exp_mainLoop","logfile","mouse_backend","noExpBlocks","noExpTrials","noPracTrials","opensesame_codename","opensesame_version","osf_always_upload_experiment","osf_id","physical_screensize","previousDisColor","previousDisShape","previousTarColor","previousTarShape","repeat_cycle","response","responseTime","response_continuePress","response_time","response_time_continuePress","rgb_gray","rgb_green","rgb_red","rgb_white","round_decimals","sampler_backend","set_blockType","set_counterPositions","set_respCorrect","set_respTimeoutExp","set_respTimeoutPrac","set_rotation","set_setSize","sizeImaginary","sound_buf_size","sound_channels","sound_freq","sound_sample_size","start","stimPositions","stimuli","subject_nr","subject_parity","tarIdx","time_blockFeed","time_blockLoop","time_blockSeq","time_continuePress","time_example","time_expSettings","time_exp_mainLoop","time_experiment","time_instructions","time_instructions1","time_instructions2","time_log","time_main","time_prepCanvas","time_trialResp","time_trialSeq","time_trialTask","timing_EEGwait","timing_fix","title","total_correct","total_response_time","total_responses","uniform_coordinates","width"
"undefined","undefined","10190","10190","black","no","legacy","legacy","legacy","0","red","(179, 0, 0)","color","present","highProb","circular","swap","same","swap","same","green","(0, 122, 0)","lowProb","lowProb6","circular","uniform","1","undefined","0.00520833333333","1","1","2.66666666667","1","1","512","0","0","0","0","0","0","0","0","25","0","1","0.00520833333333","2.66666666667","1","512","25","25","25","08/23/17 09:52:04","Default description","yes","<openexp._canvas.legacy.legacy object at 0x049227F0>","<openexp._canvas.legacy.legacy object at 0x0492D7B0>","<openexp._canvas.legacy.legacy object at 0x0491A370>","<openexp._canvas.legacy.legacy object at 0x04A109D0>","<openexp._canvas.legacy.legacy object at 0x049E14B0>","<openexp._canvas.legacy.legacy object at 0x0491E550>","<openexp._canvas.legacy.legacy object at 0x049E2A50>","75","IndividualPriorityWithDis_v1.osexp","C:/Userdata/Michel/SpatialProb/IndividualPriorityMaps/Experiment2","no","mono","no","18","no","white","no","yes","0.09","98","1050","legacy","315","0","0","1","C:/Userdata/Michel/SpatialProb/IndividualPriorityMaps/Experiment2/data/subject-16.csv","legacy","9","192","25","Jazzy James","3.1.3","yes","598477b2b83f69022949e7e9","47","red","circular","green","circular","0","/","512","space","10190","10190","(80, 80, 80)","(0, 122, 0)","(179, 0, 0)","(155, 155, 155)","2","legacy","experiment","[7, 0, 1, 2, 3, 4, 5, 6]","/","2500","3000","0","8","252.758751519","1024","2","48000","-16","main","[(0, -252), (178, -178), (252, 0), (178, 178), (0, 252), (-178, 178), (-252, 0), (-178, -178)]","[]","16","even","6","156315","198891","198891","72994","71988","1600","93703","93703","1600","1600","83185","205632","1598","198891","205117","199282","199282","NA","759","study_X","0","10190","1","yes","1680"
"undefined","undefined","10190","10190","black","no","legacy","legacy","legacy","0","green","(0, 122, 0)","shape","present","highProbOther","rectangular","swap","swap","same","same","green","(0, 122, 0)","lowProb","lowProb2","circular","uniform","1","undefined","0.0104166666667","1","1","7.22916666667","1","2","1388","0","0","0","0","0","0","0","0","26","0","1","0.0104166666667","7.22916666667","2","1388","26","26","26","08/23/17 09:52:04","Default description","yes","<openexp._canvas.legacy.legacy object at 0x049227F0>","<openexp._canvas.legacy.legacy object at 0x0492D7B0>","<openexp._canvas.legacy.legacy object at 0x0491A370>","<openexp._canvas.legacy.legacy object at 0x04A109D0>","<openexp._canvas.legacy.legacy object at 0x049E14B0>","<openexp._canvas.legacy.legacy object at 0x0492DFB0>","<openexp._canvas.legacy.legacy object at 0x049E2A50>","75","IndividualPriorityWithDis_v1.osexp","C:/Userdata/Michel/SpatialProb/IndividualPriorityMaps/Experiment2","no","mono","no","18","no","white","no","yes","0.09","98","1050","legacy","45","1","1","1","C:/Userdata/Michel/SpatialProb/IndividualPriorityMaps/Experiment2/data/subject-16.csv","legacy","9","192","25","Jazzy James","3.1.3","yes","598477b2b83f69022949e7e9","47","green","rectangular","green","circular","0","\","876","space","10190","10190","(80, 80, 80)","(0, 122, 0)","(179, 0, 0)","(155, 155, 155)","2","legacy","experiment","[7, 0, 1, 2, 3, 4, 5, 6]","\","2500","3000","0","8","252.758751519","1024","2","48000","-16","main","[(0, -252), (178, -178), (252, 0), (178, 178), (0, 252), (-178, 178), (-252, 0), (-178, -178)]","[]","16","even","1","156315","198891","198891","72994","71988","1600","93703","93703","1600","1600","83185","207720","1598","198891","206840","206075","206076","NA","759","study_X","0","10190","1","yes","1680"
"undefined","undefined","10190","10190","black","no","legacy","legacy","legacy","0","red","(179, 0, 0)","shape","present","highProb","rectangular","swap","same","swap","same","red","(179, 0, 0)","lowProb","lowProb2","circular","uniform","1","undefined","0.015625","1","1","10.8854166667","1","3","2090","0","0","0","0","0","0","0","0","27","0","1","0.015625","10.8854166667","3","2090","27","27","27","08/23/17 09:52:04","Default description","yes","<openexp._canvas.legacy.legacy object at 0x049227F0>","<openexp._canvas.legacy.legacy object at 0x0492D7B0>","<openexp._canvas.legacy.legacy object at 0x0491A370>","<openexp._canvas.legacy.legacy object at 0x04A109D0>","<openexp._canvas.legacy.legacy object at 0x049E14B0>","<openexp._canvas.legacy.legacy object at 0x0491F950>","<openexp._canvas.legacy.legacy object at 0x049E2A50>","75","IndividualPriorityWithDis_v1.osexp","C:/Userdata/Michel/SpatialProb/IndividualPriorityMaps/Experiment2","no","mono","no","18","no","white","no","yes","0.09","98","1050","legacy","45","2","2","1","C:/Userdata/Michel/SpatialProb/IndividualPriorityMaps/Experiment2/data/subject-16.csv","legacy","9","192","25","Jazzy James","3.1.3","yes","598477b2b83f69022949e7e9","47","red","rectangular","red","circular","0","\","702","space","10190","10190","(80, 80, 80)","(0, 122, 0)","(179, 0, 0)","(155, 155, 155)","2","legacy","experiment","[7, 0, 1, 2, 3, 4, 5, 6]","\","2500","3000","0","8","252.758751519","1024","2","48000","-16","main","[(0, -252), (178, -178), (252, 0), (178, 178), (0, 252), (-178, 178), (-252, 0), (-178, -178)]","[]","16","even","1","156315","198891","198891","72994","71988","1600","93703","93703","1600","1600","83185","209600","1598","198891","208894","208129","208129","NA","759","study_X","0","10190","1","yes","1680"
"undefined","undefined","10190","10190","black","no","legacy","legacy","legacy","0","green","(0, 122, 0)","shape","present","highProb","rectangular","swap","same","swap","same","green","(0, 122, 0)","lowProb","lowProb6","circular","uniform","1","undefined","0.0208333333333","1","1","17.1302083333","1","4","3289","0","0","0","0","0","0","0","0","28","0","1","0.0208333333333","17.1302083333","4","3289","28","28","28","08/23/17 09:52:04","Default description","yes","<openexp._canvas.legacy.legacy object at 0x049227F0>","<openexp._canvas.legacy.legacy object at 0x0492D7B0>","<openexp._canvas.legacy.legacy object at 0x0491A370>","<openexp._canvas.legacy.legacy object at 0x04A109D0>","<openexp._canvas.legacy.legacy object at 0x049E14B0>","<openexp._canvas.legacy.legacy object at 0x0491A4D0>","<openexp._canvas.legacy.legacy object at 0x049E2A50>","75","IndividualPriorityWithDis_v1.osexp","C:/Userdata/Michel/SpatialProb/IndividualPriorityMaps/Experiment2","no","mono","no","18","no","white","no","yes","0.09","98","1050","legacy","315","3","3","1","C:/Userdata/Michel/SpatialProb/IndividualPriorityMaps/Experiment2/data/subject-16.csv","legacy","9","192","25","Jazzy James","3.1.3","yes","598477b2b83f69022949e7e9","47","green","rectangular","green","circular","0","/","1199","space","10190","10190","(80, 80, 80)","(0, 122, 0)","(179, 0, 0)","(155, 155, 155)","2","legacy","experiment","[7, 0, 1, 2, 3, 4, 5, 6]","/","2500","3000","0","8","252.758751519","1024","2","48000","-16","main","[(0, -252), (178, -178), (252, 0), (178, 178), (0, 252), (-178, 178), (-252, 0), (-178, -178)]","[]","16","even","6","156315","198891","198891","72994","71988","1600","93703","93703","1600","1600","83185","211976","1598","198891","210773","210008","210008","NA","759","study_X","0","10190","1","yes","1680"
"undefined","undefined","10190","10190","black","no","legacy","legacy","legacy","0","green","(0, 122, 0)","color","present","highProb","rectangular","same","same","swap","swap","red","(179, 0, 0)","lowProb","lowProb4","rectangular","uniform","1","undefined","0.0260416666667","1","1","20.4635416667","1","5","3929","0","0","0","0","0","0","0","0","29","0","1","0.0260416666667","20.4635416667","5","3929","29","29","29","08/23/17 09:52:04","Default description","yes","<openexp._canvas.legacy.legacy object at 0x049227F0>","<openexp._canvas.legacy.legacy object at 0x0492D7B0>","<openexp._canvas.legacy.legacy object at 0x0491A370>","<openexp._canvas.legacy.legacy object at 0x04A109D0>","<openexp._canvas.legacy.legacy object at 0x049E14B0>","<openexp._canvas.legacy.legacy object at 0x0491FF50>","<openexp._canvas.legacy.legacy object at 0x049E2A50>","75","IndividualPriorityWithDis_v1.osexp","C:/Userdata/Michel/SpatialProb/IndividualPriorityMaps/Experiment2","no","mono","no","18","no","white","no","yes","0.09","98","1050","legacy","45","4","4","1","C:/Userdata/Michel/SpatialProb/IndividualPriorityMaps/Experiment2/data/subject-16.csv","legacy","9","192","25","Jazzy James","3.1.3","yes","598477b2b83f69022949e7e9","47","green","rectangular","red","rectangular","0","\","640","space","10190","10190","(80, 80, 80)","(0, 122, 0)","(179, 0, 0)","(155, 155, 155)","2","legacy","experiment","[7, 0, 1, 2, 3, 4, 5, 6]","\","2500","3000","0","8","252.758751519","1024","2","48000","-16","main","[(0, -252), (178, -178), (252, 0), (178, 178), (0, 252), (-178, 178), (-252, 0), (-178, -178)]","[]","16","even","4","156315","198891","198891","72994","71988","1600","93703","93703","1600","1600","83185","213783","1598","198891","213141","212376","212376","NA","759","study_X","0","10190","1","yes","1680"
"undefined","undefined","10190","10190","black","no","legacy","legacy","legacy","0","green","(0, 122, 0)","shape","absent","lowProb2","rectangular","same","same","swap","same","green","(0, 122, 0)","lowProb","lowProb5","rectangular","uniform","1","undefined","0.03125","1","1","24.2447916667","1","6","4655","0","0","0","0","0","0","0","0","30","0","1","0.03125","24.2447916667","6","4655","30","30","30","08/23/17 09:52:04","Default description","yes","<openexp._canvas.legacy.legacy object at 0x049227F0>","<openexp._canvas.legacy.legacy object at 0x0492D7B0>","<openexp._canvas.legacy.legacy object at 0x0491A370>","<openexp._canvas.legacy.legacy object at 0x04A109D0>","<openexp._canvas.legacy.legacy object at 0x049E14B0>","<openexp._canvas.legacy.legacy object at 0x04A102B0>","<openexp._canvas.legacy.legacy object at 0x049E2A50>","75","IndividualPriorityWithDis_v1.osexp","C:/Userdata/Michel/SpatialProb/IndividualPriorityMaps/Experiment2","no","mono","no","18","no","white","no","yes","0.09","98","1050","legacy","45","5","5","1","C:/Userdata/Michel/SpatialProb/IndividualPriorityMaps/Experiment2/data/subject-16.csv","legacy","9","192","25","Jazzy James","3.1.3","yes","598477b2b83f69022949e7e9","47","green","rectangular","green","rectangular","0","\","726","space","10190","10190","(80, 80, 80)","(0, 122, 0)","(179, 0, 0)","(155, 155, 155)","2","legacy","experiment","[7, 0, 1, 2, 3, 4, 5, 6]","\","2500","3000","0","8","252.758751519","1024","2","48000","-16","main","[(0, -252), (178, -178), (252, 0), (178, 178), (0, 252), (-178, 178), (-252, 0), (-178, -178)]","[]","16","even","5","156315","198891","198891","72994","71988","1600","93703","93703","1600","1600","83185","215679","1598","198891","214950","214186","214186","NA","759","study_X","0","10190","1","yes","1680"
"undefined","undefined","10190","10190","black","no","legacy","legacy","legacy","0","green","(0, 122, 0)","color","absent","lowProb3","rectangular","same","same","same","same","green","(0, 122, 0)","lowProb","lowProb2","rectangular","uniform","1","undefined","0.0364583333333","1","1","29.328125","1","7","5631","0","0","0","0","0","0","0","0","31","0","1","0.0364583333333","29.328125","7","5631","31","31","31","08/23/17 09:52:04","Default description","yes","<openexp._canvas.legacy.legacy object at 0x049227F0>","<openexp._canvas.legacy.legacy object at 0x0492D7B0>","<openexp._canvas.legacy.legacy object at 0x0491A370>","<openexp._canvas.legacy.legacy object at 0x04A109D0>","<openexp._canvas.legacy.legacy object at 0x049E14B0>","<openexp._canvas.legacy.legacy object at 0x0491AED0>","<openexp._canvas.legacy.legacy object at 0x049E2A50>","75","IndividualPriorityWithDis_v1.osexp","C:/Userdata/Michel/SpatialProb/IndividualPriorityMaps/Experiment2","no","mono","no","18","no","white","no","yes","0.09","98","1050","legacy","315","6","6","1","C:/Userdata/Michel/SpatialProb/IndividualPriorityMaps/Experiment2/data/subject-16.csv","legacy","9","192","25","Jazzy James","3.1.3","yes","598477b2b83f69022949e7e9","47","green","rectangular","green","rectangular","0","/","976","space","10190","10190","(80, 80, 80)","(0, 122, 0)","(179, 0, 0)","(155, 155, 155)","2","legacy","experiment","[7, 0, 1, 2, 3, 4, 5, 6]","/","2500","3000","0","8","252.758751519","1024","2","48000","-16","main","[(0, -252), (178, -178), (252, 0), (178, 178), (0, 252), (-178, 178), (-252, 0), (-178, -178)]","[]","16","even","1","156315","198891","198891","72994","71988","1600","93703","93703","1600","1600","83185","217823","1598","198891","216844","216079","216079","NA","759","study_X","0","10190","1","yes","1680"
"undefined","undefined","10190","10190","black","no","legacy","legacy","legacy","0","green","(0, 122, 0)","color","present","highProb","circular","same","swap","swap","swap","red","(179, 0, 0)","highProbShape","highProbShape","circular","uniform","1","undefined","0.0416666666667","1","1","32.3697916667","1","8","6215","0","0","0","0","0","0","0","0","32","0","1","0.0416666666667","32.3697916667","8","6215","32","32","32","08/23/17 09:52:04","Default description","yes","<openexp._canvas.legacy.legacy object at 0x049227F0>","<openexp._canvas.legacy.legacy object at 0x0492D7B0>","<openexp._canvas.legacy.legacy object at 0x0491A370>","<openexp._canvas.legacy.legacy object at 0x04A109D0>","<openexp._canvas.legacy.legacy object at 0x049E14B0>","<openexp._canvas.legacy.legacy object at 0x0491E550>","<openexp._canvas.legacy.legacy object at 0x049E2A50>","75","IndividualPriorityWithDis_v1.osexp","C:/Userdata/Michel/SpatialProb/IndividualPriorityMaps/Experiment2","no","mono","no","18","no","white","no","yes","0.09","98","1050","legacy","315","7","7","1","C:/Userdata/Michel/SpatialProb/IndividualPriorityMaps/Experiment2/data/subject-16.csv","legacy","9","192","25","Jazzy James","3.1.3","yes","598477b2b83f69022949e7e9","47","green","circular","red","circular","0","/","584","space","10190","10190","(80, 80, 80)","(0, 122, 0)","(179, 0, 0)","(155, 155, 155)","2","legacy","experiment","[7, 0, 1, 2, 3, 4, 5, 6]","/","2500","3000","0","8","252.758751519","1024","2","48000","-16","main","[(0, -252), (178, -178), (252, 0), (178, 178), (0, 252), (-178, 178), (-252, 0), (-178, -178)]","[]","16","even","3","156315","198891","198891","72994","71988","1600","93703","93703","1600","1600","83185","219583","1598","198891","218996","218231","218231","NA","759","study_X","0","10190","1","yes","1680"
"undefined","undefined","10190","10190","black","no","legacy","legacy","legacy","0","red","(179, 0, 0)","color","present","highProb","circular","swap","same","swap","same","green","(0, 122, 0)","lowProb","lowProb2","circular","uniform","1","undefined","0.046875","1","1","40.328125","1","9","7743","0","0","0","0","0","0","0","0","33","0","1","0.046875","40.328125","9","7743","33","33","33","08/23/17 09:52:04","Default description","yes","<openexp._canvas.legacy.legacy object at 0x049227F0>","<openexp._canvas.legacy.legacy object at 0x0492D7B0>","<openexp._canvas.legacy.legacy object at 0x0491A370>","<openexp._canvas.legacy.legacy object at 0x04A109D0>","<openexp._canvas.legacy.legacy object at 0x049E14B0>","<openexp._canvas.legacy.legacy object at 0x04A10AB0>","<openexp._canvas.legacy.legacy object at 0x049E2A50>","75","IndividualPriorityWithDis_v1.osexp","C:/Userdata/Michel/SpatialProb/IndividualPriorityMaps/Experiment2","no","mono","no","18","no","white","no","yes","0.09","98","1050","legacy","45","8","8","1","C:/Userdata/Michel/SpatialProb/IndividualPriorityMaps/Experiment2/data/subject-16.csv","legacy","9","192","25","Jazzy James","3.1.3","yes","598477b2b83f69022949e7e9","47","red","circular","green","circular","0","\","1528","space","10190","10190","(80, 80, 80)","(0, 122, 0)","(179, 0, 0)","(155, 155, 155)","2","legacy","experiment","[7, 0, 1, 2, 3, 4, 5, 6]","\","2500","3000","0","8","252.758751519","1024","2","48000","-16","main","[(0, -252), (178, -178), (252, 0), (178, 178), (0, 252), (-178, 178), (-252, 0), (-178, -178)]","[]","16","even","1","156315","198891","198891","72994","71988","1600","93703","93703","1600","1600","83185","222288","1598","198891","220757","219992","219992","NA","759","study_X","0","10190","1","yes","1680"
"undefined","undefined","10190","10190","black","no","legacy","legacy","legacy","0","red","(179, 0, 0)","color","present","lowProb2","rectangular","same","swap","same","swap","green","(0, 122, 0)","lowProb","lowProb5","rectangular","uniform","1","undefined","0.0520833333333","1","1","44.046875","1","10","8457","0","0","0","0","0","0","0","0","34","0","1","0.0520833333333","44.046875","10","8457","34","34","34","08/23/17 09:52:04","Default description","yes","<openexp._canvas.legacy.legacy object at 0x049227F0>","<openexp._canvas.legacy.legacy object at 0x0492D7B0>","<openexp._canvas.legacy.legacy object at 0x0491A370>","<openexp._canvas.legacy.legacy object at 0x04A109D0>","<openexp._canvas.legacy.legacy object at 0x049E14B0>","<openexp._canvas.legacy.legacy object at 0x04A10250>","<openexp._canvas.legacy.legacy object at 0x049E2A50>","75","IndividualPriorityWithDis_v1.osexp","C:/Userdata/Michel/SpatialProb/IndividualPriorityMaps/Experiment2","no","mono","no","18","no","white","no","yes","0.09","98","1050","legacy","315","9","9","1","C:/Userdata/Michel/SpatialProb/IndividualPriorityMaps/Experiment2/data/subject-16.csv","legacy","9","192","25","Jazzy James","3.1.3","yes","598477b2b83f69022949e7e9","47","red","rectangular","green","rectangular","0","/","714","space","10190","10190","(80, 80, 80)","(0, 122, 0)","(179, 0, 0)","(155, 155, 155)","2","legacy","experiment","[7, 0, 1, 2, 3, 4, 5, 6]","/","2500","3000","0","8","252.758751519","1024","2","48000","-16","main","[(0, -252), (178, -178), (252, 0), (178, 178), (0, 252), (-178, 178), (-252, 0), (-178, -178)]","[]","16","even","5","156315","198891","198891","72994","71988","1600","93703","93703","1600","1600","83185","224168","1598","198891","223451","222686","222686","NA","759","study_X","0","10190","1","yes","1680"
"undefined","undefined","10190","10190","black","no","legacy","legacy","legacy","0","green","(0, 122, 0)","color","present","highProb","circular","swap","swap","swap","swap","red","(179, 0, 0)","lowProb","lowProb4","circular","uniform","1","undefined","0.0572916666667","1","1","47.375","1","11","9096","0","0","0","0","0","0","0","0","35","0","1","0.0572916666667","47.375","11","9096","35","35","35","08/23/17 09:52:04","Default description","yes","<openexp._canvas.legacy.legacy object at 0x049227F0>","<openexp._canvas.legacy.legacy object at 0x0492D7B0>","<openexp._canvas.legacy.legacy object at 0x0491A370>","<openexp._canvas.legacy.legacy object at 0x04A109D0>","<openexp._canvas.legacy.legacy object at 0x049E14B0>","<openexp._canvas.legacy.legacy object at 0x0491A790>","<openexp._canvas.legacy.legacy object at 0x049E2A50>","75","IndividualPriorityWithDis_v1.osexp","C:/Userdata/Michel/SpatialProb/IndividualPriorityMaps/Experiment2","no","mono","no","18","no","white","no","yes","0.09","98","1050","legacy","45","10","10","1","C:/Userdata/Michel/SpatialProb/IndividualPriorityMaps/Experiment2/data/subject-16.csv","legacy","9","192","25","Jazzy James","3.1.3","yes","598477b2b83f69022949e7e9","47","green","circular","red","circular","0","\","639","space","10190","10190","(80, 80, 80)","(0, 122, 0)","(179, 0, 0)","(155, 155, 155)","2","legacy","experiment","[7, 0, 1, 2, 3, 4, 5, 6]","\","2500","3000","0","8","252.758751519","1024","2","48000","-16","main","[(0, -252), (178, -178), (252, 0), (178, 178), (0, 252), (-178, 178), (-252, 0), (-178, -178)]","[]","16","even","4","156315","198891","198891","72994","71988","1600","93703","93703","1600","1600","83185","225984","1598","198891","225341","224577","224577","NA","759","study_X","0","10190","1","yes","1680"
"undefined","undefined","10190","10190","black","no","legacy","legacy","legacy","0","red","(179, 0, 0)","shape","absent","lowProb2","rectangular","swap","swap","same","swap","red","(179, 0, 0)","lowProb","lowProb2","rectangular","uniform","1","undefined","0.0625","1","1","52.2291666667","1","12","10028","0","0","0","0","0","0","0","0","36","0","1","0.0625","52.2291666667","12","10028","36","36","36","08/23/17 09:52:04","Default description","yes","<openexp._canvas.legacy.legacy object at 0x049227F0>","<openexp._canvas.legacy.legacy object at 0x0492D7B0>","<openexp._canvas.legacy.legacy object at 0x0491A370>","<openexp._canvas.legacy.legacy object at 0x04A109D0>","<openexp._canvas.legacy.legacy object at 0x049E14B0>","<openexp._canvas.legacy.legacy object at 0x0491AC90>","<openexp._canvas.legacy.legacy object at 0x049E2A50>","75","IndividualPriorityWithDis_v1.osexp","C:/Userdata/Michel/SpatialProb/IndividualPriorityMaps/Experiment2","no","mono","no","18","no","white","no","yes","0.09","98","1050","legacy","45","11","11","1","C:/Userdata/Michel/SpatialProb/IndividualPriorityMaps/Experiment2/data/subject-16.csv","legacy","9","192","25","Jazzy James","3.1.3","yes","598477b2b83f69022949e7e9","47","red","rectangular","red","rectangular","0","\","932","space","10190","10190","(80, 80, 80)","(0, 122, 0)","(179, 0, 0)","(155, 155, 155)","2","legacy","experiment","[7, 0, 1, 2, 3, 4, 5, 6]","\","2500","3000","0","8","252.758751519","1024","2","48000","-16","main","[(0, -252), (178, -178), (252, 0), (178, 178), (0, 252), (-178, 178), (-252, 0), (-178, -178)]","[]","16","even","1","156315","198891","198891","72994","71988","1600","93703","93703","1600","1600","83185","228080","1598","198891","227144","226379","226379","NA","759","study_X","0","10190","1","yes","1680"
"undefined","undefined","10190","10190","black","no","legacy","legacy","legacy","0","green","(0, 122, 0)","color","absent","lowProb4","circular","swap","swap","swap","swap","green","(0, 122, 0)","highProbColor","highProbColor","circular","uniform","1","undefined","0.0677083333333","1","1","58.0885416667","1","13","11153","0","0","0","0","0","0","0","0","37","0","1","0.0677083333333","58.0885416667","13","11153","37","37","37","08/23/17 09:52:04","Default description","yes","<openexp._canvas.legacy.legacy object at 0x049227F0>","<openexp._canvas.legacy.legacy object at 0x0492D7B0>","<openexp._canvas.legacy.legacy object at 0x0491A370>","<openexp._canvas.legacy.legacy object at 0x04A109D0>","<openexp._canvas.legacy.legacy object at 0x049E14B0>","<openexp._canvas.legacy.legacy object at 0x04A108B0>","<openexp._canvas.legacy.legacy object at 0x049E2A50>","75","IndividualPriorityWithDis_v1.osexp","C:/Userdata/Michel/SpatialProb/IndividualPriorityMaps/Experiment2","no","mono","no","18","no","white","no","yes","0.09","98","1050","legacy","315","12","12","1","C:/Userdata/Michel/SpatialProb/IndividualPriorityMaps/Experiment2/data/subject-16.csv","legacy","9","192","25","Jazzy James","3.1.3","yes","598477b2b83f69022949e7e9","47","green","circular","green","circular","0","/","1125","space","10190","10190","(80, 80, 80)","(0, 122, 0)","(179, 0, 0)","(155, 155, 155)","2","legacy","experiment","[7, 0, 1, 2, 3, 4, 5, 6]","/","2500","3000","0","8","252.758751519","1024","2","48000","-16","main","[(0, -252), (178, -178), (252, 0), (178, 178), (0, 252), (-178, 178), (-252, 0), (-178, -178)]","[]","16","even","7","156315","198891","198891","72994","71988","1600","93703","93703","1600","1600","83185","230375","1598","198891","229247","228482","228482","NA","759","study_X","0","10190","1","yes","1680"
"undefined","undefined","10190","10190","black","no","legacy","legacy","legacy","0","red","(179, 0, 0)","color","present","highProb","circular","swap","same","same","same","green","(0, 122, 0)","lowProb","lowProb2","circular","uniform","1","undefined","0.0729166666667","1","1","63.6614583333","1","14","12223","0","0","0","0","0","0","0","0","38","0","1","0.0729166666667","63.6614583333","14","12223","38","38","38","08/23/17 09:52:04","Default description","yes","<openexp._canvas.legacy.legacy object at 0x049227F0>","<openexp._canvas.legacy.legacy object at 0x0492D7B0>","<openexp._canvas.legacy.legacy object at 0x0491A370>","<openexp._canvas.legacy.legacy object at 0x04A109D0>","<openexp._canvas.legacy.legacy object at 0x049E14B0>","<openexp._canvas.legacy.legacy object at 0x0492DCF0>","<openexp._canvas.legacy.legacy object at 0x049E2A50>","75","IndividualPriorityWithDis_v1.osexp","C:/Userdata/Michel/SpatialProb/IndividualPriorityMaps/Experiment2","no","mono","no","18","no","white","no","yes","0.09","98","1050","legacy","315","13","13","1","C:/Userdata/Michel/SpatialProb/IndividualPriorityMaps/Experiment2/data/subject-16.csv","legacy","9","192","25","Jazzy James","3.1.3","yes","598477b2b83f69022949e7e9","47","red","circular","green","circular","0","/","1070","space","10190","10190","(80, 80, 80)","(0, 122, 0)","(179, 0, 0)","(155, 155, 155)","2","legacy","experiment","[7, 0, 1, 2, 3, 4, 5, 6]","/","2500","3000","0","8","252.758751519","1024","2","48000","-16","main","[(0, -252), (178, -178), (252, 0), (178, 178), (0, 252), (-178, 178), (-252, 0), (-178, -178)]","[]","16","even","1","156315","198891","198891","72994","71988","1600","93703","93703","1600","1600","83185","232639","1598","198891","231567","230802","230802","NA","759","study_X","0","10190","1","yes","1680"
"undefined","undefined","10190","10190","black","no","legacy","legacy","legacy","0","green","(0, 122, 0)","shape","present","highProb","circular","swap","same","same","swap","green","(0, 122, 0)","highProbColor","highProbColor","rectangular","uniform","1","undefined","0.078125","1","1","67.5","1","15","12960","0","0","0","0","0","0","0","0","39","0","1","0.078125","67.5","15","12960","39","39","39","08/23/17 09:52:04","Default description","yes","<openexp._canvas.legacy.legacy object at 0x049227F0>","<openexp._canvas.legacy.legacy object at 0x0492D7B0>","<openexp._canvas.legacy.legacy object at 0x0491A370>","<openexp._canvas.legacy.legacy object at 0x04A109D0>","<openexp._canvas.legacy.legacy object at 0x049E14B0>","<openexp._canvas.legacy.legacy object at 0x04A0BB10>","<openexp._canvas.legacy.legacy object at 0x049E2A50>","75","IndividualPriorityWithDis_v1.osexp","C:/Userdata/Michel/SpatialProb/IndividualPriorityMaps/Experiment2","no","mono","no","18","no","white","no","yes","0.09","98","1050","legacy","45","14","14","1","C:/Userdata/Michel/SpatialProb/IndividualPriorityMaps/Experiment2/data/subject-16.csv","legacy","9","192","25","Jazzy James","3.1.3","yes","598477b2b83f69022949e7e9","47","green","circular","green","rectangular","0","\","737","space","10190","10190","(80, 80, 80)","(0, 122, 0)","(179, 0, 0)","(155, 155, 155)","2","legacy","experiment","[7, 0, 1, 2, 3, 4, 5, 6]","\","2500","3000","0","8","252.758751519","1024","2","48000","-16","main","[(0, -252), (178, -178), (252, 0), (178, 178), (0, 252), (-178, 178), (-252, 0), (-178, -178)]","[]","16","even","7","156315","198891","198891","72994","71988","1600","93703","93703","1600","1600","83185","234543","1598","198891","233803","233038","233038","NA","759","study_X","0","10190","1","yes","1680"
"undefined","undefined","10190","10190","black","no","legacy","legacy","legacy","0","red","(179, 0, 0)","shape","present","lowProb3","circular","swap","same","swap","same","red","(179, 0, 0)","highProbColor","highProbColor","rectangular","uniform","1","undefined","0.0833333333333","1","1","70.8697916667","1","16","13607","0","0","0","0","0","0","0","0","40","0","1","0.0833333333333","70.8697916667","16","13607","40","40","40","08/23/17 09:52:04","Default description","yes","<openexp._canvas.legacy.legacy object at 0x049227F0>","<openexp._canvas.legacy.legacy object at 0x0492D7B0>","<openexp._canvas.legacy.legacy object at 0x0491A370>","<openexp._canvas.legacy.legacy object at 0x04A109D0>","<openexp._canvas.legacy.legacy object at 0x049E14B0>","<openexp._canvas.legacy.legacy object at 0x0491ECF0>","<openexp._canvas.legacy.legacy object at 0x049E2A50>","75","IndividualPriorityWithDis_v1.osexp","C:/Userdata/Michel/SpatialProb/IndividualPriorityMaps/Experiment2","no","mono","no","18","no","white","no","yes","0.09","98","1050","legacy","45","15","15","1","C:/Userdata/Michel/SpatialProb/IndividualPriorityMaps/Experiment2/data/subject-16.csv","legacy","9","192","25","Jazzy James","3.1.3","yes","598477b2b83f69022949e7e9","47","red","circular","red","rectangular","0","\","647","space","10190","10190","(80, 80, 80)","(0, 122, 0)","(179, 0, 0)","(155, 155, 155)","2","legacy","experiment","[7, 0, 1, 2, 3, 4, 5, 6]","\","2500","3000","0","8","252.758751519","1024","2","48000","-16","main","[(0, -252), (178, -178), (252, 0), (178, 178), (0, 252), (-178, 178), (-252, 0), (-178, -178)]","[]","16","even","7","156315","198891","198891","72994","71988","1600","93703","93703","1600","1600","83185","236359","1598","198891","235709","234944","234944","NA","759","study_X","0","10190","1","yes","1680"
"undefined","undefined","10190","10190","black","no","legacy","legacy","legacy","0","red","(179, 0, 0)","shape","present","highProb","circular","same","same","same","same","red","(179, 0, 0)","lowProb","lowProb5","rectangular","uniform","1","undefined","0.0885416666667","1","1","75.46875","1","17","14490","0","0","0","0","0","0","0","0","41","0","1","0.0885416666667","75.46875","17","14490","41","41","41","08/23/17 09:52:04","Default description","yes","<openexp._canvas.legacy.legacy object at 0x049227F0>","<openexp._canvas.legacy.legacy object at 0x0492D7B0>","<openexp._canvas.legacy.legacy object at 0x0491A370>","<openexp._canvas.legacy.legacy object at 0x04A109D0>","<openexp._canvas.legacy.legacy object at 0x049E14B0>","<openexp._canvas.legacy.legacy object at 0x0491E490>","<openexp._canvas.legacy.legacy object at 0x049E2A50>","75","IndividualPriorityWithDis_v1.osexp","C:/Userdata/Michel/SpatialProb/IndividualPriorityMaps/Experiment2","no","mono","no","18","no","white","no","yes","0.09","98","1050","legacy","45","16","16","1","C:/Userdata/Michel/SpatialProb/IndividualPriorityMaps/Experiment2/data/subject-16.csv","legacy","9","192","25","Jazzy James","3.1.3","yes","598477b2b83f69022949e7e9","47","red","circular","red","rectangular","0","\","883","space","10190","10190","(80, 80, 80)","(0, 122, 0)","(179, 0, 0)","(155, 155, 155)","2","legacy","experiment","[7, 0, 1, 2, 3, 4, 5, 6]","\","2500","3000","0","8","252.758751519","1024","2","48000","-16","main","[(0, -252), (178, -178), (252, 0), (178, 178), (0, 252), (-178, 178), (-252, 0), (-178, -178)]","[]","16","even","5","156315","198891","198891","72994","71988","1600","93703","93703","1600","1600","83185","238408","1598","198891","237522","236757","236757","NA","759","study_X","0","10190","1","yes","1680"
"undefined","undefined","10190","10190","black","no","legacy","legacy","legacy","0","green","(0, 122, 0)","color","present","highProb","circular","swap","same","same","swap","red","(179, 0, 0)","lowProb","lowProb2","circular","uniform","1","undefined","0.09375","1","1","79.6197916667","1","18","15287","0","0","0","0","0","0","0","0","42","0","1","0.09375","79.6197916667","18","15287","42","42","42","08/23/17 09:52:04","Default description","yes","<openexp._canvas.legacy.legacy object at 0x049227F0>","<openexp._canvas.legacy.legacy object at 0x0492D7B0>","<openexp._canvas.legacy.legacy object at 0x0491A370>","<openexp._canvas.legacy.legacy object at 0x04A109D0>","<openexp._canvas.legacy.legacy object at 0x049E14B0>","<openexp._canvas.legacy.legacy object at 0x0492D930>","<openexp._canvas.legacy.legacy object at 0x049E2A50>","75","IndividualPriorityWithDis_v1.osexp","C:/Userdata/Michel/SpatialProb/IndividualPriorityMaps/Experiment2","no","mono","no","18","no","white","no","yes","0.09","98","1050","legacy","315","17","17","1","C:/Userdata/Michel/SpatialProb/IndividualPriorityMaps/Experiment2/data/subject-16.csv","legacy","9","192","25","Jazzy James","3.1.3","yes","598477b2b83f69022949e7e9","47","green","circular","red","circular","0","/","797","space","10190","10190","(80, 80, 80)","(0, 122, 0)","(179, 0, 0)","(155, 155, 155)","2","legacy","experiment","[7, 0, 1, 2, 3, 4, 5, 6]","/","2500","3000","0","8","252.758751519","1024","2","48000","-16","main","[(0, -252), (178, -178), (252, 0), (178, 178), (0, 252), (-178, 178), (-252, 0), (-178, -178)]","[]","16","even","1","156315","198891","198891","72994","71988","1600","93703","93703","1600","1600","83185","240400","1598","198891","239599","238834","238834","NA","759","study_X","0","10190","1","yes","1680"
"undefined","undefined","10190","10190","black","no","legacy","legacy","legacy","0","green","(0, 122, 0)","shape","present","highProb","rectangular","same","swap","swap","same","green","(0, 122, 0)","lowProb","lowProb6","circular","uniform","1","undefined","0.0989583333333","1","1","83.3125","1","19","15996","0","0","0","0","0","0","0","0","43","0","1","0.0989583333333","83.3125","19","15996","43","43","43","08/23/17 09:52:04","Default description","yes","<openexp._canvas.legacy.legacy object at 0x049227F0>","<openexp._canvas.legacy.legacy object at 0x0492D7B0>","<openexp._canvas.legacy.legacy object at 0x0491A370>","<openexp._canvas.legacy.legacy object at 0x04A109D0>","<openexp._canvas.legacy.legacy object at 0x049E14B0>","<openexp._canvas.legacy.legacy object at 0x04932650>","<openexp._canvas.legacy.legacy object at 0x049E2A50>","75","IndividualPriorityWithDis_v1.osexp","C:/Userdata/Michel/SpatialProb/IndividualPriorityMaps/Experiment2","no","mono","no","18","no","white","no","yes","0.09","98","1050","legacy","45","18","18","1","C:/Userdata/Michel/SpatialProb/IndividualPriorityMaps/Experiment2/data/subject-16.csv","legacy","9","192","25","Jazzy James","3.1.3","yes","598477b2b83f69022949e7e9","47","green","rectangular","green","circular","0","\","709","space","10190","10190","(80, 80, 80)","(0, 122, 0)","(179, 0, 0)","(155, 155, 155)","2","legacy","experiment","[7, 0, 1, 2, 3, 4, 5, 6]","\","2500","3000","0","8","252.758751519","1024","2","48000","-16","main","[(0, -252), (178, -178), (252, 0), (178, 178), (0, 252), (-178, 178), (-252, 0), (-178, -178)]","[]","16","even","6","156315","198891","198891","72994","71988","1600","93703","93703","1600","1600","83185","242288","1598","198891","241576","240811","240811","NA","759","study_X","0","10190","1","yes","1680"
"undefined","undefined","10190","10190","black","no","legacy","legacy","legacy","0","green","(0, 122, 0)","color","present","highProb","circular","same","swap","swap","same","red","(179, 0, 0)","lowProb","lowProb4","circular","uniform","1","undefined","0.104166666667","1","1","86.0520833333","1","20","16522","0","0","0","0","0","0","0","0","44","0","1","0.104166666667","86.0520833333","20","16522","44","44","44","08/23/17 09:52:04","Default description","yes","<openexp._canvas.legacy.legacy object at 0x049227F0>","<openexp._canvas.legacy.legacy object at 0x0492D7B0>","<openexp._canvas.legacy.legacy object at 0x0491A370>","<openexp._canvas.legacy.legacy object at 0x04A109D0>","<openexp._canvas.legacy.legacy object at 0x049E14B0>","<openexp._canvas.legacy.legacy object at 0x0491AF50>","<openexp._canvas.legacy.legacy object at 0x049E2A50>","75","IndividualPriorityWithDis_v1.osexp","C:/Userdata/Michel/SpatialProb/IndividualPriorityMaps/Experiment2","no","mono","no","18","no","white","no","yes","0.09","98","1050","legacy","315","19","19","1","C:/Userdata/Michel/SpatialProb/IndividualPriorityMaps/Experiment2/data/subject-16.csv","legacy","9","192","25","Jazzy James","3.1.3","yes","598477b2b83f69022949e7e9","47","green","circular","red","circular","0","/","526","space","10190","10190","(80, 80, 80)","(0, 122, 0)","(179, 0, 0)","(155, 155, 155)","2","legacy","experiment","[7, 0, 1, 2, 3, 4, 5, 6]","/","2500","3000","0","8","252.758751519","1024","2","48000","-16","main","[(0, -252), (178, -178), (252, 0), (178, 178), (0, 252), (-178, 178), (-252, 0), (-178, -178)]","[]","16","even","4","156315","198891","198891","72994","71988","1600","93703","93703","1600","1600","83185","244008","1598","198891","243478","242713","242713","NA","759","study_X","0","10190","1","yes","1680"
"undefined","undefined","10190","10190","black","no","legacy","legacy","legacy","0","green","(0, 122, 0)","shape","present","highProbOther","rectangular","same","swap","swap","same","green","(0, 122, 0)","highProbShape","highProbShape","circular","uniform","1","undefined","0.109375","1","1","89.3541666667","1","21","17156","0","0","0","0","0","0","0","0","45","0","1","0.109375","89.3541666667","21","17156","45","45","45","08/23/17 09:52:04","Default description","yes","<openexp._canvas.legacy.legacy object at 0x049227F0>","<openexp._canvas.legacy.legacy object at 0x0492D7B0>","<openexp._canvas.legacy.legacy object at 0x0491A370>","<openexp._canvas.legacy.legacy object at 0x04A109D0>","<openexp._canvas.legacy.legacy object at 0x049E14B0>","<openexp._canvas.legacy.legacy object at 0x0491E130>","<openexp._canvas.legacy.legacy object at 0x049E2A50>","75","IndividualPriorityWithDis_v1.osexp","C:/Userdata/Michel/SpatialProb/IndividualPriorityMaps/Experiment2","no","mono","no","18","no","white","no","yes","0.09","98","1050","legacy","315","20","20","1","C:/Userdata/Michel/SpatialProb/IndividualPriorityMaps/Experiment2/data/subject-16.csv","legacy","9","192","25","Jazzy James","3.1.3","yes","598477b2b83f69022949e7e9","47","green","rectangular","green","circular","0","/","634","space","10190","10190","(80, 80, 80)","(0, 122, 0)","(179, 0, 0)","(155, 155, 155)","2","legacy","experiment","[7, 0, 1, 2, 3, 4, 5, 6]","/","2500","3000","0","8","252.758751519","1024","2","48000","-16","main","[(0, -252), (178, -178), (252, 0), (178, 178), (0, 252), (-178, 178), (-252, 0), (-178, -178)]","[]","16","even","3","156315","198891","198891","72994","71988","1600","93703","93703","1600","1600","83185","245815","1598","198891","245178","244413","244413","NA","759","study_X","0","10190","1","yes","1680"
"undefined","undefined","10190","10190","black","no","legacy","legacy","legacy","0","red","(179, 0, 0)","color","absent","lowProb2","rectangular","swap","same","swap","swap","red","(179, 0, 0)","lowProb","lowProb1","rectangular","uniform","1","undefined","0.114583333333","1","1","93.8125","1","22","18012","0","0","0","0","0","0","0","0","46","0","1","0.114583333333","93.8125","22","18012","46","46","46","08/23/17 09:52:04","Default description","yes","<openexp._canvas.legacy.legacy object at 0x049227F0>","<openexp._canvas.legacy.legacy object at 0x0492D7B0>","<openexp._canvas.legacy.legacy object at 0x0491A370>","<openexp._canvas.legacy.legacy object at 0x04A109D0>","<openexp._canvas.legacy.legacy object at 0x049E14B0>","<openexp._canvas.legacy.legacy object at 0x0492D3F0>","<openexp._canvas.legacy.legacy object at 0x049E2A50>","75","IndividualPriorityWithDis_v1.osexp","C:/Userdata/Michel/SpatialProb/IndividualPriorityMaps/Experiment2","no","mono","no","18","no","white","no","yes","0.09","98","1050","legacy","315","21","21","1","C:/Userdata/Michel/SpatialProb/IndividualPriorityMaps/Experiment2/data/subject-16.csv","legacy","9","192","25","Jazzy James","3.1.3","yes","598477b2b83f69022949e7e9","47","red","rectangular","red","rectangular","0","/","856","space","10190","10190","(80, 80, 80)","(0, 122, 0)","(179, 0, 0)","(155, 155, 155)","2","legacy","experiment","[7, 0, 1, 2, 3, 4, 5, 6]","/","2500","3000","0","8","252.758751519","1024","2","48000","-16","main","[(0, -252), (178, -178), (252, 0), (178, 178), (0, 252), (-178, 178), (-252, 0), (-178, -178)]","[]","16","even","0","156315","198891","198891","72994","71988","1600","93703","93703","1600","1600","83185","247839","1598","198891","246981","246216","246216","NA","759","study_X","0","10190","1","yes","1680"
"undefined","undefined","10190","10190","black","no","legacy","legacy","legacy","0","red","(179, 0, 0)","shape","present","highProb","rectangular","same","same","same","swap","red","(179, 0, 0)","lowProb","lowProb4","circular","uniform","1","undefined","0.119791666667","1","1","96.9166666667","1","23","18608","0","0","0","0","0","0","0","0","47","0","1","0.119791666667","96.9166666667","23","18608","47","47","47","08/23/17 09:52:04","Default description","yes","<openexp._canvas.legacy.legacy object at 0x049227F0>","<openexp._canvas.legacy.legacy object at 0x0492D7B0>","<openexp._canvas.legacy.legacy object at 0x0491A370>","<openexp._canvas.legacy.legacy object at 0x04A109D0>","<openexp._canvas.legacy.legacy object at 0x049E14B0>","<openexp._canvas.legacy.legacy object at 0x04A102D0>","<openexp._canvas.legacy.legacy object at 0x049E2A50>","75","IndividualPriorityWithDis_v1.osexp","C:/Userdata/Michel/SpatialProb/IndividualPriorityMaps/Experiment2","no","mono","no","18","no","white","no","yes","0.09","98","1050","legacy","315","22","22","1","C:/Userdata/Michel/SpatialProb/IndividualPriorityMaps/Experiment2/data/subject-16.csv","legacy","9","192","25","Jazzy James","3.1.3","yes","598477b2b83f69022949e7e9","47","red","rectangular","red","circular","0","/","596","space","10190","10190","(80, 80, 80)","(0, 122, 0)","(179, 0, 0)","(155, 155, 155)","2","legacy","experiment","[7, 0, 1, 2, 3, 4, 5, 6]","/","2500","3000","0","8","252.758751519","1024","2","48000","-16","main","[(0, -252), (178, -178), (252, 0), (178, 178), (0, 252), (-178, 178), (-252, 0), (-178, -178)]","[]","16","even","4","156315","198891","198891","72994","71988","1600","93703","93703","1600","1600","83185","249607","1598","198891","249008","248243","248243","NA","759","study_X","0","10190","1","yes","1680"
"undefined","undefined","10190","10190","black","no","legacy","legacy","legacy","0","green","(0, 122, 0)","shape","present","highProb","circular","swap","swap","swap","swap","green","(0, 122, 0)","highProbColor","highProbColor","rectangular","uniform","1","undefined","0.125","1","1","103.729166667","1","24","19916","0","0","0","0","0","0","0","0","48","0","1","0.125","103.729166667","24","19916","48","48","48","08/23/17 09:52:04","Default description","yes","<openexp._canvas.legacy.legacy object at 0x049227F0>","<openexp._canvas.legacy.legacy object at 0x0492D7B0>","<openexp._canvas.legacy.legacy object at 0x0491A370>","<openexp._canvas.legacy.legacy object at 0x04A109D0>","<openexp._canvas.legacy.legacy object at 0x049E14B0>","<openexp._canvas.legacy.legacy object at 0x04A0BFD0>","<openexp._canvas.legacy.legacy object at 0x049E2A50>","75","IndividualPriorityWithDis_v1.osexp","C:/Userdata/Michel/SpatialProb/IndividualPriorityMaps/Experiment2","no","mono","no","18","no","white","no","yes","0.09","98","1050","legacy","45","23","23","1","C:/Userdata/Michel/SpatialProb/IndividualPriorityMaps/Experiment2/data/subject-16.csv","legacy","9","192","25","Jazzy James","3.1.3","yes","598477b2b83f69022949e7e9","47","green","circular","green","rectangular","0","\","1308","space","10190","10190","(80, 80, 80)","(0, 122, 0)","(179, 0, 0)","(155, 155, 155)","2","legacy","experiment","[7, 0, 1, 2, 3, 4, 5, 6]","\","2500","3000","0","8","252.758751519","1024","2","48000","-16","main","[(0, -252), (178, -178), (252, 0), (178, 178), (0, 252), (-178, 178), (-252, 0), (-178, -178)]","[]","16","even","7","156315","198891","198891","72994","71988","1600","93703","93703","1600","1600","83185","252079","1598","198891","250768","250003","250003","NA","759","study_X","0","10190","1","yes","1680"
"undefined","undefined","10190","10190","black","no","legacy","legacy","legacy","0","green","(0, 122, 0)","color","present","highProb","rectangular","same","swap","swap","same","red","(179, 0, 0)","lowProb","lowProb5","rectangular","uniform","1","undefined","0.130208333333","1","1","107.989583333","1","25","20734","0","0","0","0","0","0","0","0","49","0","1","0.130208333333","107.989583333","25","20734","49","49","49","08/23/17 09:52:04","Default description","yes","<openexp._canvas.legacy.legacy object at 0x049227F0>","<openexp._canvas.legacy.legacy object at 0x0492D7B0>","<openexp._canvas.legacy.legacy object at 0x0491A370>","<openexp._canvas.legacy.legacy object at 0x04A109D0>","<openexp._canvas.legacy.legacy object at 0x049E14B0>","<openexp._canvas.legacy.legacy object at 0x04929DD0>","<openexp._canvas.legacy.legacy object at 0x049E2A50>","75","IndividualPriorityWithDis_v1.osexp","C:/Userdata/Michel/SpatialProb/IndividualPriorityMaps/Experiment2","no","mono","no","18","no","white","no","yes","0.09","98","1050","legacy","315","24","24","1","C:/Userdata/Michel/SpatialProb/IndividualPriorityMaps/Experiment2/data/subject-16.csv","legacy","9","192","25","Jazzy James","3.1.3","yes","598477b2b83f69022949e7e9","47","green","rectangular","red","rectangular","0","/","818","space","10190","10190","(80, 80, 80)","(0, 122, 0)","(179, 0, 0)","(155, 155, 155)","2","legacy","experiment","[7, 0, 1, 2, 3, 4, 5, 6]","/","2500","3000","0","8","252.758751519","1024","2","48000","-16","main","[(0, -252), (178, -178), (252, 0), (178, 178), (0, 252), (-178, 178), (-252, 0), (-178, -178)]","[]","16","even","5","156315","198891","198891","72994","71988","1600","93703","93703","1600","1600","83185","254119","1598","198891","253298","252534","252534","NA","759","study_X","0","10190","1","yes","1680"
"undefined","undefined","10190","10190","black","no","legacy","legacy","legacy","0","red","(179, 0, 0)","shape","present","highProb","rectangular","swap","same","same","swap","red","(179, 0, 0)","lowProb","lowProb4","circular","uniform","1","undefined","0.135416666667","1","1","111.145833333","1","26","21340","0","0","0","0","0","0","0","0","50","0","1","0.135416666667","111.145833333","26","21340","50","50","50","08/23/17 09:52:04","Default description","yes","<openexp._canvas.legacy.legacy object at 0x049227F0>","<openexp._canvas.legacy.legacy object at 0x0492D7B0>","<openexp._canvas.legacy.legacy object at 0x0491A370>","<openexp._canvas.legacy.legacy object at 0x04A109D0>","<openexp._canvas.legacy.legacy object at 0x049E14B0>","<openexp._canvas.legacy.legacy object at 0x04A107D0>","<openexp._canvas.legacy.legacy object at 0x049E2A50>","75","IndividualPriorityWithDis_v1.osexp","C:/Userdata/Michel/SpatialProb/IndividualPriorityMaps/Experiment2","no","mono","no","18","no","white","no","yes","0.09","98","1050","legacy","45","25","25","1","C:/Userdata/Michel/SpatialProb/IndividualPriorityMaps/Experiment2/data/subject-16.csv","legacy","9","192","25","Jazzy James","3.1.3","yes","598477b2b83f69022949e7e9","47","red","rectangular","red","circular","0","\","606","space","10190","10190","(80, 80, 80)","(0, 122, 0)","(179, 0, 0)","(155, 155, 155)","2","legacy","experiment","[7, 0, 1, 2, 3, 4, 5, 6]","\","2500","3000","0","8","252.758751519","1024","2","48000","-16","main","[(0, -252), (178, -178), (252, 0), (178, 178), (0, 252), (-178, 178), (-252, 0), (-178, -178)]","[]","16","even","4","156315","198891","198891","72994","71988","1600","93703","93703","1600","1600","83185","255896","1598","198891","255286","254521","254521","NA","759","study_X","0","10190","1","yes","1680"
"undefined","undefined","10190","10190","black","no","legacy","legacy","legacy","0","green","(0, 122, 0)","shape","present","lowProb5","rectangular","swap","same","swap","same","green","(0, 122, 0)","lowProb","lowProb3","circular","uniform","0","undefined","0.135416666667","1","1","119.541666667","1","26","22952","0","0","0","0","0","0","0","0","51","0","1","0.135416666667","119.541666667","26","22952","51","51","51","08/23/17 09:52:04","Default description","yes","<openexp._canvas.legacy.legacy object at 0x049227F0>","<openexp._canvas.legacy.legacy object at 0x0492D7B0>","<openexp._canvas.legacy.legacy object at 0x0491A370>","<openexp._canvas.legacy.legacy object at 0x04A109D0>","<openexp._canvas.legacy.legacy object at 0x049E14B0>","<openexp._canvas.legacy.legacy object at 0x0491EA30>","<openexp._canvas.legacy.legacy object at 0x049E2A50>","75","IndividualPriorityWithDis_v1.osexp","C:/Userdata/Michel/SpatialProb/IndividualPriorityMaps/Experiment2","no","mono","no","18","no","white","no","yes","0.09","98","1050","legacy","315","26","26","1","C:/Userdata/Michel/SpatialProb/IndividualPriorityMaps/Experiment2/data/subject-16.csv","legacy","9","192","25","Jazzy James","3.1.3","yes","598477b2b83f69022949e7e9","47","green","rectangular","green","circular","0","\","1612","space","10190","10190","(80, 80, 80)","(0, 122, 0)","(179, 0, 0)","(155, 155, 155)","2","legacy","experiment","[7, 0, 1, 2, 3, 4, 5, 6]","/","2500","3000","0","8","252.758751519","1024","2","48000","-16","main","[(0, -252), (178, -178), (252, 0), (178, 178), (0, 252), (-178, 178), (-252, 0), (-178, -178)]","[]","16","even","2","156315","198891","198891","72994","71988","1600","93703","93703","1600","1600","83185","258680","1598","198891","257064","256299","256299","NA","759","study_X","0","10190","1","yes","1680"
"undefined","undefined","10190","10190","black","no","legacy","legacy","legacy","0","red","(179, 0, 0)","shape","present","lowProb6","circular","swap","swap","swap","swap","red","(179, 0, 0)","lowProb","lowProb5","rectangular","uniform","1","undefined","0.140625","1","1","128.885416667","1","27","24746","0","0","0","0","0","0","0","0","52","0","1","0.140625","128.885416667","27","24746","52","52","52","08/23/17 09:52:04","Default description","yes","<openexp._canvas.legacy.legacy object at 0x049227F0>","<openexp._canvas.legacy.legacy object at 0x0492D7B0>","<openexp._canvas.legacy.legacy object at 0x0491A370>","<openexp._canvas.legacy.legacy object at 0x04A109D0>","<openexp._canvas.legacy.legacy object at 0x049E14B0>","<openexp._canvas.legacy.legacy object at 0x04A10850>","<openexp._canvas.legacy.legacy object at 0x049E2A50>","75","IndividualPriorityWithDis_v1.osexp","C:/Userdata/Michel/SpatialProb/IndividualPriorityMaps/Experiment2","no","mono","no","18","no","white","no","yes","0.09","98","1050","legacy","45","27","27","1","C:/Userdata/Michel/SpatialProb/IndividualPriorityMaps/Experiment2/data/subject-16.csv","legacy","9","192","25","Jazzy James","3.1.3","yes","598477b2b83f69022949e7e9","47","red","circular","red","rectangular","0","\","1794","space","10190","10190","(80, 80, 80)","(0, 122, 0)","(179, 0, 0)","(155, 155, 155)","2","legacy","experiment","[7, 0, 1, 2, 3, 4, 5, 6]","\","2500","3000","0","8","252.758751519","1024","2","48000","-16","main","[(0, -252), (178, -178), (252, 0), (178, 178), (0, 252), (-178, 178), (-252, 0), (-178, -178)]","[]","16","even","5","156315","198891","198891","72994","71988","1600","93703","93703","1600","1600","83185","261639","1598","198891","259842","259077","259078","NA","759","study_X","0","10190","1","yes","1680"
"undefined","undefined","10190","10190","black","no","legacy","legacy","legacy","0","green","(0, 122, 0)","shape","present","highProb","rectangular","swap","swap","swap","swap","green","(0, 122, 0)","lowProb","lowProb6","circular","uniform","1","undefined","0.145833333333","1","1","132.947916667","1","28","25526","0","0","0","0","0","0","0","0","53","0","1","0.145833333333","132.947916667","28","25526","53","53","53","08/23/17 09:52:04","Default description","yes","<openexp._canvas.legacy.legacy object at 0x049227F0>","<openexp._canvas.legacy.legacy object at 0x0492D7B0>","<openexp._canvas.legacy.legacy object at 0x0491A370>","<openexp._canvas.legacy.legacy object at 0x04A109D0>","<openexp._canvas.legacy.legacy object at 0x049E14B0>","<openexp._canvas.legacy.legacy object at 0x04A11910>","<openexp._canvas.legacy.legacy object at 0x049E2A50>","75","IndividualPriorityWithDis_v1.osexp","C:/Userdata/Michel/SpatialProb/IndividualPriorityMaps/Experiment2","no","mono","no","18","no","white","no","yes","0.09","98","1050","legacy","315","28","28","1","C:/Userdata/Michel/SpatialProb/IndividualPriorityMaps/Experiment2/data/subject-16.csv","legacy","9","192","25","Jazzy James","3.1.3","yes","598477b2b83f69022949e7e9","47","green","rectangular","green","circular","0","/","780","space","10190","10190","(80, 80, 80)","(0, 122, 0)","(179, 0, 0)","(155, 155, 155)","2","legacy","experiment","[7, 0, 1, 2, 3, 4, 5, 6]","/","2500","3000","0","8","252.758751519","1024","2","48000","-16","main","[(0, -252), (178, -178), (252, 0), (178, 178), (0, 252), (-178, 178), (-252, 0), (-178, -178)]","[]","16","even","6","156315","198891","198891","72994","71988","1600","93703","93703","1600","1600","83185","263591","1598","198891","262808","262043","262043","NA","759","study_X","0","10190","1","yes","1680"
"undefined","undefined","10190","10190","black","no","legacy","legacy","legacy","0","green","(0, 122, 0)","color","absent","lowProb4","circular","same","swap","same","same","green","(0, 122, 0)","highProbColor","highProbColor","circular","uniform","1","undefined","0.151041666667","1","1","138.25","1","29","26544","0","0","0","0","0","0","0","0","54","0","1","0.151041666667","138.25","29","26544","54","54","54","08/23/17 09:52:04","Default description","yes","<openexp._canvas.legacy.legacy object at 0x049227F0>","<openexp._canvas.legacy.legacy object at 0x0492D7B0>","<openexp._canvas.legacy.legacy object at 0x0491A370>","<openexp._canvas.legacy.legacy object at 0x04A109D0>","<openexp._canvas.legacy.legacy object at 0x049E14B0>","<openexp._canvas.legacy.legacy object at 0x0491FF30>","<openexp._canvas.legacy.legacy object at 0x049E2A50>","75","IndividualPriorityWithDis_v1.osexp","C:/Userdata/Michel/SpatialProb/IndividualPriorityMaps/Experiment2","no","mono","no","18","no","white","no","yes","0.09","98","1050","legacy","315","29","29","1","C:/Userdata/Michel/SpatialProb/IndividualPriorityMaps/Experiment2/data/subject-16.csv","legacy","9","192","25","Jazzy James","3.1.3","yes","598477b2b83f69022949e7e9","47","green","circular","green","circular","0","/","1018","space","10190","10190","(80, 80, 80)","(0, 122, 0)","(179, 0, 0)","(155, 155, 155)","2","legacy","experiment","[7, 0, 1, 2, 3, 4, 5, 6]","/","2500","3000","0","8","252.758751519","1024","2","48000","-16","main","[(0, -252), (178, -178), (252, 0), (178, 178), (0, 252), (-178, 178), (-252, 0), (-178, -178)]","[]","16","even","7","156315","198891","198891","72994","71988","1600","93703","93703","1600","1600","83185","265783","1598","198891","264762","263997","263997","NA","759","study_X","0","10190","1","yes","1680"
"undefined","undefined","10190","10190","black","no","legacy","legacy","legacy","0","red","(179, 0, 0)","color","present","highProb","circular","swap","same","same","same","green","(0, 122, 0)","lowProb","lowProb1","circular","uniform","1","undefined","0.15625","1","1","145.640625","1","30","27963","0","0","0","0","0","0","0","0","55","0","1","0.15625","145.640625","30","27963","55","55","55","08/23/17 09:52:04","Default description","yes","<openexp._canvas.legacy.legacy object at 0x049227F0>","<openexp._canvas.legacy.legacy object at 0x0492D7B0>","<openexp._canvas.legacy.legacy object at 0x0491A370>","<openexp._canvas.legacy.legacy object at 0x04A109D0>","<openexp._canvas.legacy.legacy object at 0x049E14B0>","<openexp._canvas.legacy.legacy object at 0x0491ACF0>","<openexp._canvas.legacy.legacy object at 0x049E2A50>","75","IndividualPriorityWithDis_v1.osexp","C:/Userdata/Michel/SpatialProb/IndividualPriorityMaps/Experiment2","no","mono","no","18","no","white","no","yes","0.09","98","1050","legacy","45","30","30","1","C:/Userdata/Michel/SpatialProb/IndividualPriorityMaps/Experiment2/data/subject-16.csv","legacy","9","192","25","Jazzy James","3.1.3","yes","598477b2b83f69022949e7e9","47","red","circular","green","circular","0","\","1419","space","10190","10190","(80, 80, 80)","(0, 122, 0)","(179, 0, 0)","(155, 155, 155)","2","legacy","experiment","[7, 0, 1, 2, 3, 4, 5, 6]","\","2500","3000","0","8","252.758751519","1024","2","48000","-16","main","[(0, -252), (178, -178), (252, 0), (178, 178), (0, 252), (-178, 178), (-252, 0), (-178, -178)]","[]","16","even","0","156315","198891","198891","72994","71988","1600","93703","93703","1600","1600","83185","268407","1598","198891","266985","266221","266221","NA","759","study_X","0","10190","1","yes","1680"
"undefined","undefined","10190","10190","black","no","legacy","legacy","legacy","0","red","(179, 0, 0)","color","present","highProb","circular","same","same","same","same","green","(0, 122, 0)","lowProb","lowProb1","circular","uniform","1","undefined","0.161458333333","1","1","148.661458333","1","31","28543","0","0","0","0","0","0","0","0","56","0","1","0.161458333333","148.661458333","31","28543","56","56","56","08/23/17 09:52:04","Default description","yes","<openexp._canvas.legacy.legacy object at 0x049227F0>","<openexp._canvas.legacy.legacy object at 0x0492D7B0>","<openexp._canvas.legacy.legacy object at 0x0491A370>","<openexp._canvas.legacy.legacy object at 0x04A109D0>","<openexp._canvas.legacy.legacy object at 0x049E14B0>","<openexp._canvas.legacy.legacy object at 0x04932370>","<openexp._canvas.legacy.legacy object at 0x049E2A50>","75","IndividualPriorityWithDis_v1.osexp","C:/Userdata/Michel/SpatialProb/IndividualPriorityMaps/Experiment2","no","mono","no","18","no","white","no","yes","0.09","98","1050","legacy","45","31","31","1","C:/Userdata/Michel/SpatialProb/IndividualPriorityMaps/Experiment2/data/subject-16.csv","legacy","9","192","25","Jazzy James","3.1.3","yes","598477b2b83f69022949e7e9","47","red","circular","green","circular","0","\","580","space","10190","10190","(80, 80, 80)","(0, 122, 0)","(179, 0, 0)","(155, 155, 155)","2","legacy","experiment","[7, 0, 1, 2, 3, 4, 5, 6]","\","2500","3000","0","8","252.758751519","1024","2","48000","-16","main","[(0, -252), (178, -178), (252, 0), (178, 178), (0, 252), (-178, 178), (-252, 0), (-178, -178)]","[]","16","even","0","156315","198891","198891","72994","71988","1600","93703","93703","1600","1600","83185","270167","1598","198891","269583","268818","268818","NA","759","study_X","0","10190","1","yes","1680"
"undefined","undefined","10190","10190","black","no","legacy","legacy","legacy","0","green","(0, 122, 0)","shape","present","highProb","circular","swap","same","same","swap","green","(0, 122, 0)","lowProb","lowProb2","rectangular","uniform","1","undefined","0.166666666667","1","1","154.979166667","1","32","29756","0","0","0","0","0","0","0","0","57","0","1","0.166666666667","154.979166667","32","29756","57","57","57","08/23/17 09:52:04","Default description","yes","<openexp._canvas.legacy.legacy object at 0x049227F0>","<openexp._canvas.legacy.legacy object at 0x0492D7B0>","<openexp._canvas.legacy.legacy object at 0x0491A370>","<openexp._canvas.legacy.legacy object at 0x04A109D0>","<openexp._canvas.legacy.legacy object at 0x049E14B0>","<openexp._canvas.legacy.legacy object at 0x04932AF0>","<openexp._canvas.legacy.legacy object at 0x049E2A50>","75","IndividualPriorityWithDis_v1.osexp","C:/Userdata/Michel/SpatialProb/IndividualPriorityMaps/Experiment2","no","mono","no","18","no","white","no","yes","0.09","98","1050","legacy","315","32","32","1","C:/Userdata/Michel/SpatialProb/IndividualPriorityMaps/Experiment2/data/subject-16.csv","legacy","9","192","25","Jazzy James","3.1.3","yes","598477b2b83f69022949e7e9","47","green","circular","green","rectangular","0","/","1213","space","10190","10190","(80, 80, 80)","(0, 122, 0)","(179, 0, 0)","(155, 155, 155)","2","legacy","experiment","[7, 0, 1, 2, 3, 4, 5, 6]","/","2500","3000","0","8","252.758751519","1024","2","48000","-16","main","[(0, -252), (178, -178), (252, 0), (178, 178), (0, 252), (-178, 178), (-252, 0), (-178, -178)]","[]","16","even","1","156315","198891","198891","72994","71988","1600","93703","93703","1600","1600","83185","272543","1598","198891","271327","270562","270562","NA","759","study_X","0","10190","1","yes","1680"
"undefined","undefined","10190","10190","black","no","legacy","legacy","legacy","0","green","(0, 122, 0)","shape","present","lowProb6","rectangular","same","swap","same","swap","green","(0, 122, 0)","lowProb","lowProb4","circular","uniform","1","undefined","0.171875","1","1","157.807291667","1","33","30299","0","0","0","0","0","0","0","0","58","0","1","0.171875","157.807291667","33","30299","58","58","58","08/23/17 09:52:04","Default description","yes","<openexp._canvas.legacy.legacy object at 0x049227F0>","<openexp._canvas.legacy.legacy object at 0x0492D7B0>","<openexp._canvas.legacy.legacy object at 0x0491A370>","<openexp._canvas.legacy.legacy object at 0x04A109D0>","<openexp._canvas.legacy.legacy object at 0x049E14B0>","<openexp._canvas.legacy.legacy object at 0x0491EBB0>","<openexp._canvas.legacy.legacy object at 0x049E2A50>","75","IndividualPriorityWithDis_v1.osexp","C:/Userdata/Michel/SpatialProb/IndividualPriorityMaps/Experiment2","no","mono","no","18","no","white","no","yes","0.09","98","1050","legacy","315","33","33","1","C:/Userdata/Michel/SpatialProb/IndividualPriorityMaps/Experiment2/data/subject-16.csv","legacy","9","192","25","Jazzy James","3.1.3","yes","598477b2b83f69022949e7e9","47","green","rectangular","green","circular","0","/","543","space","10190","10190","(80, 80, 80)","(0, 122, 0)","(179, 0, 0)","(155, 155, 155)","2","legacy","experiment","[7, 0, 1, 2, 3, 4, 5, 6]","/","2500","3000","0","8","252.758751519","1024","2","48000","-16","main","[(0, -252), (178, -178), (252, 0), (178, 178), (0, 252), (-178, 178), (-252, 0), (-178, -178)]","[]","16","even","4","156315","198891","198891","72994","71988","1600","93703","93703","1600","1600","83185","274256","1598","198891","273709","272944","272944","NA","759","study_X","0","10190","1","yes","1680"
"undefined","undefined","10190","10190","black","no","legacy","legacy","legacy","0","red","(179, 0, 0)","shape","absent","lowProb3","circular","swap","swap","swap","same","red","(179, 0, 0)","highProbColor","highProbColor","circular","uniform","1","undefined","0.177083333333","1","1","160.854166667","1","34","30884","0","0","0","0","0","0","0","0","59","0","1","0.177083333333","160.854166667","34","30884","59","59","59","08/23/17 09:52:04","Default description","yes","<openexp._canvas.legacy.legacy object at 0x049227F0>","<openexp._canvas.legacy.legacy object at 0x0492D7B0>","<openexp._canvas.legacy.legacy object at 0x0491A370>","<openexp._canvas.legacy.legacy object at 0x04A109D0>","<openexp._canvas.legacy.legacy object at 0x049E14B0>","<openexp._canvas.legacy.legacy object at 0x0492D950>","<openexp._canvas.legacy.legacy object at 0x049E2A50>","75","IndividualPriorityWithDis_v1.osexp","C:/Userdata/Michel/SpatialProb/IndividualPriorityMaps/Experiment2","no","mono","no","18","no","white","no","yes","0.09","98","1050","legacy","45","34","34","1","C:/Userdata/Michel/SpatialProb/IndividualPriorityMaps/Experiment2/data/subject-16.csv","legacy","9","192","25","Jazzy James","3.1.3","yes","598477b2b83f69022949e7e9","47","red","circular","red","circular","0","\","585","space","10190","10190","(80, 80, 80)","(0, 122, 0)","(179, 0, 0)","(155, 155, 155)","2","legacy","experiment","[7, 0, 1, 2, 3, 4, 5, 6]","\","2500","3000","0","8","252.758751519","1024","2","48000","-16","main","[(0, -252), (178, -178), (252, 0), (178, 178), (0, 252), (-178, 178), (-252, 0), (-178, -178)]","[]","16","even","7","156315","198891","198891","72994","71988","1600","93703","93703","1600","1600","83185","276015","1598","198891","275427","274662","274662","NA","759","study_X","0","10190","1","yes","1680"
"undefined","undefined","10190","10190","black","no","legacy","legacy","legacy","0","red","(179, 0, 0)","color","present","lowProb3","rectangular","same","swap","swap","swap","green","(0, 122, 0)","highProbShape","highProbShape","rectangular","uniform","1","undefined","0.182291666667","1","1","168.020833333","1","35","32260","0","0","0","0","0","0","0","0","60","0","1","0.182291666667","168.020833333","35","32260","60","60","60","08/23/17 09:52:04","Default description","yes","<openexp._canvas.legacy.legacy object at 0x049227F0>","<openexp._canvas.legacy.legacy object at 0x0492D7B0>","<openexp._canvas.legacy.legacy object at 0x0491A370>","<openexp._canvas.legacy.legacy object at 0x04A109D0>","<openexp._canvas.legacy.legacy object at 0x049E14B0>","<openexp._canvas.legacy.legacy object at 0x04922B70>","<openexp._canvas.legacy.legacy object at 0x049E2A50>","75","IndividualPriorityWithDis_v1.osexp","C:/Userdata/Michel/SpatialProb/IndividualPriorityMaps/Experiment2","no","mono","no","18","no","white","no","yes","0.09","98","1050","legacy","45","35","35","1","C:/Userdata/Michel/SpatialProb/IndividualPriorityMaps/Experiment2/data/subject-16.csv","legacy","9","192","25","Jazzy James","3.1.3","yes","598477b2b83f69022949e7e9","47","red","rectangular","green","rectangular","0","\","1376","space","10190","10190","(80, 80, 80)","(0, 122, 0)","(179, 0, 0)","(155, 155, 155)","2","legacy","experiment","[7, 0, 1, 2, 3, 4, 5, 6]","\","2500","3000","0","8","252.758751519","1024","2","48000","-16","main","[(0, -252), (178, -178), (252, 0), (178, 178), (0, 252), (-178, 178), (-252, 0), (-178, -178)]","[]","16","even","3","156315","198891","198891","72994","71988","1600","93703","93703","1600","1600","83185","278559","1598","198891","277180","276415","276415","NA","759","study_X","0","10190","1","yes","1680"
"undefined","undefined","10190","10190","black","no","legacy","legacy","legacy","0","red","(179, 0, 0)","color","present","highProb","rectangular","same","same","same","same","green","(0, 122, 0)","lowProb","lowProb6","rectangular","uniform","1","undefined","0.1875","1","1","173.4375","1","36","33300","0","0","0","0","0","0","0","0","61","0","1","0.1875","173.4375","36","33300","61","61","61","08/23/17 09:52:04","Default description","yes","<openexp._canvas.legacy.legacy object at 0x049227F0>","<openexp._canvas.legacy.legacy object at 0x0492D7B0>","<openexp._canvas.legacy.legacy object at 0x0491A370>","<openexp._canvas.legacy.legacy object at 0x04A109D0>","<openexp._canvas.legacy.legacy object at 0x049E14B0>","<openexp._canvas.legacy.legacy object at 0x0491EFF0>","<openexp._canvas.legacy.legacy object at 0x049E2A50>","75","IndividualPriorityWithDis_v1.osexp","C:/Userdata/Michel/SpatialProb/IndividualPriorityMaps/Experiment2","no","mono","no","18","no","white","no","yes","0.09","98","1050","legacy","45","36","36","1","C:/Userdata/Michel/SpatialProb/IndividualPriorityMaps/Experiment2/data/subject-16.csv","legacy","9","192","25","Jazzy James","3.1.3","yes","598477b2b83f69022949e7e9","47","red","rectangular","green","rectangular","0","\","1040","space","10190","10190","(80, 80, 80)","(0, 122, 0)","(179, 0, 0)","(155, 155, 155)","2","legacy","experiment","[7, 0, 1, 2, 3, 4, 5, 6]","\","2500","3000","0","8","252.758751519","1024","2","48000","-16","main","[(0, -252), (178, -178), (252, 0), (178, 178), (0, 252), (-178, 178), (-252, 0), (-178, -178)]","[]","16","even","6","156315","198891","198891","72994","71988","1600","93703","93703","1600","1600","83185","280767","1598","198891","279724","278959","278959","NA","759","study_X","0","10190","1","yes","1680"
"undefined","undefined","10190","10190","black","no","legacy","legacy","legacy","0","red","(179, 0, 0)","shape","present","lowProb5","circular","same","swap","swap","same","red","(179, 0, 0)","highProbColor","highProbColor","rectangular","uniform","1","undefined","0.192708333333","1","1","177.96875","1","37","34170","0","0","0","0","0","0","0","0","62","0","1","0.192708333333","177.96875","37","34170","62","62","62","08/23/17 09:52:04","Default description","yes","<openexp._canvas.legacy.legacy object at 0x049227F0>","<openexp._canvas.legacy.legacy object at 0x0492D7B0>","<openexp._canvas.legacy.legacy object at 0x0491A370>","<openexp._canvas.legacy.legacy object at 0x04A109D0>","<openexp._canvas.legacy.legacy object at 0x049E14B0>","<openexp._canvas.legacy.legacy object at 0x04939290>","<openexp._canvas.legacy.legacy object at 0x049E2A50>","75","IndividualPriorityWithDis_v1.osexp","C:/Userdata/Michel/SpatialProb/IndividualPriorityMaps/Experiment2","no","mono","no","18","no","white","no","yes","0.09","98","1050","legacy","45","37","37","1","C:/Userdata/Michel/SpatialProb/IndividualPriorityMaps/Experiment2/data/subject-16.csv","legacy","9","192","25","Jazzy James","3.1.3","yes","598477b2b83f69022949e7e9","47","red","circular","red","rectangular","0","\","870","space","10190","10190","(80, 80, 80)","(0, 122, 0)","(179, 0, 0)","(155, 155, 155)","2","legacy","experiment","[7, 0, 1, 2, 3, 4, 5, 6]","\","2500","3000","0","8","252.758751519","1024","2","48000","-16","main","[(0, -252), (178, -178), (252, 0), (178, 178), (0, 252), (-178, 178), (-252, 0), (-178, -178)]","[]","16","even","7","156315","198891","198891","72994","71988","1600","93703","93703","1600","1600","83185","282815","1598","198891","281942","281177","281177","NA","759","study_X","0","10190","1","yes","1680"
"undefined","undefined","10190","10190","black","no","legacy","legacy","legacy","0","green","(0, 122, 0)","shape","present","highProb","rectangular","swap","swap","swap","swap","green","(0, 122, 0)","lowProb","lowProb3","circular","uniform","1","undefined","0.197916666667","1","1","184.072916667","1","38","35342","0","0","0","0","0","0","0","0","63","0","1","0.197916666667","184.072916667","38","35342","63","63","63","08/23/17 09:52:04","Default description","yes","<openexp._canvas.legacy.legacy object at 0x049227F0>","<openexp._canvas.legacy.legacy object at 0x0492D7B0>","<openexp._canvas.legacy.legacy object at 0x0491A370>","<openexp._canvas.legacy.legacy object at 0x04A109D0>","<openexp._canvas.legacy.legacy object at 0x049E14B0>","<openexp._canvas.legacy.legacy object at 0x04A11130>","<openexp._canvas.legacy.legacy object at 0x049E2A50>","75","IndividualPriorityWithDis_v1.osexp","C:/Userdata/Michel/SpatialProb/IndividualPriorityMaps/Experiment2","no","mono","no","18","no","white","no","yes","0.09","98","1050","legacy","45","38","38","1","C:/Userdata/Michel/SpatialProb/IndividualPriorityMaps/Experiment2/data/subject-16.csv","legacy","9","192","25","Jazzy James","3.1.3","yes","598477b2b83f69022949e7e9","47","green","rectangular","green","circular","0","\","1172","space","10190","10190","(80, 80, 80)","(0, 122, 0)","(179, 0, 0)","(155, 155, 155)","2","legacy","experiment","[7, 0, 1, 2, 3, 4, 5, 6]","\","2500","3000","0","8","252.758751519","1024","2","48000","-16","main","[(0, -252), (178, -178), (252, 0), (178, 178), (0, 252), (-178, 178), (-252, 0), (-178, -178)]","[]","16","even","2","156315","198891","198891","72994","71988","1600","93703","93703","1600","1600","83185","285159","1598","198891","283984","283220","283220","NA","759","study_X","0","10190","1","yes","1680"
"undefined","undefined","10190","10190","black","no","legacy","legacy","legacy","0","red","(179, 0, 0)","color","present","lowProb4","rectangular","swap","same","same","swap","green","(0, 122, 0)","lowProb","lowProb5","rectangular","uniform","1","undefined","0.203125","1","1","187.682291667","1","39","36035","0","0","0","0","0","0","0","0","64","0","1","0.203125","187.682291667","39","36035","64","64","64","08/23/17 09:52:04","Default description","yes","<openexp._canvas.legacy.legacy object at 0x049227F0>","<openexp._canvas.legacy.legacy object at 0x0492D7B0>","<openexp._canvas.legacy.legacy object at 0x0491A370>","<openexp._canvas.legacy.legacy object at 0x04A109D0>","<openexp._canvas.legacy.legacy object at 0x049E14B0>","<openexp._canvas.legacy.legacy object at 0x049329F0>","<openexp._canvas.legacy.legacy object at 0x049E2A50>","75","IndividualPriorityWithDis_v1.osexp","C:/Userdata/Michel/SpatialProb/IndividualPriorityMaps/Experiment2","no","mono","no","18","no","white","no","yes","0.09","98","1050","legacy","45","39","39","1","C:/Userdata/Michel/SpatialProb/IndividualPriorityMaps/Experiment2/data/subject-16.csv","legacy","9","192","25","Jazzy James","3.1.3","yes","598477b2b83f69022949e7e9","47","red","rectangular","green","rectangular","0","\","693","space","10190","10190","(80, 80, 80)","(0, 122, 0)","(179, 0, 0)","(155, 155, 155)","2","legacy","experiment","[7, 0, 1, 2, 3, 4, 5, 6]","\","2500","3000","0","8","252.758751519","1024","2","48000","-16","main","[(0, -252), (178, -178), (252, 0), (178, 178), (0, 252), (-178, 178), (-252, 0), (-178, -178)]","[]","16","even","5","156315","198891","198891","72994","71988","1600","93703","93703","1600","1600","83185","287031","1598","198891","286335","285570","285570","NA","759","study_X","0","10190","1","yes","1680"
"undefined","undefined","10190","10190","black","no","legacy","legacy","legacy","0","green","(0, 122, 0)","shape","present","highProb","circular","swap","swap","same","same","green","(0, 122, 0)","lowProb","lowProb2","rectangular","uniform","1","undefined","0.208333333333","1","1","191.708333333","1","40","36808","0","0","0","0","0","0","0","0","65","0","1","0.208333333333","191.708333333","40","36808","65","65","65","08/23/17 09:52:04","Default description","yes","<openexp._canvas.legacy.legacy object at 0x049227F0>","<openexp._canvas.legacy.legacy object at 0x0492D7B0>","<openexp._canvas.legacy.legacy object at 0x0491A370>","<openexp._canvas.legacy.legacy object at 0x04A109D0>","<openexp._canvas.legacy.legacy object at 0x049E14B0>","<openexp._canvas.legacy.legacy object at 0x04A10990>","<openexp._canvas.legacy.legacy object at 0x049E2A50>","75","IndividualPriorityWithDis_v1.osexp","C:/Userdata/Michel/SpatialProb/IndividualPriorityMaps/Experiment2","no","mono","no","18","no","white","no","yes","0.09","98","1050","legacy","45","40","40","1","C:/Userdata/Michel/SpatialProb/IndividualPriorityMaps/Experiment2/data/subject-16.csv","legacy","9","192","25","Jazzy James","3.1.3","yes","598477b2b83f69022949e7e9","47","green","circular","green","rectangular","0","\","773","space","10190","10190","(80, 80, 80)","(0, 122, 0)","(179, 0, 0)","(155, 155, 155)","2","legacy","experiment","[7, 0, 1, 2, 3, 4, 5, 6]","\","2500","3000","0","8","252.758751519","1024","2","48000","-16","main","[(0, -252), (178, -178), (252, 0), (178, 178), (0, 252), (-178, 178), (-252, 0), (-178, -178)]","[]","16","even","1","156315","198891","198891","72994","71988","1600","93703","93703","1600","1600","83185","288975","1598","198891","288199","287434","287434","NA","759","study_X","0","10190","1","yes","1680"
"undefined","undefined","10190","10190","black","no","legacy","legacy","legacy","0","green","(0, 122, 0)","shape","present","lowProb4","rectangular","same","swap","same","swap","green","(0, 122, 0)","lowProb","lowProb1","circular","uniform","1","undefined","0.213541666667","1","1","195.125","1","41","37464","0","0","0","0","0","0","0","0","66","0","1","0.213541666667","195.125","41","37464","66","66","66","08/23/17 09:52:04","Default description","yes","<openexp._canvas.legacy.legacy object at 0x049227F0>","<openexp._canvas.legacy.legacy object at 0x0492D7B0>","<openexp._canvas.legacy.legacy object at 0x0491A370>","<openexp._canvas.legacy.legacy object at 0x04A109D0>","<openexp._canvas.legacy.legacy object at 0x049E14B0>","<openexp._canvas.legacy.legacy object at 0x04939590>","<openexp._canvas.legacy.legacy object at 0x049E2A50>","75","IndividualPriorityWithDis_v1.osexp","C:/Userdata/Michel/SpatialProb/IndividualPriorityMaps/Experiment2","no","mono","no","18","no","white","no","yes","0.09","98","1050","legacy","45","41","41","1","C:/Userdata/Michel/SpatialProb/IndividualPriorityMaps/Experiment2/data/subject-16.csv","legacy","9","192","25","Jazzy James","3.1.3","yes","598477b2b83f69022949e7e9","47","green","rectangular","green","circular","0","\","656","space","10190","10190","(80, 80, 80)","(0, 122, 0)","(179, 0, 0)","(155, 155, 155)","2","legacy","experiment","[7, 0, 1, 2, 3, 4, 5, 6]","\","2500","3000","0","8","252.758751519","1024","2","48000","-16","main","[(0, -252), (178, -178), (252, 0), (178, 178), (0, 252), (-178, 178), (-252, 0), (-178, -178)]","[]","16","even","0","156315","198891","198891","72994","71988","1600","93703","93703","1600","1600","83185","290808","1598","198891","290148","289383","289383","NA","759","study_X","0","10190","1","yes","1680"
"undefined","undefined","10190","10190","black","no","legacy","legacy","legacy","0","red","(179, 0, 0)","color","present","lowProb2","circular","swap","swap","same","same","green","(0, 122, 0)","lowProb","lowProb4","circular","uniform","1","undefined","0.21875","1","1","198.932291667","1","42","38195","0","0","0","0","0","0","0","0","67","0","1","0.21875","198.932291667","42","38195","67","67","67","08/23/17 09:52:04","Default description","yes","<openexp._canvas.legacy.legacy object at 0x049227F0>","<openexp._canvas.legacy.legacy object at 0x0492D7B0>","<openexp._canvas.legacy.legacy object at 0x0491A370>","<openexp._canvas.legacy.legacy object at 0x04A109D0>","<openexp._canvas.legacy.legacy object at 0x049E14B0>","<openexp._canvas.legacy.legacy object at 0x04A11470>","<openexp._canvas.legacy.legacy object at 0x049E2A50>","75","IndividualPriorityWithDis_v1.osexp","C:/Userdata/Michel/SpatialProb/IndividualPriorityMaps/Experiment2","no","mono","no","18","no","white","no","yes","0.09","98","1050","legacy","45","42","42","1","C:/Userdata/Michel/SpatialProb/IndividualPriorityMaps/Experiment2/data/subject-16.csv","legacy","9","192","25","Jazzy James","3.1.3","yes","598477b2b83f69022949e7e9","47","red","circular","green","circular","0","\","731","space","10190","10190","(80, 80, 80)","(0, 122, 0)","(179, 0, 0)","(155, 155, 155)","2","legacy","experiment","[7, 0, 1, 2, 3, 4, 5, 6]","\","2500","3000","0","8","252.758751519","1024","2","48000","-16","main","[(0, -252), (178, -178), (252, 0), (178, 178), (0, 252), (-178, 178), (-252, 0), (-178, -178)]","[]","16","even","4","156315","198891","198891","72994","71988","1600","93703","93703","1600","1600","83185","292711","1598","198891","291977","291212","291212","NA","759","study_X","0","10190","1","yes","1680"
"undefined","undefined","10190","10190","black","no","legacy","legacy","legacy","0","green","(0, 122, 0)","color","absent","lowProb1","rectangular","swap","swap","same","swap","green","(0, 122, 0)","highProbColor","highProbColor","rectangular","uniform","1","undefined","0.223958333333","1","1","202.40625","1","43","38862","0","0","0","0","0","0","0","0","68","0","1","0.223958333333","202.40625","43","38862","68","68","68","08/23/17 09:52:04","Default description","yes","<openexp._canvas.legacy.legacy object at 0x049227F0>","<openexp._canvas.legacy.legacy object at 0x0492D7B0>","<openexp._canvas.legacy.legacy object at 0x0491A370>","<openexp._canvas.legacy.legacy object at 0x04A109D0>","<openexp._canvas.legacy.legacy object at 0x049E14B0>","<openexp._canvas.legacy.legacy object at 0x04932950>","<openexp._canvas.legacy.legacy object at 0x049E2A50>","75","IndividualPriorityWithDis_v1.osexp","C:/Userdata/Michel/SpatialProb/IndividualPriorityMaps/Experiment2","no","mono","no","18","no","white","no","yes","0.09","98","1050","legacy","45","43","43","1","C:/Userdata/Michel/SpatialProb/IndividualPriorityMaps/Experiment2/data/subject-16.csv","legacy","9","192","25","Jazzy James","3.1.3","yes","598477b2b83f69022949e7e9","47","green","rectangular","green","rectangular","0","\","667","space","10190","10190","(80, 80, 80)","(0, 122, 0)","(179, 0, 0)","(155, 155, 155)","2","legacy","experiment","[7, 0, 1, 2, 3, 4, 5, 6]","\","2500","3000","0","8","252.758751519","1024","2","48000","-16","main","[(0, -252), (178, -178), (252, 0), (178, 178), (0, 252), (-178, 178), (-252, 0), (-178, -178)]","[]","16","even","7","156315","198891","198891","72994","71988","1600","93703","93703","1600","1600","83185","294551","1598","198891","293881","293116","293116","NA","759","study_X","0","10190","1","yes","1680"
"undefined","undefined","10190","10190","black","no","legacy","legacy","legacy","0","green","(0, 122, 0)","color","present","highProb","circular","same","swap","swap","swap","red","(179, 0, 0)","lowProb","lowProb1","circular","uniform","1","undefined","0.229166666667","1","1","205.911458333","1","44","39535","0","0","0","0","0","0","0","0","69","0","1","0.229166666667","205.911458333","44","39535","69","69","69","08/23/17 09:52:04","Default description","yes","<openexp._canvas.legacy.legacy object at 0x049227F0>","<openexp._canvas.legacy.legacy object at 0x0492D7B0>","<openexp._canvas.legacy.legacy object at 0x0491A370>","<openexp._canvas.legacy.legacy object at 0x04A109D0>","<openexp._canvas.legacy.legacy object at 0x049E14B0>","<openexp._canvas.legacy.legacy object at 0x049240F0>","<openexp._canvas.legacy.legacy object at 0x049E2A50>","75","IndividualPriorityWithDis_v1.osexp","C:/Userdata/Michel/SpatialProb/IndividualPriorityMaps/Experiment2","no","mono","no","18","no","white","no","yes","0.09","98","1050","legacy","45","44","44","1","C:/Userdata/Michel/SpatialProb/IndividualPriorityMaps/Experiment2/data/subject-16.csv","legacy","9","192","25","Jazzy James","3.1.3","yes","598477b2b83f69022949e7e9","47","green","circular","red","circular","0","\","673","space","10190","10190","(80, 80, 80)","(0, 122, 0)","(179, 0, 0)","(155, 155, 155)","2","legacy","experiment","[7, 0, 1, 2, 3, 4, 5, 6]","\","2500","3000","0","8","252.758751519","1024","2","48000","-16","main","[(0, -252), (178, -178), (252, 0), (178, 178), (0, 252), (-178, 178), (-252, 0), (-178, -178)]","[]","16","even","0","156315","198891","198891","72994","71988","1600","93703","93703","1600","1600","83185","296399","1598","198891","295723","294958","294958","NA","759","study_X","0","10190","1","yes","1680"
"undefined","undefined","10190","10190","black","no","legacy","legacy","legacy","0","green","(0, 122, 0)","shape","present","highProb","rectangular","same","swap","swap","same","green","(0, 122, 0)","lowProb","lowProb2","circular","uniform","1","undefined","0.234375","1","1","210.203125","1","45","40359","0","0","0","0","0","0","0","0","70","0","1","0.234375","210.203125","45","40359","70","70","70","08/23/17 09:52:04","Default description","yes","<openexp._canvas.legacy.legacy object at 0x049227F0>","<openexp._canvas.legacy.legacy object at 0x0492D7B0>","<openexp._canvas.legacy.legacy object at 0x0491A370>","<openexp._canvas.legacy.legacy object at 0x04A109D0>","<openexp._canvas.legacy.legacy object at 0x049E14B0>","<openexp._canvas.legacy.legacy object at 0x04A10FF0>","<openexp._canvas.legacy.legacy object at 0x049E2A50>","75","IndividualPriorityWithDis_v1.osexp","C:/Userdata/Michel/SpatialProb/IndividualPriorityMaps/Experiment2","no","mono","no","18","no","white","no","yes","0.09","98","1050","legacy","315","45","45","1","C:/Userdata/Michel/SpatialProb/IndividualPriorityMaps/Experiment2/data/subject-16.csv","legacy","9","192","25","Jazzy James","3.1.3","yes","598477b2b83f69022949e7e9","47","green","rectangular","green","circular","0","/","824","space","10190","10190","(80, 80, 80)","(0, 122, 0)","(179, 0, 0)","(155, 155, 155)","2","legacy","experiment","[7, 0, 1, 2, 3, 4, 5, 6]","/","2500","3000","0","8","252.758751519","1024","2","48000","-16","main","[(0, -252), (178, -178), (252, 0), (178, 178), (0, 252), (-178, 178), (-252, 0), (-178, -178)]","[]","16","even","1","156315","198891","198891","72994","71988","1600","93703","93703","1600","1600","83185","298399","1598","198891","297572","296808","296808","NA","759","study_X","0","10190","1","yes","1680"
"undefined","undefined","10190","10190","black","no","legacy","legacy","legacy","0","red","(179, 0, 0)","shape","present","highProb","circular","swap","swap","swap","swap","red","(179, 0, 0)","highProbColor","highProbColor","rectangular","uniform","1","undefined","0.239583333333","1","1","216.765625","1","46","41619","0","0","0","0","0","0","0","0","71","0","1","0.239583333333","216.765625","46","41619","71","71","71","08/23/17 09:52:04","Default description","yes","<openexp._canvas.legacy.legacy object at 0x049227F0>","<openexp._canvas.legacy.legacy object at 0x0492D7B0>","<openexp._canvas.legacy.legacy object at 0x0491A370>","<openexp._canvas.legacy.legacy object at 0x04A109D0>","<openexp._canvas.legacy.legacy object at 0x049E14B0>","<openexp._canvas.legacy.legacy object at 0x0491E3B0>","<openexp._canvas.legacy.legacy object at 0x049E2A50>","75","IndividualPriorityWithDis_v1.osexp","C:/Userdata/Michel/SpatialProb/IndividualPriorityMaps/Experiment2","no","mono","no","18","no","white","no","yes","0.09","98","1050","legacy","315","46","46","1","C:/Userdata/Michel/SpatialProb/IndividualPriorityMaps/Experiment2/data/subject-16.csv","legacy","9","192","25","Jazzy James","3.1.3","yes","598477b2b83f69022949e7e9","47","red","circular","red","rectangular","0","/","1260","space","10190","10190","(80, 80, 80)","(0, 122, 0)","(179, 0, 0)","(155, 155, 155)","2","legacy","experiment","[7, 0, 1, 2, 3, 4, 5, 6]","/","2500","3000","0","8","252.758751519","1024","2","48000","-16","main","[(0, -252), (178, -178), (252, 0), (178, 178), (0, 252), (-178, 178), (-252, 0), (-178, -178)]","[]","16","even","7","156315","198891","198891","72994","71988","1600","93703","93703","1600","1600","83185","300823","1598","198891","299559","298794","298794","NA","759","study_X","0","10190","1","yes","1680"
"undefined","undefined","10190","10190","black","no","legacy","legacy","legacy","0","green","(0, 122, 0)","shape","present","highProb","rectangular","swap","swap","swap","swap","green","(0, 122, 0)","lowProb","lowProb1","circular","uniform","1","undefined","0.244791666667","1","1","219.989583333","1","47","42238","0","0","0","0","0","0","0","0","72","0","1","0.244791666667","219.989583333","47","42238","72","72","72","08/23/17 09:52:04","Default description","yes","<openexp._canvas.legacy.legacy object at 0x049227F0>","<openexp._canvas.legacy.legacy object at 0x0492D7B0>","<openexp._canvas.legacy.legacy object at 0x0491A370>","<openexp._canvas.legacy.legacy object at 0x04A109D0>","<openexp._canvas.legacy.legacy object at 0x049E14B0>","<openexp._canvas.legacy.legacy object at 0x04929D30>","<openexp._canvas.legacy.legacy object at 0x049E2A50>","75","IndividualPriorityWithDis_v1.osexp","C:/Userdata/Michel/SpatialProb/IndividualPriorityMaps/Experiment2","no","mono","no","18","no","white","no","yes","0.09","98","1050","legacy","315","47","47","1","C:/Userdata/Michel/SpatialProb/IndividualPriorityMaps/Experiment2/data/subject-16.csv","legacy","9","192","25","Jazzy James","3.1.3","yes","598477b2b83f69022949e7e9","47","green","rectangular","green","circular","0","/","619","space","10190","10190","(80, 80, 80)","(0, 122, 0)","(179, 0, 0)","(155, 155, 155)","2","legacy","experiment","[7, 0, 1, 2, 3, 4, 5, 6]","/","2500","3000","0","8","252.758751519","1024","2","48000","-16","main","[(0, -252), (178, -178), (252, 0), (178, 178), (0, 252), (-178, 178), (-252, 0), (-178, -178)]","[]","16","even","0","156315","198891","198891","72994","71988","1600","93703","93703","1600","1600","83185","302647","1598","198891","302024","301259","301259","NA","759","study_X","0","10190","1","yes","1680"
"undefined","undefined","10190","10190","black","no","legacy","legacy","legacy","0","red","(179, 0, 0)","shape","absent","lowProb1","rectangular","swap","same","swap","swap","red","(179, 0, 0)","lowProb","lowProb1","rectangular","uniform","1","undefined","0.25","1","1","224.302083333","1","48","43066","0","0","0","0","0","0","0","0","73","0","1","0.25","224.302083333","48","43066","73","73","73","08/23/17 09:52:04","Default description","yes","<openexp._canvas.legacy.legacy object at 0x049227F0>","<openexp._canvas.legacy.legacy object at 0x0492D7B0>","<openexp._canvas.legacy.legacy object at 0x0491A370>","<openexp._canvas.legacy.legacy object at 0x04A109D0>","<openexp._canvas.legacy.legacy object at 0x049E14B0>","<openexp._canvas.legacy.legacy object at 0x04934970>","<openexp._canvas.legacy.legacy object at 0x049E2A50>","75","IndividualPriorityWithDis_v1.osexp","C:/Userdata/Michel/SpatialProb/IndividualPriorityMaps/Experiment2","no","mono","no","18","no","white","no","yes","0.09","98","1050","legacy","45","48","48","1","C:/Userdata/Michel/SpatialProb/IndividualPriorityMaps/Experiment2/data/subject-16.csv","legacy","9","192","25","Jazzy James","3.1.3","yes","598477b2b83f69022949e7e9","47","red","rectangular","red","rectangular","0","\","828","space","10190","10190","(80, 80, 80)","(0, 122, 0)","(179, 0, 0)","(155, 155, 155)","2","legacy","experiment","[7, 0, 1, 2, 3, 4, 5, 6]","\","2500","3000","0","8","252.758751519","1024","2","48000","-16","main","[(0, -252), (178, -178), (252, 0), (178, 178), (0, 252), (-178, 178), (-252, 0), (-178, -178)]","[]","16","even","0","156315","198891","198891","72994","71988","1600","93703","93703","1600","1600","83185","304647","1598","198891","303815","303050","303050","NA","759","study_X","0","10190","1","yes","1680"
"undefined","undefined","10190","10190","black","no","legacy","legacy","legacy","0","green","(0, 122, 0)","shape","present","highProbOther","rectangular","swap","same","swap","swap","green","(0, 122, 0)","lowProb","lowProb1","circular","uniform","1","undefined","0.255208333333","1","1","229.364583333","1","49","44038","0","0","0","0","0","0","0","0","74","0","1","0.255208333333","229.364583333","49","44038","74","74","74","08/23/17 09:52:04","Default description","yes","<openexp._canvas.legacy.legacy object at 0x049227F0>","<openexp._canvas.legacy.legacy object at 0x0492D7B0>","<openexp._canvas.legacy.legacy object at 0x0491A370>","<openexp._canvas.legacy.legacy object at 0x04A109D0>","<openexp._canvas.legacy.legacy object at 0x049E14B0>","<openexp._canvas.legacy.legacy object at 0x04A10990>","<openexp._canvas.legacy.legacy object at 0x049E2A50>","75","IndividualPriorityWithDis_v1.osexp","C:/Userdata/Michel/SpatialProb/IndividualPriorityMaps/Experiment2","no","mono","no","18","no","white","no","yes","0.09","98","1050","legacy","45","49","49","1","C:/Userdata/Michel/SpatialProb/IndividualPriorityMaps/Experiment2/data/subject-16.csv","legacy","9","192","25","Jazzy James","3.1.3","yes","598477b2b83f69022949e7e9","47","green","rectangular","green","circular","0","\","972","space","10190","10190","(80, 80, 80)","(0, 122, 0)","(179, 0, 0)","(155, 155, 155)","2","legacy","experiment","[7, 0, 1, 2, 3, 4, 5, 6]","\","2500","3000","0","8","252.758751519","1024","2","48000","-16","main","[(0, -252), (178, -178), (252, 0), (178, 178), (0, 252), (-178, 178), (-252, 0), (-178, -178)]","[]","16","even","0","156315","198891","198891","72994","71988","1600","93703","93703","1600","1600","83185","306790","1598","198891","305816","305051","305051","NA","759","study_X","0","10190","1","yes","1680"
"undefined","undefined","10190","10190","black","no","legacy","legacy","legacy","0","red","(179, 0, 0)","shape","present","highProb","circular","swap","swap","swap","swap","red","(179, 0, 0)","highProbColor","highProbColor","rectangular","uniform","1","undefined","0.260416666667","1","1","234.723958333","1","50","45067","0","0","0","0","0","0","0","0","75","0","1","0.260416666667","234.723958333","50","45067","75","75","75","08/23/17 09:52:04","Default description","yes","<openexp._canvas.legacy.legacy object at 0x049227F0>","<openexp._canvas.legacy.legacy object at 0x0492D7B0>","<openexp._canvas.legacy.legacy object at 0x0491A370>","<openexp._canvas.legacy.legacy object at 0x04A109D0>","<openexp._canvas.legacy.legacy object at 0x049E14B0>","<openexp._canvas.legacy.legacy object at 0x0491E870>","<openexp._canvas.legacy.legacy object at 0x049E2A50>","75","IndividualPriorityWithDis_v1.osexp","C:/Userdata/Michel/SpatialProb/IndividualPriorityMaps/Experiment2","no","mono","no","18","no","white","no","yes","0.09","98","1050","legacy","315","50","50","1","C:/Userdata/Michel/SpatialProb/IndividualPriorityMaps/Experiment2/data/subject-16.csv","legacy","9","192","25","Jazzy James","3.1.3","yes","598477b2b83f69022949e7e9","47","red","circular","red","rectangular","0","/","1029","space","10190","10190","(80, 80, 80)","(0, 122, 0)","(179, 0, 0)","(155, 155, 155)","2","legacy","experiment","[7, 0, 1, 2, 3, 4, 5, 6]","/","2500","3000","0","8","252.758751519","1024","2","48000","-16","main","[(0, -252), (178, -178), (252, 0), (178, 178), (0, 252), (-178, 178), (-252, 0), (-178, -178)]","[]","16","even","7","156315","198891","198891","72994","71988","1600","93703","93703","1600","1600","83185","308999","1598","198891","307968","307203","307203","NA","759","study_X","0","10190","1","yes","1680"
"undefined","undefined","10190","10190","black","no","legacy","legacy","legacy","0","red","(179, 0, 0)","shape","present","highProb","circular","same","same","same","same","red","(179, 0, 0)","highProbColor","highProbColor","rectangular","uniform","1","undefined","0.265625","1","1","237.947916667","1","51","45686","0","0","0","0","0","0","0","0","76","0","1","0.265625","237.947916667","51","45686","76","76","76","08/23/17 09:52:04","Default description","yes","<openexp._canvas.legacy.legacy object at 0x049227F0>","<openexp._canvas.legacy.legacy object at 0x0492D7B0>","<openexp._canvas.legacy.legacy object at 0x0491A370>","<openexp._canvas.legacy.legacy object at 0x04A109D0>","<openexp._canvas.legacy.legacy object at 0x049E14B0>","<openexp._canvas.legacy.legacy object at 0x04A11F30>","<openexp._canvas.legacy.legacy object at 0x049E2A50>","75","IndividualPriorityWithDis_v1.osexp","C:/Userdata/Michel/SpatialProb/IndividualPriorityMaps/Experiment2","no","mono","no","18","no","white","no","yes","0.09","98","1050","legacy","315","51","51","1","C:/Userdata/Michel/SpatialProb/IndividualPriorityMaps/Experiment2/data/subject-16.csv","legacy","9","192","25","Jazzy James","3.1.3","yes","598477b2b83f69022949e7e9","47","red","circular","red","rectangular","0","/","619","space","10190","10190","(80, 80, 80)","(0, 122, 0)","(179, 0, 0)","(155, 155, 155)","2","legacy","experiment","[7, 0, 1, 2, 3, 4, 5, 6]","/","2500","3000","0","8","252.758751519","1024","2","48000","-16","main","[(0, -252), (178, -178), (252, 0), (178, 178), (0, 252), (-178, 178), (-252, 0), (-178, -178)]","[]","16","even","7","156315","198891","198891","72994","71988","1600","93703","93703","1600","1600","83185","310783","1598","198891","310162","309397","309397","NA","759","study_X","0","10190","1","yes","1680"
"undefined","undefined","10190","10190","black","no","legacy","legacy","legacy","0","red","(179, 0, 0)","shape","present","highProb","circular","same","same","same","same","red","(179, 0, 0)","lowProb","lowProb2","rectangular","uniform","1","undefined","0.270833333333","1","1","242.286458333","1","52","46519","0","0","0","0","0","0","0","0","77","0","1","0.270833333333","242.286458333","52","46519","77","77","77","08/23/17 09:52:04","Default description","yes","<openexp._canvas.legacy.legacy object at 0x049227F0>","<openexp._canvas.legacy.legacy object at 0x0492D7B0>","<openexp._canvas.legacy.legacy object at 0x0491A370>","<openexp._canvas.legacy.legacy object at 0x04A109D0>","<openexp._canvas.legacy.legacy object at 0x049E14B0>","<openexp._canvas.legacy.legacy object at 0x04939A90>","<openexp._canvas.legacy.legacy object at 0x049E2A50>","75","IndividualPriorityWithDis_v1.osexp","C:/Userdata/Michel/SpatialProb/IndividualPriorityMaps/Experiment2","no","mono","no","18","no","white","no","yes","0.09","98","1050","legacy","45","52","52","1","C:/Userdata/Michel/SpatialProb/IndividualPriorityMaps/Experiment2/data/subject-16.csv","legacy","9","192","25","Jazzy James","3.1.3","yes","598477b2b83f69022949e7e9","47","red","circular","red","rectangular","0","\","833","space","10190","10190","(80, 80, 80)","(0, 122, 0)","(179, 0, 0)","(155, 155, 155)","2","legacy","experiment","[7, 0, 1, 2, 3, 4, 5, 6]","\","2500","3000","0","8","252.758751519","1024","2","48000","-16","main","[(0, -252), (178, -178), (252, 0), (178, 178), (0, 252), (-178, 178), (-252, 0), (-178, -178)]","[]","16","even","1","156315","198891","198891","72994","71988","1600","93703","93703","1600","1600","83185","312783","1598","198891","311947","311183","311183","NA","759","study_X","0","10190","1","yes","1680"
"undefined","undefined","10190","10190","black","no","legacy","legacy","legacy","0","red","(179, 0, 0)","color","present","lowProb1","rectangular","same","swap","swap","same","green","(0, 122, 0)","lowProb","lowProb4","rectangular","uniform","1","undefined","0.276041666667","1","1","245.411458333","1","53","47119","0","0","0","0","0","0","0","0","78","0","1","0.276041666667","245.411458333","53","47119","78","78","78","08/23/17 09:52:04","Default description","yes","<openexp._canvas.legacy.legacy object at 0x049227F0>","<openexp._canvas.legacy.legacy object at 0x0492D7B0>","<openexp._canvas.legacy.legacy object at 0x0491A370>","<openexp._canvas.legacy.legacy object at 0x04A109D0>","<openexp._canvas.legacy.legacy object at 0x049E14B0>","<openexp._canvas.legacy.legacy object at 0x04A10F30>","<openexp._canvas.legacy.legacy object at 0x049E2A50>","75","IndividualPriorityWithDis_v1.osexp","C:/Userdata/Michel/SpatialProb/IndividualPriorityMaps/Experiment2","no","mono","no","18","no","white","no","yes","0.09","98","1050","legacy","315","53","53","1","C:/Userdata/Michel/SpatialProb/IndividualPriorityMaps/Experiment2/data/subject-16.csv","legacy","9","192","25","Jazzy James","3.1.3","yes","598477b2b83f69022949e7e9","47","red","rectangular","green","rectangular","0","/","600","space","10190","10190","(80, 80, 80)","(0, 122, 0)","(179, 0, 0)","(155, 155, 155)","2","legacy","experiment","[7, 0, 1, 2, 3, 4, 5, 6]","/","2500","3000","0","8","252.758751519","1024","2","48000","-16","main","[(0, -252), (178, -178), (252, 0), (178, 178), (0, 252), (-178, 178), (-252, 0), (-178, -178)]","[]","16","even","4","156315","198891","198891","72994","71988","1600","93703","93703","1600","1600","83185","314551","1598","198891","313948","313184","313184","NA","759","study_X","0","10190","1","yes","1680"
