"acc","accuracy","answerQ1","answerQ2","answerQ3","average_response_time","avg_rt","background","bidi","canvas_backend","clock_backend","color_backend","compensation","cond_disColor","cond_disColorRGB","cond_disFeature","cond_disPresent","cond_disProbability","cond_disShape","cond_primingDisColor","cond_primingDisShape","cond_primingTarColor","cond_primingTarShape","cond_tarColor","cond_tarColorRGB","cond_tarLocation","cond_tarLocationLong","cond_tarShape","coordinates","correct","correct_continuePress","count_Questions","count_blockAcc","count_blockFeed","count_blockLoop","count_blockRT","count_blockSeq","count_blockSumCorrect","count_blockSumRT","count_continuePress","count_example","count_expSettings","count_exp_mainLoop","count_experiment","count_instructions","count_instructions1","count_instructions2","count_log","count_main","count_prepCanvas","count_totalAcc","count_totalRT","count_totalSumCorrect","count_totalSumRT","count_trialResp","count_trialSeq","count_trialTask","datetime","description","disable_garbage_collection","dispBlank","dispBlockStart","dispFeedBlock","dispFix","dispInstructions","dispQuestions","dispSearch","dispStartScreen","distance2screen","experiment_file","experiment_path","font_bold","font_family","font_italic","font_size","font_underline","foreground","form_clicks","fullscreen","gaborFreq","gaborSize","height","keyboard_backend","lineOriTar","live_row","live_row_blockLoop","live_row_exp_mainLoop","logfile","mouse_backend","noExpBlocks","noExpTrials","noPracTrials","opensesame_codename","opensesame_version","osf_always_upload_experiment","osf_id","physical_screensize","previousDisColor","previousDisShape","previousTarColor","previousTarShape","repeat_cycle","response","responseTime","response_continuePress","response_time","response_time_continuePress","rgb_gray","rgb_green","rgb_red","rgb_white","round_decimals","sampler_backend","set_blockType","set_counterPositions","set_respCorrect","set_respTimeoutExp","set_respTimeoutPrac","set_rotation","set_setSize","sizeImaginary","sound_buf_size","sound_channels","sound_freq","sound_sample_size","start","stimPositions","stimuli","subject_nr","subject_parity","tarIdx","time_Questions","time_blockFeed","time_blockLoop","time_blockSeq","time_continuePress","time_example","time_expSettings","time_exp_mainLoop","time_experiment","time_instructions","time_instructions1","time_instructions2","time_log","time_main","time_prepCanvas","time_trialResp","time_trialSeq","time_trialTask","timing_EEGwait","timing_fix","title","total_correct","total_response_time","total_responses","uniform_coordinates","width"
"undefined","undefined","NA","NA","NA","8678","8678","black","no","legacy","legacy","legacy","0","green","(0, 123, 0)","shape","present","lowProb3","circular","swap","swap","swap","swap","green","(0, 123, 0)","lowProb","lowProb2","rectangular","uniform","1","undefined","0","0.00520833333333","1","1","5.17708333333","1","1","994","0","0","0","0","0","0","0","0","26","0","1","0.00520833333333","5.17708333333","1","994","25","25","25","11/28/18 15:28:36","Default description","yes","<openexp._canvas.legacy.Legacy object at 0x05314BD0>","<openexp._canvas.legacy.Legacy object at 0x053698B0>","<openexp._canvas.legacy.Legacy object at 0x05107C10>","<openexp._canvas.legacy.Legacy object at 0x050FFA30>","<openexp._canvas.legacy.Legacy object at 0x050E2290>","<openexp._canvas.legacy.Legacy object at 0x0530A310>","<openexp._canvas.legacy.Legacy object at 0x05373D70>","<openexp._canvas.legacy.Legacy object at 0x051079F0>","75","SpatProbMultiple3.osexp","C:/Userdata/Michel/SpatProbMultiple3","no","mono","no","18","no","white","no","yes","0.09","98","1050","legacy","45","0","0","1","C:/Userdata/Michel/SpatProbMultiple3/beh/subject-20.csv","legacy","9","192","25","Kafkaesque Koffka","3.2.5","yes","598477b2b83f69022949e7e9","47","green","circular","green","rectangular","0","\","994","space","8678","8678","(80, 80, 80)","(0, 123, 0)","(177, 0, 0)","(155, 155, 155)","2","legacy","experiment","[3, 4, 5, 6, 7, 0, 1, 2]","\","2500","3000","0","8","252.758751519","1024","2","48000","-16","main","[(0, -252), (178, -178), (252, 0), (178, 178), (0, 252), (-178, 178), (-252, 0), (-178, -178)]","[]","20","even","5","NA","184200","246213","246213","93418","92408","2021","112626","112626","2021","2021","102096","253534","2019","246213","252537","246601","246602","NA","780","study_X","0","8678","1","yes","1680"
"undefined","undefined","NA","NA","NA","8678","8678","black","no","legacy","legacy","legacy","0","green","(0, 123, 0)","color","present","highProb","circular","same","same","swap","swap","red","(177, 0, 0)","lowProb","lowProb6","circular","uniform","1","undefined","0","0.0104166666667","1","1","12.3072916667","1","2","2363","0","0","0","0","0","0","0","0","27","0","1","0.0104166666667","12.3072916667","2","2363","26","26","26","11/28/18 15:28:36","Default description","yes","<openexp._canvas.legacy.Legacy object at 0x05314BD0>","<openexp._canvas.legacy.Legacy object at 0x053698B0>","<openexp._canvas.legacy.Legacy object at 0x05107C10>","<openexp._canvas.legacy.Legacy object at 0x050FFA30>","<openexp._canvas.legacy.Legacy object at 0x050E2290>","<openexp._canvas.legacy.Legacy object at 0x0530A310>","<openexp._canvas.legacy.Legacy object at 0x05380310>","<openexp._canvas.legacy.Legacy object at 0x051079F0>","75","SpatProbMultiple3.osexp","C:/Userdata/Michel/SpatProbMultiple3","no","mono","no","18","no","white","no","yes","0.09","98","1050","legacy","315","1","1","1","C:/Userdata/Michel/SpatProbMultiple3/beh/subject-20.csv","legacy","9","192","25","Kafkaesque Koffka","3.2.5","yes","598477b2b83f69022949e7e9","47","green","circular","red","circular","0","/","1369","space","8678","8678","(80, 80, 80)","(0, 123, 0)","(177, 0, 0)","(155, 155, 155)","2","legacy","experiment","[3, 4, 5, 6, 7, 0, 1, 2]","/","2500","3000","0","8","252.758751519","1024","2","48000","-16","main","[(0, -252), (178, -178), (252, 0), (178, 178), (0, 252), (-178, 178), (-252, 0), (-178, -178)]","[]","20","even","2","NA","184200","246213","246213","93418","92408","2021","112626","112626","2021","2021","102096","256134","2019","246213","254762","253973","253973","NA","780","study_X","0","8678","1","yes","1680"
"undefined","undefined","NA","NA","NA","8678","8678","black","no","legacy","legacy","legacy","0","green","(0, 123, 0)","color","present","lowProb6","rectangular","same","swap","same","swap","red","(177, 0, 0)","lowProb","lowProb2","rectangular","uniform","1","undefined","0","0.015625","1","1","15.765625","1","3","3027","0","0","0","0","0","0","0","0","28","0","1","0.015625","15.765625","3","3027","27","27","27","11/28/18 15:28:36","Default description","yes","<openexp._canvas.legacy.Legacy object at 0x05314BD0>","<openexp._canvas.legacy.Legacy object at 0x053698B0>","<openexp._canvas.legacy.Legacy object at 0x05107C10>","<openexp._canvas.legacy.Legacy object at 0x050FFA30>","<openexp._canvas.legacy.Legacy object at 0x050E2290>","<openexp._canvas.legacy.Legacy object at 0x0530A310>","<openexp._canvas.legacy.Legacy object at 0x05407570>","<openexp._canvas.legacy.Legacy object at 0x051079F0>","75","SpatProbMultiple3.osexp","C:/Userdata/Michel/SpatProbMultiple3","no","mono","no","18","no","white","no","yes","0.09","98","1050","legacy","315","2","2","1","C:/Userdata/Michel/SpatProbMultiple3/beh/subject-20.csv","legacy","9","192","25","Kafkaesque Koffka","3.2.5","yes","598477b2b83f69022949e7e9","47","green","rectangular","red","rectangular","0","/","664","space","8678","8678","(80, 80, 80)","(0, 123, 0)","(177, 0, 0)","(155, 155, 155)","2","legacy","experiment","[3, 4, 5, 6, 7, 0, 1, 2]","/","2500","3000","0","8","252.758751519","1024","2","48000","-16","main","[(0, -252), (178, -178), (252, 0), (178, 178), (0, 252), (-178, 178), (-252, 0), (-178, -178)]","[]","20","even","5","NA","184200","246213","246213","93418","92408","2021","112626","112626","2021","2021","102096","257998","2019","246213","257331","256541","256541","NA","780","study_X","0","8678","1","yes","1680"
"undefined","undefined","NA","NA","NA","8678","8678","black","no","legacy","legacy","legacy","0","green","(0, 123, 0)","color","present","highProb","circular","same","swap","same","swap","red","(177, 0, 0)","lowProb","lowProb6","circular","uniform","0","undefined","0","0.015625","1","1","21.8333333333","1","3","4192","0","0","0","0","0","0","0","0","29","0","1","0.015625","21.8333333333","3","4192","28","28","28","11/28/18 15:28:36","Default description","yes","<openexp._canvas.legacy.Legacy object at 0x05314BD0>","<openexp._canvas.legacy.Legacy object at 0x053698B0>","<openexp._canvas.legacy.Legacy object at 0x05107C10>","<openexp._canvas.legacy.Legacy object at 0x050FFA30>","<openexp._canvas.legacy.Legacy object at 0x050E2290>","<openexp._canvas.legacy.Legacy object at 0x0530A310>","<openexp._canvas.legacy.Legacy object at 0x05314E30>","<openexp._canvas.legacy.Legacy object at 0x051079F0>","75","SpatProbMultiple3.osexp","C:/Userdata/Michel/SpatProbMultiple3","no","mono","no","18","no","white","no","yes","0.09","98","1050","legacy","315","3","3","1","C:/Userdata/Michel/SpatProbMultiple3/beh/subject-20.csv","legacy","9","192","25","Kafkaesque Koffka","3.2.5","yes","598477b2b83f69022949e7e9","47","green","circular","red","circular","0","\","1165","space","8678","8678","(80, 80, 80)","(0, 123, 0)","(177, 0, 0)","(155, 155, 155)","2","legacy","experiment","[3, 4, 5, 6, 7, 0, 1, 2]","/","2500","3000","0","8","252.758751519","1024","2","48000","-16","main","[(0, -252), (178, -178), (252, 0), (178, 178), (0, 252), (-178, 178), (-252, 0), (-178, -178)]","[]","20","even","2","NA","184200","246213","246213","93418","92408","2021","112626","112626","2021","2021","102096","260383","2019","246213","259214","258425","258425","NA","780","study_X","0","8678","1","yes","1680"
"undefined","undefined","NA","NA","NA","8678","8678","black","no","legacy","legacy","legacy","0","green","(0, 123, 0)","shape","present","lowProb5","circular","same","same","swap","swap","green","(0, 123, 0)","lowProb","lowProb1","rectangular","uniform","0","undefined","0","0.015625","1","1","29.1354166667","1","3","5594","0","0","0","0","0","0","0","0","30","0","1","0.015625","29.1354166667","3","5594","29","29","29","11/28/18 15:28:36","Default description","yes","<openexp._canvas.legacy.Legacy object at 0x05314BD0>","<openexp._canvas.legacy.Legacy object at 0x053698B0>","<openexp._canvas.legacy.Legacy object at 0x05107C10>","<openexp._canvas.legacy.Legacy object at 0x050FFA30>","<openexp._canvas.legacy.Legacy object at 0x050E2290>","<openexp._canvas.legacy.Legacy object at 0x0530A310>","<openexp._canvas.legacy.Legacy object at 0x051078F0>","<openexp._canvas.legacy.Legacy object at 0x051079F0>","75","SpatProbMultiple3.osexp","C:/Userdata/Michel/SpatProbMultiple3","no","mono","no","18","no","white","no","yes","0.09","98","1050","legacy","45","4","4","1","C:/Userdata/Michel/SpatProbMultiple3/beh/subject-20.csv","legacy","9","192","25","Kafkaesque Koffka","3.2.5","yes","598477b2b83f69022949e7e9","47","green","circular","green","rectangular","0","/","1402","space","8678","8678","(80, 80, 80)","(0, 123, 0)","(177, 0, 0)","(155, 155, 155)","2","legacy","experiment","[3, 4, 5, 6, 7, 0, 1, 2]","\","2500","3000","0","8","252.758751519","1024","2","48000","-16","main","[(0, -252), (178, -178), (252, 0), (178, 178), (0, 252), (-178, 178), (-252, 0), (-178, -178)]","[]","20","even","4","NA","184200","246213","246213","93418","92408","2021","112626","112626","2021","2021","102096","263007","2019","246213","261602","260812","260812","NA","780","study_X","0","8678","1","yes","1680"
"undefined","undefined","NA","NA","NA","8678","8678","black","no","legacy","legacy","legacy","0","red","(177, 0, 0)","color","present","highProb","circular","swap","same","same","swap","green","(0, 123, 0)","highProbShape","highProbShape","circular","uniform","1","undefined","0","0.0208333333333","1","1","39.6354166667","1","4","7610","0","0","0","0","0","0","0","0","31","0","1","0.0208333333333","39.6354166667","4","7610","30","30","30","11/28/18 15:28:36","Default description","yes","<openexp._canvas.legacy.Legacy object at 0x05314BD0>","<openexp._canvas.legacy.Legacy object at 0x053698B0>","<openexp._canvas.legacy.Legacy object at 0x05107C10>","<openexp._canvas.legacy.Legacy object at 0x050FFA30>","<openexp._canvas.legacy.Legacy object at 0x050E2290>","<openexp._canvas.legacy.Legacy object at 0x0530A310>","<openexp._canvas.legacy.Legacy object at 0x053695F0>","<openexp._canvas.legacy.Legacy object at 0x051079F0>","75","SpatProbMultiple3.osexp","C:/Userdata/Michel/SpatProbMultiple3","no","mono","no","18","no","white","no","yes","0.09","98","1050","legacy","45","5","5","1","C:/Userdata/Michel/SpatProbMultiple3/beh/subject-20.csv","legacy","9","192","25","Kafkaesque Koffka","3.2.5","yes","598477b2b83f69022949e7e9","47","red","circular","green","circular","0","\","2016","space","8678","8678","(80, 80, 80)","(0, 123, 0)","(177, 0, 0)","(155, 155, 155)","2","legacy","experiment","[3, 4, 5, 6, 7, 0, 1, 2]","\","2500","3000","0","8","252.758751519","1024","2","48000","-16","main","[(0, -252), (178, -178), (252, 0), (178, 178), (0, 252), (-178, 178), (-252, 0), (-178, -178)]","[]","20","even","7","NA","184200","246213","246213","93418","92408","2021","112626","112626","2021","2021","102096","266246","2019","246213","264227","263437","263438","NA","780","study_X","0","8678","1","yes","1680"
"undefined","undefined","NA","NA","NA","8678","8678","black","no","legacy","legacy","legacy","0","green","(0, 123, 0)","shape","absent","highProbOther","rectangular","swap","swap","same","swap","green","(0, 123, 0)","lowProb","lowProb6","rectangular","uniform","1","undefined","0","0.0260416666667","1","1","45.078125","1","5","8655","0","0","0","0","0","0","0","0","32","0","1","0.0260416666667","45.078125","5","8655","31","31","31","11/28/18 15:28:36","Default description","yes","<openexp._canvas.legacy.Legacy object at 0x05314BD0>","<openexp._canvas.legacy.Legacy object at 0x053698B0>","<openexp._canvas.legacy.Legacy object at 0x05107C10>","<openexp._canvas.legacy.Legacy object at 0x050FFA30>","<openexp._canvas.legacy.Legacy object at 0x050E2290>","<openexp._canvas.legacy.Legacy object at 0x0530A310>","<openexp._canvas.legacy.Legacy object at 0x053148B0>","<openexp._canvas.legacy.Legacy object at 0x051079F0>","75","SpatProbMultiple3.osexp","C:/Userdata/Michel/SpatProbMultiple3","no","mono","no","18","no","white","no","yes","0.09","98","1050","legacy","315","6","6","1","C:/Userdata/Michel/SpatProbMultiple3/beh/subject-20.csv","legacy","9","192","25","Kafkaesque Koffka","3.2.5","yes","598477b2b83f69022949e7e9","47","green","rectangular","green","rectangular","0","/","1045","space","8678","8678","(80, 80, 80)","(0, 123, 0)","(177, 0, 0)","(155, 155, 155)","2","legacy","experiment","[3, 4, 5, 6, 7, 0, 1, 2]","/","2500","3000","0","8","252.758751519","1024","2","48000","-16","main","[(0, -252), (178, -178), (252, 0), (178, 178), (0, 252), (-178, 178), (-252, 0), (-178, -178)]","[]","20","even","2","NA","184200","246213","246213","93418","92408","2021","112626","112626","2021","2021","102096","268502","2019","246213","267455","266665","266665","NA","780","study_X","0","8678","1","yes","1680"
"undefined","undefined","NA","NA","NA","8678","8678","black","no","legacy","legacy","legacy","0","green","(0, 123, 0)","shape","present","highProb","circular","same","swap","same","same","green","(0, 123, 0)","lowProb","lowProb4","rectangular","uniform","0","undefined","0","0.0260416666667","1","1","58.0989583333","1","5","11155","0","0","0","0","0","0","0","0","33","0","1","0.0260416666667","58.0989583333","5","11155","32","32","32","11/28/18 15:28:36","Default description","yes","<openexp._canvas.legacy.Legacy object at 0x05314BD0>","<openexp._canvas.legacy.Legacy object at 0x053698B0>","<openexp._canvas.legacy.Legacy object at 0x05107C10>","<openexp._canvas.legacy.Legacy object at 0x050FFA30>","<openexp._canvas.legacy.Legacy object at 0x050E2290>","<openexp._canvas.legacy.Legacy object at 0x0530A310>","<openexp._canvas.legacy.Legacy object at 0x05380430>","<openexp._canvas.legacy.Legacy object at 0x051079F0>","75","SpatProbMultiple3.osexp","C:/Userdata/Michel/SpatProbMultiple3","no","mono","no","18","no","white","no","yes","0.09","98","1050","legacy","45","7","7","1","C:/Userdata/Michel/SpatProbMultiple3/beh/subject-20.csv","legacy","9","192","25","Kafkaesque Koffka","3.2.5","yes","598477b2b83f69022949e7e9","47","green","circular","green","rectangular","0","None","2500","space","8678","8678","(80, 80, 80)","(0, 123, 0)","(177, 0, 0)","(155, 155, 155)","2","legacy","experiment","[3, 4, 5, 6, 7, 0, 1, 2]","\","2500","3000","0","8","252.758751519","1024","2","48000","-16","main","[(0, -252), (178, -178), (252, 0), (178, 178), (0, 252), (-178, 178), (-252, 0), (-178, -178)]","[]","20","even","0","NA","184200","246213","246213","93418","92408","2021","112626","112626","2021","2021","102096","272233","2019","246213","269730","268941","268941","NA","780","study_X","0","8678","1","yes","1680"
"undefined","undefined","NA","NA","NA","8678","8678","black","no","legacy","legacy","legacy","0","red","(177, 0, 0)","color","absent","lowProb3","circular","swap","same","swap","swap","red","(177, 0, 0)","lowProb","lowProb5","circular","uniform","1","undefined","0","0.03125","1","1","64.2239583333","1","6","12331","0","0","0","0","0","0","0","0","34","0","1","0.03125","64.2239583333","6","12331","33","33","33","11/28/18 15:28:36","Default description","yes","<openexp._canvas.legacy.Legacy object at 0x05314BD0>","<openexp._canvas.legacy.Legacy object at 0x053698B0>","<openexp._canvas.legacy.Legacy object at 0x05107C10>","<openexp._canvas.legacy.Legacy object at 0x050FFA30>","<openexp._canvas.legacy.Legacy object at 0x050E2290>","<openexp._canvas.legacy.Legacy object at 0x0530A310>","<openexp._canvas.legacy.Legacy object at 0x05369B10>","<openexp._canvas.legacy.Legacy object at 0x051079F0>","75","SpatProbMultiple3.osexp","C:/Userdata/Michel/SpatProbMultiple3","no","mono","no","18","no","white","no","yes","0.09","98","1050","legacy","45","8","8","1","C:/Userdata/Michel/SpatProbMultiple3/beh/subject-20.csv","legacy","9","192","25","Kafkaesque Koffka","3.2.5","yes","598477b2b83f69022949e7e9","47","red","circular","red","circular","0","\","1176","space","8678","8678","(80, 80, 80)","(0, 123, 0)","(177, 0, 0)","(155, 155, 155)","2","legacy","experiment","[3, 4, 5, 6, 7, 0, 1, 2]","\","2500","3000","0","8","252.758751519","1024","2","48000","-16","main","[(0, -252), (178, -178), (252, 0), (178, 178), (0, 252), (-178, 178), (-252, 0), (-178, -178)]","[]","20","even","1","NA","184200","246213","246213","93418","92408","2021","112626","112626","2021","2021","102096","274622","2019","246213","273443","272654","272654","NA","780","study_X","0","8678","1","yes","1680"
"undefined","undefined","NA","NA","NA","8678","8678","black","no","legacy","legacy","legacy","0","green","(0, 123, 0)","shape","present","highProb","circular","swap","same","swap","swap","green","(0, 123, 0)","lowProb","lowProb2","rectangular","uniform","1","undefined","0","0.0364583333333","1","1","68.4583333333","1","7","13144","0","0","0","0","0","0","0","0","35","0","1","0.0364583333333","68.4583333333","7","13144","34","34","34","11/28/18 15:28:36","Default description","yes","<openexp._canvas.legacy.Legacy object at 0x05314BD0>","<openexp._canvas.legacy.Legacy object at 0x053698B0>","<openexp._canvas.legacy.Legacy object at 0x05107C10>","<openexp._canvas.legacy.Legacy object at 0x050FFA30>","<openexp._canvas.legacy.Legacy object at 0x050E2290>","<openexp._canvas.legacy.Legacy object at 0x0530A310>","<openexp._canvas.legacy.Legacy object at 0x05369890>","<openexp._canvas.legacy.Legacy object at 0x051079F0>","75","SpatProbMultiple3.osexp","C:/Userdata/Michel/SpatProbMultiple3","no","mono","no","18","no","white","no","yes","0.09","98","1050","legacy","315","9","9","1","C:/Userdata/Michel/SpatProbMultiple3/beh/subject-20.csv","legacy","9","192","25","Kafkaesque Koffka","3.2.5","yes","598477b2b83f69022949e7e9","47","green","circular","green","rectangular","0","/","813","space","8678","8678","(80, 80, 80)","(0, 123, 0)","(177, 0, 0)","(155, 155, 155)","2","legacy","experiment","[3, 4, 5, 6, 7, 0, 1, 2]","/","2500","3000","0","8","252.758751519","1024","2","48000","-16","main","[(0, -252), (178, -178), (252, 0), (178, 178), (0, 252), (-178, 178), (-252, 0), (-178, -178)]","[]","20","even","5","NA","184200","246213","246213","93418","92408","2021","112626","112626","2021","2021","102096","276647","2019","246213","275831","275042","275042","NA","780","study_X","0","8678","1","yes","1680"
"undefined","undefined","NA","NA","NA","8678","8678","black","no","legacy","legacy","legacy","0","green","(0, 123, 0)","shape","absent","lowProb2","circular","same","same","same","swap","green","(0, 123, 0)","lowProb","lowProb5","circular","uniform","1","undefined","0","0.0416666666667","1","1","72.3385416667","1","8","13889","0","0","0","0","0","0","0","0","36","0","1","0.0416666666667","72.3385416667","8","13889","35","35","35","11/28/18 15:28:36","Default description","yes","<openexp._canvas.legacy.Legacy object at 0x05314BD0>","<openexp._canvas.legacy.Legacy object at 0x053698B0>","<openexp._canvas.legacy.Legacy object at 0x05107C10>","<openexp._canvas.legacy.Legacy object at 0x050FFA30>","<openexp._canvas.legacy.Legacy object at 0x050E2290>","<openexp._canvas.legacy.Legacy object at 0x0530A310>","<openexp._canvas.legacy.Legacy object at 0x0530F670>","<openexp._canvas.legacy.Legacy object at 0x051079F0>","75","SpatProbMultiple3.osexp","C:/Userdata/Michel/SpatProbMultiple3","no","mono","no","18","no","white","no","yes","0.09","98","1050","legacy","45","10","10","1","C:/Userdata/Michel/SpatProbMultiple3/beh/subject-20.csv","legacy","9","192","25","Kafkaesque Koffka","3.2.5","yes","598477b2b83f69022949e7e9","47","green","circular","green","circular","0","\","745","space","8678","8678","(80, 80, 80)","(0, 123, 0)","(177, 0, 0)","(155, 155, 155)","2","legacy","experiment","[3, 4, 5, 6, 7, 0, 1, 2]","\","2500","3000","0","8","252.758751519","1024","2","48000","-16","main","[(0, -252), (178, -178), (252, 0), (178, 178), (0, 252), (-178, 178), (-252, 0), (-178, -178)]","[]","20","even","1","NA","184200","246213","246213","93418","92408","2021","112626","112626","2021","2021","102096","278615","2019","246213","277867","277077","277077","NA","780","study_X","0","8678","1","yes","1680"
"undefined","undefined","NA","NA","NA","8678","8678","black","no","legacy","legacy","legacy","0","green","(0, 123, 0)","shape","absent","highProbOther","rectangular","same","swap","same","swap","green","(0, 123, 0)","highProbShape","highProbShape","rectangular","uniform","1","undefined","0","0.046875","1","1","77.0208333333","1","9","14788","0","0","0","0","0","0","0","0","37","0","1","0.046875","77.0208333333","9","14788","36","36","36","11/28/18 15:28:36","Default description","yes","<openexp._canvas.legacy.Legacy object at 0x05314BD0>","<openexp._canvas.legacy.Legacy object at 0x053698B0>","<openexp._canvas.legacy.Legacy object at 0x05107C10>","<openexp._canvas.legacy.Legacy object at 0x050FFA30>","<openexp._canvas.legacy.Legacy object at 0x050E2290>","<openexp._canvas.legacy.Legacy object at 0x0530A310>","<openexp._canvas.legacy.Legacy object at 0x053738F0>","<openexp._canvas.legacy.Legacy object at 0x051079F0>","75","SpatProbMultiple3.osexp","C:/Userdata/Michel/SpatProbMultiple3","no","mono","no","18","no","white","no","yes","0.09","98","1050","legacy","45","11","11","1","C:/Userdata/Michel/SpatProbMultiple3/beh/subject-20.csv","legacy","9","192","25","Kafkaesque Koffka","3.2.5","yes","598477b2b83f69022949e7e9","47","green","rectangular","green","rectangular","0","\","899","space","8678","8678","(80, 80, 80)","(0, 123, 0)","(177, 0, 0)","(155, 155, 155)","2","legacy","experiment","[3, 4, 5, 6, 7, 0, 1, 2]","\","2500","3000","0","8","252.758751519","1024","2","48000","-16","main","[(0, -252), (178, -178), (252, 0), (178, 178), (0, 252), (-178, 178), (-252, 0), (-178, -178)]","[]","20","even","7","NA","184200","246213","246213","93418","92408","2021","112626","112626","2021","2021","102096","280719","2019","246213","279817","279029","279029","NA","780","study_X","0","8678","1","yes","1680"
"undefined","undefined","NA","NA","NA","8678","8678","black","no","legacy","legacy","legacy","0","red","(177, 0, 0)","shape","present","highProb","circular","swap","swap","swap","same","red","(177, 0, 0)","lowProb","lowProb6","rectangular","uniform","1","undefined","0","0.0520833333333","1","1","84.6354166667","1","10","16250","0","0","0","0","0","0","0","0","38","0","1","0.0520833333333","84.6354166667","10","16250","37","37","37","11/28/18 15:28:36","Default description","yes","<openexp._canvas.legacy.Legacy object at 0x05314BD0>","<openexp._canvas.legacy.Legacy object at 0x053698B0>","<openexp._canvas.legacy.Legacy object at 0x05107C10>","<openexp._canvas.legacy.Legacy object at 0x050FFA30>","<openexp._canvas.legacy.Legacy object at 0x050E2290>","<openexp._canvas.legacy.Legacy object at 0x0530A310>","<openexp._canvas.legacy.Legacy object at 0x050FFA70>","<openexp._canvas.legacy.Legacy object at 0x051079F0>","75","SpatProbMultiple3.osexp","C:/Userdata/Michel/SpatProbMultiple3","no","mono","no","18","no","white","no","yes","0.09","98","1050","legacy","45","12","12","1","C:/Userdata/Michel/SpatProbMultiple3/beh/subject-20.csv","legacy","9","192","25","Kafkaesque Koffka","3.2.5","yes","598477b2b83f69022949e7e9","47","red","circular","red","rectangular","0","\","1462","space","8678","8678","(80, 80, 80)","(0, 123, 0)","(177, 0, 0)","(155, 155, 155)","2","legacy","experiment","[3, 4, 5, 6, 7, 0, 1, 2]","\","2500","3000","0","8","252.758751519","1024","2","48000","-16","main","[(0, -252), (178, -178), (252, 0), (178, 178), (0, 252), (-178, 178), (-252, 0), (-178, -178)]","[]","20","even","2","NA","184200","246213","246213","93418","92408","2021","112626","112626","2021","2021","102096","283406","2019","246213","281941","281152","281152","NA","780","study_X","0","8678","1","yes","1680"
"undefined","undefined","NA","NA","NA","8678","8678","black","no","legacy","legacy","legacy","0","red","(177, 0, 0)","color","present","highProb","rectangular","same","swap","swap","same","green","(0, 123, 0)","lowProb","lowProb4","rectangular","uniform","1","undefined","0","0.0572916666667","1","1","92.375","1","11","17736","0","0","0","0","0","0","0","0","39","0","1","0.0572916666667","92.375","11","17736","38","38","38","11/28/18 15:28:36","Default description","yes","<openexp._canvas.legacy.Legacy object at 0x05314BD0>","<openexp._canvas.legacy.Legacy object at 0x053698B0>","<openexp._canvas.legacy.Legacy object at 0x05107C10>","<openexp._canvas.legacy.Legacy object at 0x050FFA30>","<openexp._canvas.legacy.Legacy object at 0x050E2290>","<openexp._canvas.legacy.Legacy object at 0x0530A310>","<openexp._canvas.legacy.Legacy object at 0x05107CF0>","<openexp._canvas.legacy.Legacy object at 0x051079F0>","75","SpatProbMultiple3.osexp","C:/Userdata/Michel/SpatProbMultiple3","no","mono","no","18","no","white","no","yes","0.09","98","1050","legacy","45","13","13","1","C:/Userdata/Michel/SpatProbMultiple3/beh/subject-20.csv","legacy","9","192","25","Kafkaesque Koffka","3.2.5","yes","598477b2b83f69022949e7e9","47","red","rectangular","green","rectangular","0","\","1486","space","8678","8678","(80, 80, 80)","(0, 123, 0)","(177, 0, 0)","(155, 155, 155)","2","legacy","experiment","[3, 4, 5, 6, 7, 0, 1, 2]","\","2500","3000","0","8","252.758751519","1024","2","48000","-16","main","[(0, -252), (178, -178), (252, 0), (178, 178), (0, 252), (-178, 178), (-252, 0), (-178, -178)]","[]","20","even","0","NA","184200","246213","246213","93418","92408","2021","112626","112626","2021","2021","102096","286102","2019","246213","284613","283824","283824","NA","780","study_X","0","8678","1","yes","1680"
"undefined","undefined","NA","NA","NA","8678","8678","black","no","legacy","legacy","legacy","0","green","(0, 123, 0)","color","present","highProb","rectangular","swap","same","swap","same","red","(177, 0, 0)","lowProb","lowProb6","rectangular","uniform","1","undefined","0","0.0625","1","1","100.229166667","1","12","19244","0","0","0","0","0","0","0","0","40","0","1","0.0625","100.229166667","12","19244","39","39","39","11/28/18 15:28:36","Default description","yes","<openexp._canvas.legacy.Legacy object at 0x05314BD0>","<openexp._canvas.legacy.Legacy object at 0x053698B0>","<openexp._canvas.legacy.Legacy object at 0x05107C10>","<openexp._canvas.legacy.Legacy object at 0x050FFA30>","<openexp._canvas.legacy.Legacy object at 0x050E2290>","<openexp._canvas.legacy.Legacy object at 0x0530A310>","<openexp._canvas.legacy.Legacy object at 0x05314310>","<openexp._canvas.legacy.Legacy object at 0x051079F0>","75","SpatProbMultiple3.osexp","C:/Userdata/Michel/SpatProbMultiple3","no","mono","no","18","no","white","no","yes","0.09","98","1050","legacy","315","14","14","1","C:/Userdata/Michel/SpatProbMultiple3/beh/subject-20.csv","legacy","9","192","25","Kafkaesque Koffka","3.2.5","yes","598477b2b83f69022949e7e9","47","green","rectangular","red","rectangular","0","/","1508","space","8678","8678","(80, 80, 80)","(0, 123, 0)","(177, 0, 0)","(155, 155, 155)","2","legacy","experiment","[3, 4, 5, 6, 7, 0, 1, 2]","/","2500","3000","0","8","252.758751519","1024","2","48000","-16","main","[(0, -252), (178, -178), (252, 0), (178, 178), (0, 252), (-178, 178), (-252, 0), (-178, -178)]","[]","20","even","2","NA","184200","246213","246213","93418","92408","2021","112626","112626","2021","2021","102096","288814","2019","246213","287304","286515","286515","NA","780","study_X","0","8678","1","yes","1680"
"undefined","undefined","NA","NA","NA","8678","8678","black","no","legacy","legacy","legacy","0","green","(0, 123, 0)","color","present","highProb","rectangular","same","same","same","same","red","(177, 0, 0)","lowProb","lowProb2","rectangular","uniform","0","undefined","0","0.0625","1","1","103.46875","1","12","19866","0","0","0","0","0","0","0","0","41","0","1","0.0625","103.46875","12","19866","40","40","40","11/28/18 15:28:36","Default description","yes","<openexp._canvas.legacy.Legacy object at 0x05314BD0>","<openexp._canvas.legacy.Legacy object at 0x053698B0>","<openexp._canvas.legacy.Legacy object at 0x05107C10>","<openexp._canvas.legacy.Legacy object at 0x050FFA30>","<openexp._canvas.legacy.Legacy object at 0x050E2290>","<openexp._canvas.legacy.Legacy object at 0x0530A310>","<openexp._canvas.legacy.Legacy object at 0x05397530>","<openexp._canvas.legacy.Legacy object at 0x051079F0>","75","SpatProbMultiple3.osexp","C:/Userdata/Michel/SpatProbMultiple3","no","mono","no","18","no","white","no","yes","0.09","98","1050","legacy","315","15","15","1","C:/Userdata/Michel/SpatProbMultiple3/beh/subject-20.csv","legacy","9","192","25","Kafkaesque Koffka","3.2.5","yes","598477b2b83f69022949e7e9","47","green","rectangular","red","rectangular","0","\","622","space","8678","8678","(80, 80, 80)","(0, 123, 0)","(177, 0, 0)","(155, 155, 155)","2","legacy","experiment","[3, 4, 5, 6, 7, 0, 1, 2]","/","2500","3000","0","8","252.758751519","1024","2","48000","-16","main","[(0, -252), (178, -178), (252, 0), (178, 178), (0, 252), (-178, 178), (-252, 0), (-178, -178)]","[]","20","even","5","NA","184200","246213","246213","93418","92408","2021","112626","112626","2021","2021","102096","290662","2019","246213","290037","289248","289248","NA","780","study_X","0","8678","1","yes","1680"
"undefined","undefined","NA","NA","NA","8678","8678","black","no","legacy","legacy","legacy","0","green","(0, 123, 0)","color","present","highProb","circular","same","swap","same","swap","red","(177, 0, 0)","lowProb","lowProb6","circular","uniform","0","undefined","0","0.0625","1","1","108.229166667","1","12","20780","0","0","0","0","0","0","0","0","42","0","1","0.0625","108.229166667","12","20780","41","41","41","11/28/18 15:28:36","Default description","yes","<openexp._canvas.legacy.Legacy object at 0x05314BD0>","<openexp._canvas.legacy.Legacy object at 0x053698B0>","<openexp._canvas.legacy.Legacy object at 0x05107C10>","<openexp._canvas.legacy.Legacy object at 0x050FFA30>","<openexp._canvas.legacy.Legacy object at 0x050E2290>","<openexp._canvas.legacy.Legacy object at 0x0530A310>","<openexp._canvas.legacy.Legacy object at 0x05373FD0>","<openexp._canvas.legacy.Legacy object at 0x051079F0>","75","SpatProbMultiple3.osexp","C:/Userdata/Michel/SpatProbMultiple3","no","mono","no","18","no","white","no","yes","0.09","98","1050","legacy","315","16","16","1","C:/Userdata/Michel/SpatProbMultiple3/beh/subject-20.csv","legacy","9","192","25","Kafkaesque Koffka","3.2.5","yes","598477b2b83f69022949e7e9","47","green","circular","red","circular","0","\","914","space","8678","8678","(80, 80, 80)","(0, 123, 0)","(177, 0, 0)","(155, 155, 155)","2","legacy","experiment","[3, 4, 5, 6, 7, 0, 1, 2]","/","2500","3000","0","8","252.758751519","1024","2","48000","-16","main","[(0, -252), (178, -178), (252, 0), (178, 178), (0, 252), (-178, 178), (-252, 0), (-178, -178)]","[]","20","even","2","NA","184200","246213","246213","93418","92408","2021","112626","112626","2021","2021","102096","292790","2019","246213","291872","291082","291082","NA","780","study_X","0","8678","1","yes","1680"
"undefined","undefined","NA","NA","NA","8678","8678","black","no","legacy","legacy","legacy","0","green","(0, 123, 0)","color","present","highProb","rectangular","same","swap","same","swap","red","(177, 0, 0)","lowProb","lowProb4","rectangular","uniform","1","undefined","0","0.0677083333333","1","1","114.151041667","1","13","21917","0","0","0","0","0","0","0","0","43","0","1","0.0677083333333","114.151041667","13","21917","42","42","42","11/28/18 15:28:36","Default description","yes","<openexp._canvas.legacy.Legacy object at 0x05314BD0>","<openexp._canvas.legacy.Legacy object at 0x053698B0>","<openexp._canvas.legacy.Legacy object at 0x05107C10>","<openexp._canvas.legacy.Legacy object at 0x050FFA30>","<openexp._canvas.legacy.Legacy object at 0x050E2290>","<openexp._canvas.legacy.Legacy object at 0x0530A310>","<openexp._canvas.legacy.Legacy object at 0x05382D90>","<openexp._canvas.legacy.Legacy object at 0x051079F0>","75","SpatProbMultiple3.osexp","C:/Userdata/Michel/SpatProbMultiple3","no","mono","no","18","no","white","no","yes","0.09","98","1050","legacy","45","17","17","1","C:/Userdata/Michel/SpatProbMultiple3/beh/subject-20.csv","legacy","9","192","25","Kafkaesque Koffka","3.2.5","yes","598477b2b83f69022949e7e9","47","green","rectangular","red","rectangular","0","\","1137","space","8678","8678","(80, 80, 80)","(0, 123, 0)","(177, 0, 0)","(155, 155, 155)","2","legacy","experiment","[3, 4, 5, 6, 7, 0, 1, 2]","\","2500","3000","0","8","252.758751519","1024","2","48000","-16","main","[(0, -252), (178, -178), (252, 0), (178, 178), (0, 252), (-178, 178), (-252, 0), (-178, -178)]","[]","20","even","0","NA","184200","246213","246213","93418","92408","2021","112626","112626","2021","2021","102096","295143","2019","246213","294002","293212","293212","NA","780","study_X","0","8678","1","yes","1680"
"undefined","undefined","NA","NA","NA","8678","8678","black","no","legacy","legacy","legacy","0","green","(0, 123, 0)","shape","present","highProb","rectangular","same","same","swap","swap","green","(0, 123, 0)","lowProb","lowProb5","circular","uniform","1","undefined","0","0.0729166666667","1","1","123.15625","1","14","23646","0","0","0","0","0","0","0","0","44","0","1","0.0729166666667","123.15625","14","23646","43","43","43","11/28/18 15:28:36","Default description","yes","<openexp._canvas.legacy.Legacy object at 0x05314BD0>","<openexp._canvas.legacy.Legacy object at 0x053698B0>","<openexp._canvas.legacy.Legacy object at 0x05107C10>","<openexp._canvas.legacy.Legacy object at 0x050FFA30>","<openexp._canvas.legacy.Legacy object at 0x050E2290>","<openexp._canvas.legacy.Legacy object at 0x0530A310>","<openexp._canvas.legacy.Legacy object at 0x05394070>","<openexp._canvas.legacy.Legacy object at 0x051079F0>","75","SpatProbMultiple3.osexp","C:/Userdata/Michel/SpatProbMultiple3","no","mono","no","18","no","white","no","yes","0.09","98","1050","legacy","45","18","18","1","C:/Userdata/Michel/SpatProbMultiple3/beh/subject-20.csv","legacy","9","192","25","Kafkaesque Koffka","3.2.5","yes","598477b2b83f69022949e7e9","47","green","rectangular","green","circular","0","\","1729","space","8678","8678","(80, 80, 80)","(0, 123, 0)","(177, 0, 0)","(155, 155, 155)","2","legacy","experiment","[3, 4, 5, 6, 7, 0, 1, 2]","\","2500","3000","0","8","252.758751519","1024","2","48000","-16","main","[(0, -252), (178, -178), (252, 0), (178, 178), (0, 252), (-178, 178), (-252, 0), (-178, -178)]","[]","20","even","1","NA","184200","246213","246213","93418","92408","2021","112626","112626","2021","2021","102096","298086","2019","246213","296354","295564","295564","NA","780","study_X","0","8678","1","yes","1680"
"undefined","undefined","NA","NA","NA","8678","8678","black","no","legacy","legacy","legacy","0","green","(0, 123, 0)","shape","present","highProbOther","rectangular","same","same","same","same","green","(0, 123, 0)","lowProb","lowProb4","circular","uniform","0","undefined","0","0.0729166666667","1","1","136.177083333","1","14","26146","0","0","0","0","0","0","0","0","45","0","1","0.0729166666667","136.177083333","14","26146","44","44","44","11/28/18 15:28:36","Default description","yes","<openexp._canvas.legacy.Legacy object at 0x05314BD0>","<openexp._canvas.legacy.Legacy object at 0x053698B0>","<openexp._canvas.legacy.Legacy object at 0x05107C10>","<openexp._canvas.legacy.Legacy object at 0x050FFA30>","<openexp._canvas.legacy.Legacy object at 0x050E2290>","<openexp._canvas.legacy.Legacy object at 0x0530A310>","<openexp._canvas.legacy.Legacy object at 0x05107F90>","<openexp._canvas.legacy.Legacy object at 0x051079F0>","75","SpatProbMultiple3.osexp","C:/Userdata/Michel/SpatProbMultiple3","no","mono","no","18","no","white","no","yes","0.09","98","1050","legacy","315","19","19","1","C:/Userdata/Michel/SpatProbMultiple3/beh/subject-20.csv","legacy","9","192","25","Kafkaesque Koffka","3.2.5","yes","598477b2b83f69022949e7e9","47","green","rectangular","green","circular","0","None","2500","space","8678","8678","(80, 80, 80)","(0, 123, 0)","(177, 0, 0)","(155, 155, 155)","2","legacy","experiment","[3, 4, 5, 6, 7, 0, 1, 2]","/","2500","3000","0","8","252.758751519","1024","2","48000","-16","main","[(0, -252), (178, -178), (252, 0), (178, 178), (0, 252), (-178, 178), (-252, 0), (-178, -178)]","[]","20","even","0","NA","184200","246213","246213","93418","92408","2021","112626","112626","2021","2021","102096","301797","2019","246213","299294","298505","298505","NA","780","study_X","0","8678","1","yes","1680"
"undefined","undefined","NA","NA","NA","8678","8678","black","no","legacy","legacy","legacy","0","green","(0, 123, 0)","shape","present","highProb","rectangular","same","same","same","same","green","(0, 123, 0)","lowProb","lowProb6","circular","uniform","1","undefined","0","0.078125","1","1","141.291666667","1","15","27128","0","0","0","0","0","0","0","0","46","0","1","0.078125","141.291666667","15","27128","45","45","45","11/28/18 15:28:36","Default description","yes","<openexp._canvas.legacy.Legacy object at 0x05314BD0>","<openexp._canvas.legacy.Legacy object at 0x053698B0>","<openexp._canvas.legacy.Legacy object at 0x05107C10>","<openexp._canvas.legacy.Legacy object at 0x050FFA30>","<openexp._canvas.legacy.Legacy object at 0x050E2290>","<openexp._canvas.legacy.Legacy object at 0x0530A310>","<openexp._canvas.legacy.Legacy object at 0x052F9A90>","<openexp._canvas.legacy.Legacy object at 0x051079F0>","75","SpatProbMultiple3.osexp","C:/Userdata/Michel/SpatProbMultiple3","no","mono","no","18","no","white","no","yes","0.09","98","1050","legacy","45","20","20","1","C:/Userdata/Michel/SpatProbMultiple3/beh/subject-20.csv","legacy","9","192","25","Kafkaesque Koffka","3.2.5","yes","598477b2b83f69022949e7e9","47","green","rectangular","green","circular","0","\","982","space","8678","8678","(80, 80, 80)","(0, 123, 0)","(177, 0, 0)","(155, 155, 155)","2","legacy","experiment","[3, 4, 5, 6, 7, 0, 1, 2]","\","2500","3000","0","8","252.758751519","1024","2","48000","-16","main","[(0, -252), (178, -178), (252, 0), (178, 178), (0, 252), (-178, 178), (-252, 0), (-178, -178)]","[]","20","even","2","NA","184200","246213","246213","93418","92408","2021","112626","112626","2021","2021","102096","303998","2019","246213","303013","302224","302224","NA","780","study_X","0","8678","1","yes","1680"
"undefined","undefined","NA","NA","NA","8678","8678","black","no","legacy","legacy","legacy","0","red","(177, 0, 0)","shape","present","lowProb1","circular","swap","swap","swap","swap","red","(177, 0, 0)","lowProb","lowProb4","rectangular","uniform","0","undefined","0","0.078125","1","1","154.3125","1","15","29628","0","0","0","0","0","0","0","0","47","0","1","0.078125","154.3125","15","29628","46","46","46","11/28/18 15:28:36","Default description","yes","<openexp._canvas.legacy.Legacy object at 0x05314BD0>","<openexp._canvas.legacy.Legacy object at 0x053698B0>","<openexp._canvas.legacy.Legacy object at 0x05107C10>","<openexp._canvas.legacy.Legacy object at 0x050FFA30>","<openexp._canvas.legacy.Legacy object at 0x050E2290>","<openexp._canvas.legacy.Legacy object at 0x0530A310>","<openexp._canvas.legacy.Legacy object at 0x05380130>","<openexp._canvas.legacy.Legacy object at 0x051079F0>","75","SpatProbMultiple3.osexp","C:/Userdata/Michel/SpatProbMultiple3","no","mono","no","18","no","white","no","yes","0.09","98","1050","legacy","315","21","21","1","C:/Userdata/Michel/SpatProbMultiple3/beh/subject-20.csv","legacy","9","192","25","Kafkaesque Koffka","3.2.5","yes","598477b2b83f69022949e7e9","47","red","circular","red","rectangular","0","None","2500","space","8678","8678","(80, 80, 80)","(0, 123, 0)","(177, 0, 0)","(155, 155, 155)","2","legacy","experiment","[3, 4, 5, 6, 7, 0, 1, 2]","/","2500","3000","0","8","252.758751519","1024","2","48000","-16","main","[(0, -252), (178, -178), (252, 0), (178, 178), (0, 252), (-178, 178), (-252, 0), (-178, -178)]","[]","20","even","0","NA","184200","246213","246213","93418","92408","2021","112626","112626","2021","2021","102096","307710","2019","246213","305207","304417","304417","NA","780","study_X","0","8678","1","yes","1680"
"undefined","undefined","NA","NA","NA","8678","8678","black","no","legacy","legacy","legacy","0","red","(177, 0, 0)","color","present","highProb","rectangular","same","swap","swap","same","green","(0, 123, 0)","highProbShape","highProbShape","rectangular","uniform","1","undefined","0","0.0833333333333","1","1","161.973958333","1","16","31099","0","0","0","0","0","0","0","0","48","0","1","0.0833333333333","161.973958333","16","31099","47","47","47","11/28/18 15:28:36","Default description","yes","<openexp._canvas.legacy.Legacy object at 0x05314BD0>","<openexp._canvas.legacy.Legacy object at 0x053698B0>","<openexp._canvas.legacy.Legacy object at 0x05107C10>","<openexp._canvas.legacy.Legacy object at 0x050FFA30>","<openexp._canvas.legacy.Legacy object at 0x050E2290>","<openexp._canvas.legacy.Legacy object at 0x0530A310>","<openexp._canvas.legacy.Legacy object at 0x05369A90>","<openexp._canvas.legacy.Legacy object at 0x051079F0>","75","SpatProbMultiple3.osexp","C:/Userdata/Michel/SpatProbMultiple3","no","mono","no","18","no","white","no","yes","0.09","98","1050","legacy","45","22","22","1","C:/Userdata/Michel/SpatProbMultiple3/beh/subject-20.csv","legacy","9","192","25","Kafkaesque Koffka","3.2.5","yes","598477b2b83f69022949e7e9","47","red","rectangular","green","rectangular","0","\","1471","space","8678","8678","(80, 80, 80)","(0, 123, 0)","(177, 0, 0)","(155, 155, 155)","2","legacy","experiment","[3, 4, 5, 6, 7, 0, 1, 2]","\","2500","3000","0","8","252.758751519","1024","2","48000","-16","main","[(0, -252), (178, -178), (252, 0), (178, 178), (0, 252), (-178, 178), (-252, 0), (-178, -178)]","[]","20","even","7","NA","184200","246213","246213","93418","92408","2021","112626","112626","2021","2021","102096","310382","2019","246213","308907","308118","308118","NA","780","study_X","0","8678","1","yes","1680"
"undefined","undefined","NA","NA","NA","8678","8678","black","no","legacy","legacy","legacy","0","red","(177, 0, 0)","shape","present","highProb","circular","same","swap","swap","same","red","(177, 0, 0)","lowProb","lowProb6","rectangular","uniform","1","undefined","0","0.0885416666667","1","1","166.244791667","1","17","31919","0","0","0","0","0","0","0","0","49","0","1","0.0885416666667","166.244791667","17","31919","48","48","48","11/28/18 15:28:36","Default description","yes","<openexp._canvas.legacy.Legacy object at 0x05314BD0>","<openexp._canvas.legacy.Legacy object at 0x053698B0>","<openexp._canvas.legacy.Legacy object at 0x05107C10>","<openexp._canvas.legacy.Legacy object at 0x050FFA30>","<openexp._canvas.legacy.Legacy object at 0x050E2290>","<openexp._canvas.legacy.Legacy object at 0x0530A310>","<openexp._canvas.legacy.Legacy object at 0x05382810>","<openexp._canvas.legacy.Legacy object at 0x051079F0>","75","SpatProbMultiple3.osexp","C:/Userdata/Michel/SpatProbMultiple3","no","mono","no","18","no","white","no","yes","0.09","98","1050","legacy","45","23","23","1","C:/Userdata/Michel/SpatProbMultiple3/beh/subject-20.csv","legacy","9","192","25","Kafkaesque Koffka","3.2.5","yes","598477b2b83f69022949e7e9","47","red","circular","red","rectangular","0","\","820","space","8678","8678","(80, 80, 80)","(0, 123, 0)","(177, 0, 0)","(155, 155, 155)","2","legacy","experiment","[3, 4, 5, 6, 7, 0, 1, 2]","\","2500","3000","0","8","252.758751519","1024","2","48000","-16","main","[(0, -252), (178, -178), (252, 0), (178, 178), (0, 252), (-178, 178), (-252, 0), (-178, -178)]","[]","20","even","2","NA","184200","246213","246213","93418","92408","2021","112626","112626","2021","2021","102096","312414","2019","246213","311591","310801","310801","NA","780","study_X","0","8678","1","yes","1680"
"undefined","undefined","NA","NA","NA","8678","8678","black","no","legacy","legacy","legacy","0","green","(0, 123, 0)","shape","present","highProb","circular","swap","same","swap","same","green","(0, 123, 0)","highProbColor","highProbColor","rectangular","uniform","1","undefined","0","0.09375","1","1","172.776041667","1","18","33173","0","0","0","0","0","0","0","0","50","0","1","0.09375","172.776041667","18","33173","49","49","49","11/28/18 15:28:36","Default description","yes","<openexp._canvas.legacy.Legacy object at 0x05314BD0>","<openexp._canvas.legacy.Legacy object at 0x053698B0>","<openexp._canvas.legacy.Legacy object at 0x05107C10>","<openexp._canvas.legacy.Legacy object at 0x050FFA30>","<openexp._canvas.legacy.Legacy object at 0x050E2290>","<openexp._canvas.legacy.Legacy object at 0x0530A310>","<openexp._canvas.legacy.Legacy object at 0x053981F0>","<openexp._canvas.legacy.Legacy object at 0x051079F0>","75","SpatProbMultiple3.osexp","C:/Userdata/Michel/SpatProbMultiple3","no","mono","no","18","no","white","no","yes","0.09","98","1050","legacy","315","24","24","1","C:/Userdata/Michel/SpatProbMultiple3/beh/subject-20.csv","legacy","9","192","25","Kafkaesque Koffka","3.2.5","yes","598477b2b83f69022949e7e9","47","green","circular","green","rectangular","0","/","1254","space","8678","8678","(80, 80, 80)","(0, 123, 0)","(177, 0, 0)","(155, 155, 155)","2","legacy","experiment","[3, 4, 5, 6, 7, 0, 1, 2]","/","2500","3000","0","8","252.758751519","1024","2","48000","-16","main","[(0, -252), (178, -178), (252, 0), (178, 178), (0, 252), (-178, 178), (-252, 0), (-178, -178)]","[]","20","even","3","NA","184200","246213","246213","93418","92408","2021","112626","112626","2021","2021","102096","314910","2019","246213","313653","312863","312863","NA","780","study_X","0","8678","1","yes","1680"
"undefined","undefined","NA","NA","NA","8678","8678","black","no","legacy","legacy","legacy","0","green","(0, 123, 0)","shape","present","highProb","circular","same","same","same","same","green","(0, 123, 0)","lowProb","lowProb6","rectangular","uniform","1","undefined","0","0.0989583333333","1","1","180.197916667","1","19","34598","0","0","0","0","0","0","0","0","51","0","1","0.0989583333333","180.197916667","19","34598","50","50","50","11/28/18 15:28:36","Default description","yes","<openexp._canvas.legacy.Legacy object at 0x05314BD0>","<openexp._canvas.legacy.Legacy object at 0x053698B0>","<openexp._canvas.legacy.Legacy object at 0x05107C10>","<openexp._canvas.legacy.Legacy object at 0x050FFA30>","<openexp._canvas.legacy.Legacy object at 0x050E2290>","<openexp._canvas.legacy.Legacy object at 0x0530A310>","<openexp._canvas.legacy.Legacy object at 0x0530F910>","<openexp._canvas.legacy.Legacy object at 0x051079F0>","75","SpatProbMultiple3.osexp","C:/Userdata/Michel/SpatProbMultiple3","no","mono","no","18","no","white","no","yes","0.09","98","1050","legacy","45","25","25","1","C:/Userdata/Michel/SpatProbMultiple3/beh/subject-20.csv","legacy","9","192","25","Kafkaesque Koffka","3.2.5","yes","598477b2b83f69022949e7e9","47","green","circular","green","rectangular","0","\","1425","space","8678","8678","(80, 80, 80)","(0, 123, 0)","(177, 0, 0)","(155, 155, 155)","2","legacy","experiment","[3, 4, 5, 6, 7, 0, 1, 2]","\","2500","3000","0","8","252.758751519","1024","2","48000","-16","main","[(0, -252), (178, -178), (252, 0), (178, 178), (0, 252), (-178, 178), (-252, 0), (-178, -178)]","[]","20","even","2","NA","184200","246213","246213","93418","92408","2021","112626","112626","2021","2021","102096","317550","2019","246213","316122","315333","315333","NA","780","study_X","0","8678","1","yes","1680"
"undefined","undefined","NA","NA","NA","8678","8678","black","no","legacy","legacy","legacy","0","green","(0, 123, 0)","shape","present","lowProb5","rectangular","same","swap","same","swap","green","(0, 123, 0)","lowProb","lowProb1","circular","uniform","1","undefined","0","0.104166666667","1","1","188.369791667","1","20","36167","0","0","0","0","0","0","0","0","52","0","1","0.104166666667","188.369791667","20","36167","51","51","51","11/28/18 15:28:36","Default description","yes","<openexp._canvas.legacy.Legacy object at 0x05314BD0>","<openexp._canvas.legacy.Legacy object at 0x053698B0>","<openexp._canvas.legacy.Legacy object at 0x05107C10>","<openexp._canvas.legacy.Legacy object at 0x050FFA30>","<openexp._canvas.legacy.Legacy object at 0x050E2290>","<openexp._canvas.legacy.Legacy object at 0x0530A310>","<openexp._canvas.legacy.Legacy object at 0x05397CB0>","<openexp._canvas.legacy.Legacy object at 0x051079F0>","75","SpatProbMultiple3.osexp","C:/Userdata/Michel/SpatProbMultiple3","no","mono","no","18","no","white","no","yes","0.09","98","1050","legacy","45","26","26","1","C:/Userdata/Michel/SpatProbMultiple3/beh/subject-20.csv","legacy","9","192","25","Kafkaesque Koffka","3.2.5","yes","598477b2b83f69022949e7e9","47","green","rectangular","green","circular","0","\","1569","space","8678","8678","(80, 80, 80)","(0, 123, 0)","(177, 0, 0)","(155, 155, 155)","2","legacy","experiment","[3, 4, 5, 6, 7, 0, 1, 2]","\","2500","3000","0","8","252.758751519","1024","2","48000","-16","main","[(0, -252), (178, -178), (252, 0), (178, 178), (0, 252), (-178, 178), (-252, 0), (-178, -178)]","[]","20","even","4","NA","184200","246213","246213","93418","92408","2021","112626","112626","2021","2021","102096","320326","2019","246213","318755","317965","317965","NA","780","study_X","0","8678","1","yes","1680"
"undefined","undefined","NA","NA","NA","8678","8678","black","no","legacy","legacy","legacy","0","red","(177, 0, 0)","color","present","highProb","circular","swap","swap","same","same","green","(0, 123, 0)","lowProb","lowProb4","circular","uniform","1","undefined","0","0.109375","1","1","194.447916667","1","21","37334","0","0","0","0","0","0","0","0","53","0","1","0.109375","194.447916667","21","37334","52","52","52","11/28/18 15:28:36","Default description","yes","<openexp._canvas.legacy.Legacy object at 0x05314BD0>","<openexp._canvas.legacy.Legacy object at 0x053698B0>","<openexp._canvas.legacy.Legacy object at 0x05107C10>","<openexp._canvas.legacy.Legacy object at 0x050FFA30>","<openexp._canvas.legacy.Legacy object at 0x050E2290>","<openexp._canvas.legacy.Legacy object at 0x0530A310>","<openexp._canvas.legacy.Legacy object at 0x05107C70>","<openexp._canvas.legacy.Legacy object at 0x051079F0>","75","SpatProbMultiple3.osexp","C:/Userdata/Michel/SpatProbMultiple3","no","mono","no","18","no","white","no","yes","0.09","98","1050","legacy","45","27","27","1","C:/Userdata/Michel/SpatProbMultiple3/beh/subject-20.csv","legacy","9","192","25","Kafkaesque Koffka","3.2.5","yes","598477b2b83f69022949e7e9","47","red","circular","green","circular","0","\","1167","space","8678","8678","(80, 80, 80)","(0, 123, 0)","(177, 0, 0)","(155, 155, 155)","2","legacy","experiment","[3, 4, 5, 6, 7, 0, 1, 2]","\","2500","3000","0","8","252.758751519","1024","2","48000","-16","main","[(0, -252), (178, -178), (252, 0), (178, 178), (0, 252), (-178, 178), (-252, 0), (-178, -178)]","[]","20","even","0","NA","184200","246213","246213","93418","92408","2021","112626","112626","2021","2021","102096","322710","2019","246213","321539","320749","320749","NA","780","study_X","0","8678","1","yes","1680"
"undefined","undefined","NA","NA","NA","8678","8678","black","no","legacy","legacy","legacy","0","green","(0, 123, 0)","shape","present","highProb","rectangular","swap","swap","same","same","green","(0, 123, 0)","highProbColor","highProbColor","circular","uniform","1","undefined","0","0.114583333333","1","1","200.317708333","1","22","38461","0","0","0","0","0","0","0","0","54","0","1","0.114583333333","200.317708333","22","38461","53","53","53","11/28/18 15:28:36","Default description","yes","<openexp._canvas.legacy.Legacy object at 0x05314BD0>","<openexp._canvas.legacy.Legacy object at 0x053698B0>","<openexp._canvas.legacy.Legacy object at 0x05107C10>","<openexp._canvas.legacy.Legacy object at 0x050FFA30>","<openexp._canvas.legacy.Legacy object at 0x050E2290>","<openexp._canvas.legacy.Legacy object at 0x0530A310>","<openexp._canvas.legacy.Legacy object at 0x05373BF0>","<openexp._canvas.legacy.Legacy object at 0x051079F0>","75","SpatProbMultiple3.osexp","C:/Userdata/Michel/SpatProbMultiple3","no","mono","no","18","no","white","no","yes","0.09","98","1050","legacy","315","28","28","1","C:/Userdata/Michel/SpatProbMultiple3/beh/subject-20.csv","legacy","9","192","25","Kafkaesque Koffka","3.2.5","yes","598477b2b83f69022949e7e9","47","green","rectangular","green","circular","0","/","1127","space","8678","8678","(80, 80, 80)","(0, 123, 0)","(177, 0, 0)","(155, 155, 155)","2","legacy","experiment","[3, 4, 5, 6, 7, 0, 1, 2]","/","2500","3000","0","8","252.758751519","1024","2","48000","-16","main","[(0, -252), (178, -178), (252, 0), (178, 178), (0, 252), (-178, 178), (-252, 0), (-178, -178)]","[]","20","even","3","NA","184200","246213","246213","93418","92408","2021","112626","112626","2021","2021","102096","325046","2019","246213","323916","323126","323126","NA","780","study_X","0","8678","1","yes","1680"
"undefined","undefined","NA","NA","NA","8678","8678","black","no","legacy","legacy","legacy","0","red","(177, 0, 0)","shape","present","highProb","circular","swap","swap","swap","swap","red","(177, 0, 0)","lowProb","lowProb2","rectangular","uniform","1","undefined","0","0.119791666667","1","1","204.947916667","1","23","39350","0","0","0","0","0","0","0","0","55","0","1","0.119791666667","204.947916667","23","39350","54","54","54","11/28/18 15:28:36","Default description","yes","<openexp._canvas.legacy.Legacy object at 0x05314BD0>","<openexp._canvas.legacy.Legacy object at 0x053698B0>","<openexp._canvas.legacy.Legacy object at 0x05107C10>","<openexp._canvas.legacy.Legacy object at 0x050FFA30>","<openexp._canvas.legacy.Legacy object at 0x050E2290>","<openexp._canvas.legacy.Legacy object at 0x0530A310>","<openexp._canvas.legacy.Legacy object at 0x053822B0>","<openexp._canvas.legacy.Legacy object at 0x051079F0>","75","SpatProbMultiple3.osexp","C:/Userdata/Michel/SpatProbMultiple3","no","mono","no","18","no","white","no","yes","0.09","98","1050","legacy","45","29","29","1","C:/Userdata/Michel/SpatProbMultiple3/beh/subject-20.csv","legacy","9","192","25","Kafkaesque Koffka","3.2.5","yes","598477b2b83f69022949e7e9","47","red","circular","red","rectangular","0","\","889","space","8678","8678","(80, 80, 80)","(0, 123, 0)","(177, 0, 0)","(155, 155, 155)","2","legacy","experiment","[3, 4, 5, 6, 7, 0, 1, 2]","\","2500","3000","0","8","252.758751519","1024","2","48000","-16","main","[(0, -252), (178, -178), (252, 0), (178, 178), (0, 252), (-178, 178), (-252, 0), (-178, -178)]","[]","20","even","5","NA","184200","246213","246213","93418","92408","2021","112626","112626","2021","2021","102096","327142","2019","246213","326249","325459","325460","NA","780","study_X","0","8678","1","yes","1680"
"undefined","undefined","NA","NA","NA","8678","8678","black","no","legacy","legacy","legacy","0","red","(177, 0, 0)","shape","absent","lowProb5","rectangular","same","swap","same","same","red","(177, 0, 0)","highProbColor","highProbColor","rectangular","uniform","1","undefined","0","0.125","1","1","211.328125","1","24","40575","0","0","0","0","0","0","0","0","56","0","1","0.125","211.328125","24","40575","55","55","55","11/28/18 15:28:36","Default description","yes","<openexp._canvas.legacy.Legacy object at 0x05314BD0>","<openexp._canvas.legacy.Legacy object at 0x053698B0>","<openexp._canvas.legacy.Legacy object at 0x05107C10>","<openexp._canvas.legacy.Legacy object at 0x050FFA30>","<openexp._canvas.legacy.Legacy object at 0x050E2290>","<openexp._canvas.legacy.Legacy object at 0x0530A310>","<openexp._canvas.legacy.Legacy object at 0x05407410>","<openexp._canvas.legacy.Legacy object at 0x051079F0>","75","SpatProbMultiple3.osexp","C:/Userdata/Michel/SpatProbMultiple3","no","mono","no","18","no","white","no","yes","0.09","98","1050","legacy","315","30","30","1","C:/Userdata/Michel/SpatProbMultiple3/beh/subject-20.csv","legacy","9","192","25","Kafkaesque Koffka","3.2.5","yes","598477b2b83f69022949e7e9","47","red","rectangular","red","rectangular","0","/","1225","space","8678","8678","(80, 80, 80)","(0, 123, 0)","(177, 0, 0)","(155, 155, 155)","2","legacy","experiment","[3, 4, 5, 6, 7, 0, 1, 2]","/","2500","3000","0","8","252.758751519","1024","2","48000","-16","main","[(0, -252), (178, -178), (252, 0), (178, 178), (0, 252), (-178, 178), (-252, 0), (-178, -178)]","[]","20","even","3","NA","184200","246213","246213","93418","92408","2021","112626","112626","2021","2021","102096","329622","2019","246213","328394","327604","327604","NA","780","study_X","0","8678","1","yes","1680"
"undefined","undefined","NA","NA","NA","8678","8678","black","no","legacy","legacy","legacy","0","red","(177, 0, 0)","shape","present","highProb","circular","same","swap","same","same","red","(177, 0, 0)","lowProb","lowProb1","rectangular","uniform","1","undefined","0","0.130208333333","1","1","216.901041667","1","25","41645","0","0","0","0","0","0","0","0","57","0","1","0.130208333333","216.901041667","25","41645","56","56","56","11/28/18 15:28:36","Default description","yes","<openexp._canvas.legacy.Legacy object at 0x05314BD0>","<openexp._canvas.legacy.Legacy object at 0x053698B0>","<openexp._canvas.legacy.Legacy object at 0x05107C10>","<openexp._canvas.legacy.Legacy object at 0x050FFA30>","<openexp._canvas.legacy.Legacy object at 0x050E2290>","<openexp._canvas.legacy.Legacy object at 0x0530A310>","<openexp._canvas.legacy.Legacy object at 0x05107BF0>","<openexp._canvas.legacy.Legacy object at 0x051079F0>","75","SpatProbMultiple3.osexp","C:/Userdata/Michel/SpatProbMultiple3","no","mono","no","18","no","white","no","yes","0.09","98","1050","legacy","315","31","31","1","C:/Userdata/Michel/SpatProbMultiple3/beh/subject-20.csv","legacy","9","192","25","Kafkaesque Koffka","3.2.5","yes","598477b2b83f69022949e7e9","47","red","circular","red","rectangular","0","/","1070","space","8678","8678","(80, 80, 80)","(0, 123, 0)","(177, 0, 0)","(155, 155, 155)","2","legacy","experiment","[3, 4, 5, 6, 7, 0, 1, 2]","/","2500","3000","0","8","252.758751519","1024","2","48000","-16","main","[(0, -252), (178, -178), (252, 0), (178, 178), (0, 252), (-178, 178), (-252, 0), (-178, -178)]","[]","20","even","4","NA","184200","246213","246213","93418","92408","2021","112626","112626","2021","2021","102096","331902","2019","246213","330829","330040","330040","NA","780","study_X","0","8678","1","yes","1680"
"undefined","undefined","NA","NA","NA","8678","8678","black","no","legacy","legacy","legacy","0","red","(177, 0, 0)","shape","present","highProb","circular","same","same","same","same","red","(177, 0, 0)","lowProb","lowProb4","rectangular","uniform","1","undefined","0","0.135416666667","1","1","228.401041667","1","26","43853","0","0","0","0","0","0","0","0","58","0","1","0.135416666667","228.401041667","26","43853","57","57","57","11/28/18 15:28:36","Default description","yes","<openexp._canvas.legacy.Legacy object at 0x05314BD0>","<openexp._canvas.legacy.Legacy object at 0x053698B0>","<openexp._canvas.legacy.Legacy object at 0x05107C10>","<openexp._canvas.legacy.Legacy object at 0x050FFA30>","<openexp._canvas.legacy.Legacy object at 0x050E2290>","<openexp._canvas.legacy.Legacy object at 0x0530A310>","<openexp._canvas.legacy.Legacy object at 0x0530FA50>","<openexp._canvas.legacy.Legacy object at 0x051079F0>","75","SpatProbMultiple3.osexp","C:/Userdata/Michel/SpatProbMultiple3","no","mono","no","18","no","white","no","yes","0.09","98","1050","legacy","315","32","32","1","C:/Userdata/Michel/SpatProbMultiple3/beh/subject-20.csv","legacy","9","192","25","Kafkaesque Koffka","3.2.5","yes","598477b2b83f69022949e7e9","47","red","circular","red","rectangular","0","/","2208","space","8678","8678","(80, 80, 80)","(0, 123, 0)","(177, 0, 0)","(155, 155, 155)","2","legacy","experiment","[3, 4, 5, 6, 7, 0, 1, 2]","/","2500","3000","0","8","252.758751519","1024","2","48000","-16","main","[(0, -252), (178, -178), (252, 0), (178, 178), (0, 252), (-178, 178), (-252, 0), (-178, -178)]","[]","20","even","0","NA","184200","246213","246213","93418","92408","2021","112626","112626","2021","2021","102096","335326","2019","246213","333115","332325","332326","NA","780","study_X","0","8678","1","yes","1680"
"undefined","undefined","NA","NA","NA","8678","8678","black","no","legacy","legacy","legacy","0","red","(177, 0, 0)","color","present","highProbOther","rectangular","same","swap","swap","same","green","(0, 123, 0)","lowProb","lowProb3","rectangular","uniform","0","undefined","0","0.135416666667","1","1","235.598958333","1","26","45235","0","0","0","0","0","0","0","0","59","0","1","0.135416666667","235.598958333","26","45235","58","58","58","11/28/18 15:28:36","Default description","yes","<openexp._canvas.legacy.Legacy object at 0x05314BD0>","<openexp._canvas.legacy.Legacy object at 0x053698B0>","<openexp._canvas.legacy.Legacy object at 0x05107C10>","<openexp._canvas.legacy.Legacy object at 0x050FFA30>","<openexp._canvas.legacy.Legacy object at 0x050E2290>","<openexp._canvas.legacy.Legacy object at 0x0530A310>","<openexp._canvas.legacy.Legacy object at 0x05382730>","<openexp._canvas.legacy.Legacy object at 0x051079F0>","75","SpatProbMultiple3.osexp","C:/Userdata/Michel/SpatProbMultiple3","no","mono","no","18","no","white","no","yes","0.09","98","1050","legacy","45","33","33","1","C:/Userdata/Michel/SpatProbMultiple3/beh/subject-20.csv","legacy","9","192","25","Kafkaesque Koffka","3.2.5","yes","598477b2b83f69022949e7e9","47","red","rectangular","green","rectangular","0","/","1382","space","8678","8678","(80, 80, 80)","(0, 123, 0)","(177, 0, 0)","(155, 155, 155)","2","legacy","experiment","[3, 4, 5, 6, 7, 0, 1, 2]","\","2500","3000","0","8","252.758751519","1024","2","48000","-16","main","[(0, -252), (178, -178), (252, 0), (178, 178), (0, 252), (-178, 178), (-252, 0), (-178, -178)]","[]","20","even","6","NA","184200","246213","246213","93418","92408","2021","112626","112626","2021","2021","102096","337918","2019","246213","336532","335742","335742","NA","780","study_X","0","8678","1","yes","1680"
"undefined","undefined","NA","NA","NA","8678","8678","black","no","legacy","legacy","legacy","0","red","(177, 0, 0)","color","present","highProb","circular","same","swap","same","swap","green","(0, 123, 0)","lowProb","lowProb4","circular","uniform","1","undefined","0","0.140625","1","1","241.921875","1","27","46449","0","0","0","0","0","0","0","0","60","0","1","0.140625","241.921875","27","46449","59","59","59","11/28/18 15:28:36","Default description","yes","<openexp._canvas.legacy.Legacy object at 0x05314BD0>","<openexp._canvas.legacy.Legacy object at 0x053698B0>","<openexp._canvas.legacy.Legacy object at 0x05107C10>","<openexp._canvas.legacy.Legacy object at 0x050FFA30>","<openexp._canvas.legacy.Legacy object at 0x050E2290>","<openexp._canvas.legacy.Legacy object at 0x0530A310>","<openexp._canvas.legacy.Legacy object at 0x05397330>","<openexp._canvas.legacy.Legacy object at 0x051079F0>","75","SpatProbMultiple3.osexp","C:/Userdata/Michel/SpatProbMultiple3","no","mono","no","18","no","white","no","yes","0.09","98","1050","legacy","45","34","34","1","C:/Userdata/Michel/SpatProbMultiple3/beh/subject-20.csv","legacy","9","192","25","Kafkaesque Koffka","3.2.5","yes","598477b2b83f69022949e7e9","47","red","circular","green","circular","0","\","1214","space","8678","8678","(80, 80, 80)","(0, 123, 0)","(177, 0, 0)","(155, 155, 155)","2","legacy","experiment","[3, 4, 5, 6, 7, 0, 1, 2]","\","2500","3000","0","8","252.758751519","1024","2","48000","-16","main","[(0, -252), (178, -178), (252, 0), (178, 178), (0, 252), (-178, 178), (-252, 0), (-178, -178)]","[]","20","even","0","NA","184200","246213","246213","93418","92408","2021","112626","112626","2021","2021","102096","340350","2019","246213","339132","338342","338342","NA","780","study_X","0","8678","1","yes","1680"
"undefined","undefined","NA","NA","NA","8678","8678","black","no","legacy","legacy","legacy","0","red","(177, 0, 0)","color","present","highProb","circular","same","same","same","same","green","(0, 123, 0)","lowProb","lowProb5","circular","uniform","1","undefined","0","0.145833333333","1","1","246.942708333","1","28","47413","0","0","0","0","0","0","0","0","61","0","1","0.145833333333","246.942708333","28","47413","60","60","60","11/28/18 15:28:36","Default description","yes","<openexp._canvas.legacy.Legacy object at 0x05314BD0>","<openexp._canvas.legacy.Legacy object at 0x053698B0>","<openexp._canvas.legacy.Legacy object at 0x05107C10>","<openexp._canvas.legacy.Legacy object at 0x050FFA30>","<openexp._canvas.legacy.Legacy object at 0x050E2290>","<openexp._canvas.legacy.Legacy object at 0x0530A310>","<openexp._canvas.legacy.Legacy object at 0x05406930>","<openexp._canvas.legacy.Legacy object at 0x051079F0>","75","SpatProbMultiple3.osexp","C:/Userdata/Michel/SpatProbMultiple3","no","mono","no","18","no","white","no","yes","0.09","98","1050","legacy","315","35","35","1","C:/Userdata/Michel/SpatProbMultiple3/beh/subject-20.csv","legacy","9","192","25","Kafkaesque Koffka","3.2.5","yes","598477b2b83f69022949e7e9","47","red","circular","green","circular","0","/","964","space","8678","8678","(80, 80, 80)","(0, 123, 0)","(177, 0, 0)","(155, 155, 155)","2","legacy","experiment","[3, 4, 5, 6, 7, 0, 1, 2]","/","2500","3000","0","8","252.758751519","1024","2","48000","-16","main","[(0, -252), (178, -178), (252, 0), (178, 178), (0, 252), (-178, 178), (-252, 0), (-178, -178)]","[]","20","even","1","NA","184200","246213","246213","93418","92408","2021","112626","112626","2021","2021","102096","342534","2019","246213","341566","340777","340777","NA","780","study_X","0","8678","1","yes","1680"
"undefined","undefined","NA","NA","NA","8678","8678","black","no","legacy","legacy","legacy","0","red","(177, 0, 0)","shape","present","lowProb1","rectangular","same","swap","swap","same","red","(177, 0, 0)","lowProb","lowProb3","circular","uniform","1","undefined","0","0.151041666667","1","1","252.552083333","1","29","48490","0","0","0","0","0","0","0","0","62","0","1","0.151041666667","252.552083333","29","48490","61","61","61","11/28/18 15:28:36","Default description","yes","<openexp._canvas.legacy.Legacy object at 0x05314BD0>","<openexp._canvas.legacy.Legacy object at 0x053698B0>","<openexp._canvas.legacy.Legacy object at 0x05107C10>","<openexp._canvas.legacy.Legacy object at 0x050FFA30>","<openexp._canvas.legacy.Legacy object at 0x050E2290>","<openexp._canvas.legacy.Legacy object at 0x0530A310>","<openexp._canvas.legacy.Legacy object at 0x05397750>","<openexp._canvas.legacy.Legacy object at 0x051079F0>","75","SpatProbMultiple3.osexp","C:/Userdata/Michel/SpatProbMultiple3","no","mono","no","18","no","white","no","yes","0.09","98","1050","legacy","45","36","36","1","C:/Userdata/Michel/SpatProbMultiple3/beh/subject-20.csv","legacy","9","192","25","Kafkaesque Koffka","3.2.5","yes","598477b2b83f69022949e7e9","47","red","rectangular","red","circular","0","\","1077","space","8678","8678","(80, 80, 80)","(0, 123, 0)","(177, 0, 0)","(155, 155, 155)","2","legacy","experiment","[3, 4, 5, 6, 7, 0, 1, 2]","\","2500","3000","0","8","252.758751519","1024","2","48000","-16","main","[(0, -252), (178, -178), (252, 0), (178, 178), (0, 252), (-178, 178), (-252, 0), (-178, -178)]","[]","20","even","6","NA","184200","246213","246213","93418","92408","2021","112626","112626","2021","2021","102096","344821","2019","246213","343741","342952","342952","NA","780","study_X","0","8678","1","yes","1680"
"undefined","undefined","NA","NA","NA","8678","8678","black","no","legacy","legacy","legacy","0","green","(0, 123, 0)","shape","present","highProb","rectangular","swap","same","swap","same","green","(0, 123, 0)","highProbColor","highProbColor","circular","uniform","1","undefined","0","0.15625","1","1","256.177083333","1","30","49186","0","0","0","0","0","0","0","0","63","0","1","0.15625","256.177083333","30","49186","62","62","62","11/28/18 15:28:36","Default description","yes","<openexp._canvas.legacy.Legacy object at 0x05314BD0>","<openexp._canvas.legacy.Legacy object at 0x053698B0>","<openexp._canvas.legacy.Legacy object at 0x05107C10>","<openexp._canvas.legacy.Legacy object at 0x050FFA30>","<openexp._canvas.legacy.Legacy object at 0x050E2290>","<openexp._canvas.legacy.Legacy object at 0x0530A310>","<openexp._canvas.legacy.Legacy object at 0x05394930>","<openexp._canvas.legacy.Legacy object at 0x051079F0>","75","SpatProbMultiple3.osexp","C:/Userdata/Michel/SpatProbMultiple3","no","mono","no","18","no","white","no","yes","0.09","98","1050","legacy","315","37","37","1","C:/Userdata/Michel/SpatProbMultiple3/beh/subject-20.csv","legacy","9","192","25","Kafkaesque Koffka","3.2.5","yes","598477b2b83f69022949e7e9","47","green","rectangular","green","circular","0","/","696","space","8678","8678","(80, 80, 80)","(0, 123, 0)","(177, 0, 0)","(155, 155, 155)","2","legacy","experiment","[3, 4, 5, 6, 7, 0, 1, 2]","/","2500","3000","0","8","252.758751519","1024","2","48000","-16","main","[(0, -252), (178, -178), (252, 0), (178, 178), (0, 252), (-178, 178), (-252, 0), (-178, -178)]","[]","20","even","3","NA","184200","246213","246213","93418","92408","2021","112626","112626","2021","2021","102096","346734","2019","246213","346035","345245","345245","NA","780","study_X","0","8678","1","yes","1680"
"undefined","undefined","NA","NA","NA","8678","8678","black","no","legacy","legacy","legacy","0","red","(177, 0, 0)","shape","present","highProb","rectangular","swap","same","swap","same","red","(177, 0, 0)","lowProb","lowProb6","circular","uniform","1","undefined","0","0.161458333333","1","1","260.140625","1","31","49947","0","0","0","0","0","0","0","0","64","0","1","0.161458333333","260.140625","31","49947","63","63","63","11/28/18 15:28:36","Default description","yes","<openexp._canvas.legacy.Legacy object at 0x05314BD0>","<openexp._canvas.legacy.Legacy object at 0x053698B0>","<openexp._canvas.legacy.Legacy object at 0x05107C10>","<openexp._canvas.legacy.Legacy object at 0x050FFA30>","<openexp._canvas.legacy.Legacy object at 0x050E2290>","<openexp._canvas.legacy.Legacy object at 0x0530A310>","<openexp._canvas.legacy.Legacy object at 0x05314F70>","<openexp._canvas.legacy.Legacy object at 0x051079F0>","75","SpatProbMultiple3.osexp","C:/Userdata/Michel/SpatProbMultiple3","no","mono","no","18","no","white","no","yes","0.09","98","1050","legacy","315","38","38","1","C:/Userdata/Michel/SpatProbMultiple3/beh/subject-20.csv","legacy","9","192","25","Kafkaesque Koffka","3.2.5","yes","598477b2b83f69022949e7e9","47","red","rectangular","red","circular","0","/","761","space","8678","8678","(80, 80, 80)","(0, 123, 0)","(177, 0, 0)","(155, 155, 155)","2","legacy","experiment","[3, 4, 5, 6, 7, 0, 1, 2]","/","2500","3000","0","8","252.758751519","1024","2","48000","-16","main","[(0, -252), (178, -178), (252, 0), (178, 178), (0, 252), (-178, 178), (-252, 0), (-178, -178)]","[]","20","even","2","NA","184200","246213","246213","93418","92408","2021","112626","112626","2021","2021","102096","348710","2019","246213","347946","347157","347157","NA","780","study_X","0","8678","1","yes","1680"
"undefined","undefined","NA","NA","NA","8678","8678","black","no","legacy","legacy","legacy","0","green","(0, 123, 0)","color","present","highProb","circular","swap","swap","same","same","red","(177, 0, 0)","lowProb","lowProb6","circular","uniform","1","undefined","0","0.166666666667","1","1","265.890625","1","32","51051","0","0","0","0","0","0","0","0","65","0","1","0.166666666667","265.890625","32","51051","64","64","64","11/28/18 15:28:36","Default description","yes","<openexp._canvas.legacy.Legacy object at 0x05314BD0>","<openexp._canvas.legacy.Legacy object at 0x053698B0>","<openexp._canvas.legacy.Legacy object at 0x05107C10>","<openexp._canvas.legacy.Legacy object at 0x050FFA30>","<openexp._canvas.legacy.Legacy object at 0x050E2290>","<openexp._canvas.legacy.Legacy object at 0x0530A310>","<openexp._canvas.legacy.Legacy object at 0x05398850>","<openexp._canvas.legacy.Legacy object at 0x051079F0>","75","SpatProbMultiple3.osexp","C:/Userdata/Michel/SpatProbMultiple3","no","mono","no","18","no","white","no","yes","0.09","98","1050","legacy","45","39","39","1","C:/Userdata/Michel/SpatProbMultiple3/beh/subject-20.csv","legacy","9","192","25","Kafkaesque Koffka","3.2.5","yes","598477b2b83f69022949e7e9","47","green","circular","red","circular","0","\","1104","space","8678","8678","(80, 80, 80)","(0, 123, 0)","(177, 0, 0)","(155, 155, 155)","2","legacy","experiment","[3, 4, 5, 6, 7, 0, 1, 2]","\","2500","3000","0","8","252.758751519","1024","2","48000","-16","main","[(0, -252), (178, -178), (252, 0), (178, 178), (0, 252), (-178, 178), (-252, 0), (-178, -178)]","[]","20","even","2","NA","184200","246213","246213","93418","92408","2021","112626","112626","2021","2021","102096","351022","2019","246213","349915","349125","349125","NA","780","study_X","0","8678","1","yes","1680"
"undefined","undefined","NA","NA","NA","8678","8678","black","no","legacy","legacy","legacy","0","green","(0, 123, 0)","color","present","highProb","circular","same","same","same","same","red","(177, 0, 0)","lowProb","lowProb6","circular","uniform","0","undefined","0","0.166666666667","1","1","270.682291667","1","32","51971","0","0","0","0","0","0","0","0","66","0","1","0.166666666667","270.682291667","32","51971","65","65","65","11/28/18 15:28:36","Default description","yes","<openexp._canvas.legacy.Legacy object at 0x05314BD0>","<openexp._canvas.legacy.Legacy object at 0x053698B0>","<openexp._canvas.legacy.Legacy object at 0x05107C10>","<openexp._canvas.legacy.Legacy object at 0x050FFA30>","<openexp._canvas.legacy.Legacy object at 0x050E2290>","<openexp._canvas.legacy.Legacy object at 0x0530A310>","<openexp._canvas.legacy.Legacy object at 0x05394AB0>","<openexp._canvas.legacy.Legacy object at 0x051079F0>","75","SpatProbMultiple3.osexp","C:/Userdata/Michel/SpatProbMultiple3","no","mono","no","18","no","white","no","yes","0.09","98","1050","legacy","315","40","40","1","C:/Userdata/Michel/SpatProbMultiple3/beh/subject-20.csv","legacy","9","192","25","Kafkaesque Koffka","3.2.5","yes","598477b2b83f69022949e7e9","47","green","circular","red","circular","0","\","920","space","8678","8678","(80, 80, 80)","(0, 123, 0)","(177, 0, 0)","(155, 155, 155)","2","legacy","experiment","[3, 4, 5, 6, 7, 0, 1, 2]","/","2500","3000","0","8","252.758751519","1024","2","48000","-16","main","[(0, -252), (178, -178), (252, 0), (178, 178), (0, 252), (-178, 178), (-252, 0), (-178, -178)]","[]","20","even","2","NA","184200","246213","246213","93418","92408","2021","112626","112626","2021","2021","102096","353166","2019","246213","352242","351453","351453","NA","780","study_X","0","8678","1","yes","1680"
"undefined","undefined","NA","NA","NA","8678","8678","black","no","legacy","legacy","legacy","0","red","(177, 0, 0)","shape","present","highProb","rectangular","swap","swap","same","same","red","(177, 0, 0)","lowProb","lowProb4","circular","uniform","0","undefined","0","0.166666666667","1","1","278.447916667","1","32","53462","0","0","0","0","0","0","0","0","67","0","1","0.166666666667","278.447916667","32","53462","66","66","66","11/28/18 15:28:36","Default description","yes","<openexp._canvas.legacy.Legacy object at 0x05314BD0>","<openexp._canvas.legacy.Legacy object at 0x053698B0>","<openexp._canvas.legacy.Legacy object at 0x05107C10>","<openexp._canvas.legacy.Legacy object at 0x050FFA30>","<openexp._canvas.legacy.Legacy object at 0x050E2290>","<openexp._canvas.legacy.Legacy object at 0x0530A310>","<openexp._canvas.legacy.Legacy object at 0x05107410>","<openexp._canvas.legacy.Legacy object at 0x051079F0>","75","SpatProbMultiple3.osexp","C:/Userdata/Michel/SpatProbMultiple3","no","mono","no","18","no","white","no","yes","0.09","98","1050","legacy","315","41","41","1","C:/Userdata/Michel/SpatProbMultiple3/beh/subject-20.csv","legacy","9","192","25","Kafkaesque Koffka","3.2.5","yes","598477b2b83f69022949e7e9","47","red","rectangular","red","circular","0","\","1491","space","8678","8678","(80, 80, 80)","(0, 123, 0)","(177, 0, 0)","(155, 155, 155)","2","legacy","experiment","[3, 4, 5, 6, 7, 0, 1, 2]","/","2500","3000","0","8","252.758751519","1024","2","48000","-16","main","[(0, -252), (178, -178), (252, 0), (178, 178), (0, 252), (-178, 178), (-252, 0), (-178, -178)]","[]","20","even","0","NA","184200","246213","246213","93418","92408","2021","112626","112626","2021","2021","102096","355870","2019","246213","354375","353586","353586","NA","780","study_X","0","8678","1","yes","1680"
"undefined","undefined","NA","NA","NA","8678","8678","black","no","legacy","legacy","legacy","0","green","(0, 123, 0)","color","present","highProb","circular","swap","swap","same","same","red","(177, 0, 0)","lowProb","lowProb3","circular","uniform","0","undefined","0","0.166666666667","1","1","291.46875","1","32","55962","0","0","0","0","0","0","0","0","68","0","1","0.166666666667","291.46875","32","55962","67","67","67","11/28/18 15:28:36","Default description","yes","<openexp._canvas.legacy.Legacy object at 0x05314BD0>","<openexp._canvas.legacy.Legacy object at 0x053698B0>","<openexp._canvas.legacy.Legacy object at 0x05107C10>","<openexp._canvas.legacy.Legacy object at 0x050FFA30>","<openexp._canvas.legacy.Legacy object at 0x050E2290>","<openexp._canvas.legacy.Legacy object at 0x0530A310>","<openexp._canvas.legacy.Legacy object at 0x05406130>","<openexp._canvas.legacy.Legacy object at 0x051079F0>","75","SpatProbMultiple3.osexp","C:/Userdata/Michel/SpatProbMultiple3","no","mono","no","18","no","white","no","yes","0.09","98","1050","legacy","315","42","42","1","C:/Userdata/Michel/SpatProbMultiple3/beh/subject-20.csv","legacy","9","192","25","Kafkaesque Koffka","3.2.5","yes","598477b2b83f69022949e7e9","47","green","circular","red","circular","0","None","2500","space","8678","8678","(80, 80, 80)","(0, 123, 0)","(177, 0, 0)","(155, 155, 155)","2","legacy","experiment","[3, 4, 5, 6, 7, 0, 1, 2]","/","2500","3000","0","8","252.758751519","1024","2","48000","-16","main","[(0, -252), (178, -178), (252, 0), (178, 178), (0, 252), (-178, 178), (-252, 0), (-178, -178)]","[]","20","even","6","NA","184200","246213","246213","93418","92408","2021","112626","112626","2021","2021","102096","359589","2019","246213","357086","356297","356297","NA","780","study_X","0","8678","1","yes","1680"
"undefined","undefined","NA","NA","NA","8678","8678","black","no","legacy","legacy","legacy","0","green","(0, 123, 0)","color","present","highProb","rectangular","same","swap","same","swap","red","(177, 0, 0)","lowProb","lowProb4","rectangular","uniform","1","undefined","0","0.171875","1","1","299.505208333","1","33","57505","0","0","0","0","0","0","0","0","69","0","1","0.171875","299.505208333","33","57505","68","68","68","11/28/18 15:28:36","Default description","yes","<openexp._canvas.legacy.Legacy object at 0x05314BD0>","<openexp._canvas.legacy.Legacy object at 0x053698B0>","<openexp._canvas.legacy.Legacy object at 0x05107C10>","<openexp._canvas.legacy.Legacy object at 0x050FFA30>","<openexp._canvas.legacy.Legacy object at 0x050E2290>","<openexp._canvas.legacy.Legacy object at 0x0530A310>","<openexp._canvas.legacy.Legacy object at 0x05314C10>","<openexp._canvas.legacy.Legacy object at 0x051079F0>","75","SpatProbMultiple3.osexp","C:/Userdata/Michel/SpatProbMultiple3","no","mono","no","18","no","white","no","yes","0.09","98","1050","legacy","45","43","43","1","C:/Userdata/Michel/SpatProbMultiple3/beh/subject-20.csv","legacy","9","192","25","Kafkaesque Koffka","3.2.5","yes","598477b2b83f69022949e7e9","47","green","rectangular","red","rectangular","0","\","1543","space","8678","8678","(80, 80, 80)","(0, 123, 0)","(177, 0, 0)","(155, 155, 155)","2","legacy","experiment","[3, 4, 5, 6, 7, 0, 1, 2]","\","2500","3000","0","8","252.758751519","1024","2","48000","-16","main","[(0, -252), (178, -178), (252, 0), (178, 178), (0, 252), (-178, 178), (-252, 0), (-178, -178)]","[]","20","even","0","NA","184200","246213","246213","93418","92408","2021","112626","112626","2021","2021","102096","362341","2019","246213","360795","360005","360005","NA","780","study_X","0","8678","1","yes","1680"
"undefined","undefined","NA","NA","NA","8678","8678","black","no","legacy","legacy","legacy","0","red","(177, 0, 0)","shape","present","highProb","rectangular","swap","same","same","swap","red","(177, 0, 0)","lowProb","lowProb5","circular","uniform","1","undefined","0","0.177083333333","1","1","310.098958333","1","34","59539","0","0","0","0","0","0","0","0","70","0","1","0.177083333333","310.098958333","34","59539","69","69","69","11/28/18 15:28:36","Default description","yes","<openexp._canvas.legacy.Legacy object at 0x05314BD0>","<openexp._canvas.legacy.Legacy object at 0x053698B0>","<openexp._canvas.legacy.Legacy object at 0x05107C10>","<openexp._canvas.legacy.Legacy object at 0x050FFA30>","<openexp._canvas.legacy.Legacy object at 0x050E2290>","<openexp._canvas.legacy.Legacy object at 0x0530A310>","<openexp._canvas.legacy.Legacy object at 0x05107470>","<openexp._canvas.legacy.Legacy object at 0x051079F0>","75","SpatProbMultiple3.osexp","C:/Userdata/Michel/SpatProbMultiple3","no","mono","no","18","no","white","no","yes","0.09","98","1050","legacy","45","44","44","1","C:/Userdata/Michel/SpatProbMultiple3/beh/subject-20.csv","legacy","9","192","25","Kafkaesque Koffka","3.2.5","yes","598477b2b83f69022949e7e9","47","red","rectangular","red","circular","0","\","2034","space","8678","8678","(80, 80, 80)","(0, 123, 0)","(177, 0, 0)","(155, 155, 155)","2","legacy","experiment","[3, 4, 5, 6, 7, 0, 1, 2]","\","2500","3000","0","8","252.758751519","1024","2","48000","-16","main","[(0, -252), (178, -178), (252, 0), (178, 178), (0, 252), (-178, 178), (-252, 0), (-178, -178)]","[]","20","even","1","NA","184200","246213","246213","93418","92408","2021","112626","112626","2021","2021","102096","365590","2019","246213","363553","362763","362763","NA","780","study_X","0","8678","1","yes","1680"
"undefined","undefined","NA","NA","NA","8678","8678","black","no","legacy","legacy","legacy","0","red","(177, 0, 0)","shape","present","highProbOther","circular","same","swap","same","swap","red","(177, 0, 0)","lowProb","lowProb3","rectangular","uniform","0","undefined","0","0.177083333333","1","1","323.119791667","1","34","62039","0","0","0","0","0","0","0","0","71","0","1","0.177083333333","323.119791667","34","62039","70","70","70","11/28/18 15:28:36","Default description","yes","<openexp._canvas.legacy.Legacy object at 0x05314BD0>","<openexp._canvas.legacy.Legacy object at 0x053698B0>","<openexp._canvas.legacy.Legacy object at 0x05107C10>","<openexp._canvas.legacy.Legacy object at 0x050FFA30>","<openexp._canvas.legacy.Legacy object at 0x050E2290>","<openexp._canvas.legacy.Legacy object at 0x0530A310>","<openexp._canvas.legacy.Legacy object at 0x05382730>","<openexp._canvas.legacy.Legacy object at 0x051079F0>","75","SpatProbMultiple3.osexp","C:/Userdata/Michel/SpatProbMultiple3","no","mono","no","18","no","white","no","yes","0.09","98","1050","legacy","45","45","45","1","C:/Userdata/Michel/SpatProbMultiple3/beh/subject-20.csv","legacy","9","192","25","Kafkaesque Koffka","3.2.5","yes","598477b2b83f69022949e7e9","47","red","circular","red","rectangular","0","None","2500","space","8678","8678","(80, 80, 80)","(0, 123, 0)","(177, 0, 0)","(155, 155, 155)","2","legacy","experiment","[3, 4, 5, 6, 7, 0, 1, 2]","\","2500","3000","0","8","252.758751519","1024","2","48000","-16","main","[(0, -252), (178, -178), (252, 0), (178, 178), (0, 252), (-178, 178), (-252, 0), (-178, -178)]","[]","20","even","6","NA","184200","246213","246213","93418","92408","2021","112626","112626","2021","2021","102096","369302","2019","246213","366799","366010","366010","NA","780","study_X","0","8678","1","yes","1680"
"undefined","undefined","NA","NA","NA","8678","8678","black","no","legacy","legacy","legacy","0","green","(0, 123, 0)","shape","present","highProb","rectangular","swap","swap","swap","swap","green","(0, 123, 0)","lowProb","lowProb3","circular","uniform","1","undefined","0","0.182291666667","1","1","330.578125","1","35","63471","0","0","0","0","0","0","0","0","72","0","1","0.182291666667","330.578125","35","63471","71","71","71","11/28/18 15:28:36","Default description","yes","<openexp._canvas.legacy.Legacy object at 0x05314BD0>","<openexp._canvas.legacy.Legacy object at 0x053698B0>","<openexp._canvas.legacy.Legacy object at 0x05107C10>","<openexp._canvas.legacy.Legacy object at 0x050FFA30>","<openexp._canvas.legacy.Legacy object at 0x050E2290>","<openexp._canvas.legacy.Legacy object at 0x0530A310>","<openexp._canvas.legacy.Legacy object at 0x05314170>","<openexp._canvas.legacy.Legacy object at 0x051079F0>","75","SpatProbMultiple3.osexp","C:/Userdata/Michel/SpatProbMultiple3","no","mono","no","18","no","white","no","yes","0.09","98","1050","legacy","45","46","46","1","C:/Userdata/Michel/SpatProbMultiple3/beh/subject-20.csv","legacy","9","192","25","Kafkaesque Koffka","3.2.5","yes","598477b2b83f69022949e7e9","47","green","rectangular","green","circular","0","\","1432","space","8678","8678","(80, 80, 80)","(0, 123, 0)","(177, 0, 0)","(155, 155, 155)","2","legacy","experiment","[3, 4, 5, 6, 7, 0, 1, 2]","\","2500","3000","0","8","252.758751519","1024","2","48000","-16","main","[(0, -252), (178, -178), (252, 0), (178, 178), (0, 252), (-178, 178), (-252, 0), (-178, -178)]","[]","20","even","6","NA","184200","246213","246213","93418","92408","2021","112626","112626","2021","2021","102096","371942","2019","246213","370507","369717","369717","NA","780","study_X","0","8678","1","yes","1680"
"undefined","undefined","NA","NA","NA","8678","8678","black","no","legacy","legacy","legacy","0","red","(177, 0, 0)","shape","present","highProb","circular","swap","swap","swap","swap","red","(177, 0, 0)","lowProb","lowProb2","rectangular","uniform","0","undefined","0","0.182291666667","1","1","343.598958333","1","35","65971","0","0","0","0","0","0","0","0","73","0","1","0.182291666667","343.598958333","35","65971","72","72","72","11/28/18 15:28:36","Default description","yes","<openexp._canvas.legacy.Legacy object at 0x05314BD0>","<openexp._canvas.legacy.Legacy object at 0x053698B0>","<openexp._canvas.legacy.Legacy object at 0x05107C10>","<openexp._canvas.legacy.Legacy object at 0x050FFA30>","<openexp._canvas.legacy.Legacy object at 0x050E2290>","<openexp._canvas.legacy.Legacy object at 0x0530A310>","<openexp._canvas.legacy.Legacy object at 0x05407110>","<openexp._canvas.legacy.Legacy object at 0x051079F0>","75","SpatProbMultiple3.osexp","C:/Userdata/Michel/SpatProbMultiple3","no","mono","no","18","no","white","no","yes","0.09","98","1050","legacy","45","47","47","1","C:/Userdata/Michel/SpatProbMultiple3/beh/subject-20.csv","legacy","9","192","25","Kafkaesque Koffka","3.2.5","yes","598477b2b83f69022949e7e9","47","red","circular","red","rectangular","0","None","2500","space","8678","8678","(80, 80, 80)","(0, 123, 0)","(177, 0, 0)","(155, 155, 155)","2","legacy","experiment","[3, 4, 5, 6, 7, 0, 1, 2]","\","2500","3000","0","8","252.758751519","1024","2","48000","-16","main","[(0, -252), (178, -178), (252, 0), (178, 178), (0, 252), (-178, 178), (-252, 0), (-178, -178)]","[]","20","even","5","NA","184200","246213","246213","93418","92408","2021","112626","112626","2021","2021","102096","375650","2019","246213","373148","372359","372359","NA","780","study_X","0","8678","1","yes","1680"
"undefined","undefined","NA","NA","NA","8678","8678","black","no","legacy","legacy","legacy","0","red","(177, 0, 0)","shape","present","lowProb2","circular","same","same","same","same","red","(177, 0, 0)","highProbShape","highProbShape","rectangular","uniform","1","undefined","0","0.1875","1","1","355.270833333","1","36","68212","0","0","0","0","0","0","0","0","74","0","1","0.1875","355.270833333","36","68212","73","73","73","11/28/18 15:28:36","Default description","yes","<openexp._canvas.legacy.Legacy object at 0x05314BD0>","<openexp._canvas.legacy.Legacy object at 0x053698B0>","<openexp._canvas.legacy.Legacy object at 0x05107C10>","<openexp._canvas.legacy.Legacy object at 0x050FFA30>","<openexp._canvas.legacy.Legacy object at 0x050E2290>","<openexp._canvas.legacy.Legacy object at 0x0530A310>","<openexp._canvas.legacy.Legacy object at 0x05406C90>","<openexp._canvas.legacy.Legacy object at 0x051079F0>","75","SpatProbMultiple3.osexp","C:/Userdata/Michel/SpatProbMultiple3","no","mono","no","18","no","white","no","yes","0.09","98","1050","legacy","45","48","48","1","C:/Userdata/Michel/SpatProbMultiple3/beh/subject-20.csv","legacy","9","192","25","Kafkaesque Koffka","3.2.5","yes","598477b2b83f69022949e7e9","47","red","circular","red","rectangular","0","\","2241","space","8678","8678","(80, 80, 80)","(0, 123, 0)","(177, 0, 0)","(155, 155, 155)","2","legacy","experiment","[3, 4, 5, 6, 7, 0, 1, 2]","\","2500","3000","0","8","252.758751519","1024","2","48000","-16","main","[(0, -252), (178, -178), (252, 0), (178, 178), (0, 252), (-178, 178), (-252, 0), (-178, -178)]","[]","20","even","7","NA","184200","246213","246213","93418","92408","2021","112626","112626","2021","2021","102096","379101","2019","246213","376858","376069","376069","NA","780","study_X","0","8678","1","yes","1680"
"undefined","undefined","NA","NA","NA","8678","8678","black","no","legacy","legacy","legacy","0","red","(177, 0, 0)","shape","present","lowProb2","rectangular","same","swap","same","swap","red","(177, 0, 0)","highProbColor","highProbColor","circular","uniform","1","undefined","0","0.192708333333","1","1","362.494791667","1","37","69599","0","0","0","0","0","0","0","0","75","0","1","0.192708333333","362.494791667","37","69599","74","74","74","11/28/18 15:28:36","Default description","yes","<openexp._canvas.legacy.Legacy object at 0x05314BD0>","<openexp._canvas.legacy.Legacy object at 0x053698B0>","<openexp._canvas.legacy.Legacy object at 0x05107C10>","<openexp._canvas.legacy.Legacy object at 0x050FFA30>","<openexp._canvas.legacy.Legacy object at 0x050E2290>","<openexp._canvas.legacy.Legacy object at 0x0530A310>","<openexp._canvas.legacy.Legacy object at 0x05107410>","<openexp._canvas.legacy.Legacy object at 0x051079F0>","75","SpatProbMultiple3.osexp","C:/Userdata/Michel/SpatProbMultiple3","no","mono","no","18","no","white","no","yes","0.09","98","1050","legacy","315","49","49","1","C:/Userdata/Michel/SpatProbMultiple3/beh/subject-20.csv","legacy","9","192","25","Kafkaesque Koffka","3.2.5","yes","598477b2b83f69022949e7e9","47","red","rectangular","red","circular","0","/","1387","space","8678","8678","(80, 80, 80)","(0, 123, 0)","(177, 0, 0)","(155, 155, 155)","2","legacy","experiment","[3, 4, 5, 6, 7, 0, 1, 2]","/","2500","3000","0","8","252.758751519","1024","2","48000","-16","main","[(0, -252), (178, -178), (252, 0), (178, 178), (0, 252), (-178, 178), (-252, 0), (-178, -178)]","[]","20","even","3","NA","184200","246213","246213","93418","92408","2021","112626","112626","2021","2021","102096","381694","2019","246213","380304","379514","379514","NA","780","study_X","0","8678","1","yes","1680"
"undefined","undefined","NA","NA","NA","8678","8678","black","no","legacy","legacy","legacy","0","green","(0, 123, 0)","color","present","highProb","circular","swap","swap","same","same","red","(177, 0, 0)","lowProb","lowProb6","circular","uniform","1","undefined","0","0.197916666667","1","1","371.036458333","1","38","71239","0","0","0","0","0","0","0","0","76","0","1","0.197916666667","371.036458333","38","71239","75","75","75","11/28/18 15:28:36","Default description","yes","<openexp._canvas.legacy.Legacy object at 0x05314BD0>","<openexp._canvas.legacy.Legacy object at 0x053698B0>","<openexp._canvas.legacy.Legacy object at 0x05107C10>","<openexp._canvas.legacy.Legacy object at 0x050FFA30>","<openexp._canvas.legacy.Legacy object at 0x050E2290>","<openexp._canvas.legacy.Legacy object at 0x0530A310>","<openexp._canvas.legacy.Legacy object at 0x05107550>","<openexp._canvas.legacy.Legacy object at 0x051079F0>","75","SpatProbMultiple3.osexp","C:/Userdata/Michel/SpatProbMultiple3","no","mono","no","18","no","white","no","yes","0.09","98","1050","legacy","315","50","50","1","C:/Userdata/Michel/SpatProbMultiple3/beh/subject-20.csv","legacy","9","192","25","Kafkaesque Koffka","3.2.5","yes","598477b2b83f69022949e7e9","47","green","circular","red","circular","0","/","1640","space","8678","8678","(80, 80, 80)","(0, 123, 0)","(177, 0, 0)","(155, 155, 155)","2","legacy","experiment","[3, 4, 5, 6, 7, 0, 1, 2]","/","2500","3000","0","8","252.758751519","1024","2","48000","-16","main","[(0, -252), (178, -178), (252, 0), (178, 178), (0, 252), (-178, 178), (-252, 0), (-178, -178)]","[]","20","even","2","NA","184200","246213","246213","93418","92408","2021","112626","112626","2021","2021","102096","384550","2019","246213","382906","382117","382117","NA","780","study_X","0","8678","1","yes","1680"
"undefined","undefined","NA","NA","NA","8678","8678","black","no","legacy","legacy","legacy","0","red","(177, 0, 0)","shape","present","lowProb5","rectangular","swap","swap","same","same","red","(177, 0, 0)","lowProb","lowProb3","circular","uniform","1","undefined","0","0.203125","1","1","376.802083333","1","39","72346","0","0","0","0","0","0","0","0","77","0","1","0.203125","376.802083333","39","72346","76","76","76","11/28/18 15:28:36","Default description","yes","<openexp._canvas.legacy.Legacy object at 0x05314BD0>","<openexp._canvas.legacy.Legacy object at 0x053698B0>","<openexp._canvas.legacy.Legacy object at 0x05107C10>","<openexp._canvas.legacy.Legacy object at 0x050FFA30>","<openexp._canvas.legacy.Legacy object at 0x050E2290>","<openexp._canvas.legacy.Legacy object at 0x0530A310>","<openexp._canvas.legacy.Legacy object at 0x05107BF0>","<openexp._canvas.legacy.Legacy object at 0x051079F0>","75","SpatProbMultiple3.osexp","C:/Userdata/Michel/SpatProbMultiple3","no","mono","no","18","no","white","no","yes","0.09","98","1050","legacy","45","51","51","1","C:/Userdata/Michel/SpatProbMultiple3/beh/subject-20.csv","legacy","9","192","25","Kafkaesque Koffka","3.2.5","yes","598477b2b83f69022949e7e9","47","red","rectangular","red","circular","0","\","1107","space","8678","8678","(80, 80, 80)","(0, 123, 0)","(177, 0, 0)","(155, 155, 155)","2","legacy","experiment","[3, 4, 5, 6, 7, 0, 1, 2]","\","2500","3000","0","8","252.758751519","1024","2","48000","-16","main","[(0, -252), (178, -178), (252, 0), (178, 178), (0, 252), (-178, 178), (-252, 0), (-178, -178)]","[]","20","even","6","NA","184200","246213","246213","93418","92408","2021","112626","112626","2021","2021","102096","386870","2019","246213","385759","384970","384970","NA","780","study_X","0","8678","1","yes","1680"
"undefined","undefined","NA","NA","NA","8678","8678","black","no","legacy","legacy","legacy","0","red","(177, 0, 0)","shape","present","lowProb4","circular","same","swap","same","swap","red","(177, 0, 0)","lowProb","lowProb1","rectangular","uniform","1","undefined","0","0.208333333333","1","1","387.432291667","1","40","74387","0","0","0","0","0","0","0","0","78","0","1","0.208333333333","387.432291667","40","74387","77","77","77","11/28/18 15:28:36","Default description","yes","<openexp._canvas.legacy.Legacy object at 0x05314BD0>","<openexp._canvas.legacy.Legacy object at 0x053698B0>","<openexp._canvas.legacy.Legacy object at 0x05107C10>","<openexp._canvas.legacy.Legacy object at 0x050FFA30>","<openexp._canvas.legacy.Legacy object at 0x050E2290>","<openexp._canvas.legacy.Legacy object at 0x0530A310>","<openexp._canvas.legacy.Legacy object at 0x05394310>","<openexp._canvas.legacy.Legacy object at 0x051079F0>","75","SpatProbMultiple3.osexp","C:/Userdata/Michel/SpatProbMultiple3","no","mono","no","18","no","white","no","yes","0.09","98","1050","legacy","45","52","52","1","C:/Userdata/Michel/SpatProbMultiple3/beh/subject-20.csv","legacy","9","192","25","Kafkaesque Koffka","3.2.5","yes","598477b2b83f69022949e7e9","47","red","circular","red","rectangular","0","\","2041","space","8678","8678","(80, 80, 80)","(0, 123, 0)","(177, 0, 0)","(155, 155, 155)","2","legacy","experiment","[3, 4, 5, 6, 7, 0, 1, 2]","\","2500","3000","0","8","252.758751519","1024","2","48000","-16","main","[(0, -252), (178, -178), (252, 0), (178, 178), (0, 252), (-178, 178), (-252, 0), (-178, -178)]","[]","20","even","4","NA","184200","246213","246213","93418","92408","2021","112626","112626","2021","2021","102096","390126","2019","246213","388081","387292","387292","NA","780","study_X","0","8678","1","yes","1680"
