"acc","accuracy","average_response_time","avg_rt","background","bidi","canvas_backend","clock_backend","color_backend","compensation","cond_disColor","cond_disColorRGB","cond_disFeature","cond_disPresent","cond_disProbability","cond_disShape","cond_primingDisColor","cond_primingDisShape","cond_primingTarColor","cond_primingTarShape","cond_tarColor","cond_tarColorRGB","cond_tarLocation","cond_tarLocationLong","cond_tarShape","coordinates","correct","correct_continuePress","count_blockAcc","count_blockFeed","count_blockLoop","count_blockRT","count_blockSeq","count_blockSumCorrect","count_blockSumRT","count_continuePress","count_example","count_expSettings","count_exp_mainLoop","count_experiment","count_instructions","count_instructions1","count_instructions2","count_log","count_main","count_prepCanvas","count_totalAcc","count_totalRT","count_totalSumCorrect","count_totalSumRT","count_trialResp","count_trialSeq","count_trialTask","datetime","description","disable_garbage_collection","dispBlank","dispBlockStart","dispFeedBlock","dispFix","dispInstructions","dispSearch","dispStartScreen","distance2screen","experiment_file","experiment_path","font_bold","font_family","font_italic","font_size","font_underline","foreground","form_clicks","fullscreen","gaborFreq","gaborSize","height","keyboard_backend","lineOriTar","live_row","live_row_blockLoop","live_row_exp_mainLoop","logfile","mouse_backend","noExpBlocks","noExpTrials","noPracTrials","opensesame_codename","opensesame_version","osf_always_upload_experiment","osf_id","physical_screensize","previousDisColor","previousDisShape","previousTarColor","previousTarShape","repeat_cycle","response","responseTime","response_continuePress","response_time","response_time_continuePress","rgb_gray","rgb_green","rgb_red","rgb_white","round_decimals","sampler_backend","set_blockType","set_counterPositions","set_respCorrect","set_respTimeoutExp","set_respTimeoutPrac","set_rotation","set_setSize","sizeImaginary","sound_buf_size","sound_channels","sound_freq","sound_sample_size","start","stimPositions","stimuli","subject_nr","subject_parity","tarIdx","time_blockFeed","time_blockLoop","time_blockSeq","time_continuePress","time_example","time_expSettings","time_exp_mainLoop","time_experiment","time_instructions","time_instructions1","time_instructions2","time_log","time_main","time_prepCanvas","time_trialResp","time_trialSeq","time_trialTask","timing_EEGwait","timing_fix","title","total_correct","total_response_time","total_responses","uniform_coordinates","width"
"undefined","undefined","18749","18749","black","no","legacy","legacy","legacy","0","red","(179, 0, 0)","color","present","highProb","rectangular","same","same","swap","swap","green","(0, 122, 0)","highProbShape","highProbShape","rectangular","uniform","0","undefined","0","1","1","13.0208333333","1","0","2500","0","0","0","0","0","0","0","0","25","0","1","0","13.0208333333","0","2500","25","25","25","08/21/17 12:55:26","Default description","yes","<openexp._canvas.legacy.legacy object at 0x04B827F0>","<openexp._canvas.legacy.legacy object at 0x04B8D7B0>","<openexp._canvas.legacy.legacy object at 0x04B7A410>","<openexp._canvas.legacy.legacy object at 0x04C709D0>","<openexp._canvas.legacy.legacy object at 0x04C414B0>","<openexp._canvas.legacy.legacy object at 0x04B7E550>","<openexp._canvas.legacy.legacy object at 0x04C429F0>","75","IndividualPriorityWithDis_v1.osexp","C:/Userdata/Michel/SpatialProb/IndividualPriorityMaps/Experiment2","no","mono","no","18","no","white","no","yes","0.09","98","1050","legacy","315","0","0","1","C:/Userdata/Michel/SpatialProb/IndividualPriorityMaps/Experiment2/data/subject-11.csv","legacy","9","192","25","Jazzy James","3.1.3","yes","598477b2b83f69022949e7e9","47","red","rectangular","green","rectangular","0","None","2500","space","18749","18749","(80, 80, 80)","(0, 122, 0)","(179, 0, 0)","(155, 155, 155)","2","legacy","experiment","[2, 3, 4, 5, 6, 7, 0, 1]","/","2500","3000","0","8","252.758751519","1024","2","48000","-16","main","[(0, -252), (178, -178), (252, 0), (178, 178), (0, 252), (-178, 178), (-252, 0), (-178, -178)]","[]","11","odd","6","352057","423833","423833","205016","204010","1795","256701","256701","1795","1795","223766","432718","1794","423833","430215","424222","424222","NA","916","study_X","0","18749","1","yes","1680"
"undefined","undefined","18749","18749","black","no","legacy","legacy","legacy","0","red","(179, 0, 0)","shape","absent","lowProb6","circular","same","swap","swap","swap","red","(179, 0, 0)","lowProb","lowProb2","circular","uniform","0","undefined","0","1","1","25.8541666667","1","0","4964","0","0","0","0","0","0","0","0","26","0","1","0","25.8541666667","0","4964","26","26","26","08/21/17 12:55:26","Default description","yes","<openexp._canvas.legacy.legacy object at 0x04B827F0>","<openexp._canvas.legacy.legacy object at 0x04B8D7B0>","<openexp._canvas.legacy.legacy object at 0x04B7A410>","<openexp._canvas.legacy.legacy object at 0x04C709D0>","<openexp._canvas.legacy.legacy object at 0x04C414B0>","<openexp._canvas.legacy.legacy object at 0x04B8DFB0>","<openexp._canvas.legacy.legacy object at 0x04C429F0>","75","IndividualPriorityWithDis_v1.osexp","C:/Userdata/Michel/SpatialProb/IndividualPriorityMaps/Experiment2","no","mono","no","18","no","white","no","yes","0.09","98","1050","legacy","45","1","1","1","C:/Userdata/Michel/SpatialProb/IndividualPriorityMaps/Experiment2/data/subject-11.csv","legacy","9","192","25","Jazzy James","3.1.3","yes","598477b2b83f69022949e7e9","47","red","circular","red","circular","0","/","2464","space","18749","18749","(80, 80, 80)","(0, 122, 0)","(179, 0, 0)","(155, 155, 155)","2","legacy","experiment","[2, 3, 4, 5, 6, 7, 0, 1]","\","2500","3000","0","8","252.758751519","1024","2","48000","-16","main","[(0, -252), (178, -178), (252, 0), (178, 178), (0, 252), (-178, 178), (-252, 0), (-178, -178)]","[]","11","odd","4","352057","423833","423833","205016","204010","1795","256701","256701","1795","1795","223766","436540","1794","423833","434073","433151","433151","NA","916","study_X","0","18749","1","yes","1680"
"undefined","undefined","18749","18749","black","no","legacy","legacy","legacy","0","red","(179, 0, 0)","shape","absent","lowProb5","circular","same","same","same","same","red","(179, 0, 0)","lowProb","lowProb4","circular","uniform","1","undefined","0.00520833333333","1","1","34.234375","1","1","6573","0","0","0","0","0","0","0","0","27","0","1","0.00520833333333","34.234375","1","6573","27","27","27","08/21/17 12:55:26","Default description","yes","<openexp._canvas.legacy.legacy object at 0x04B827F0>","<openexp._canvas.legacy.legacy object at 0x04B8D7B0>","<openexp._canvas.legacy.legacy object at 0x04B7A410>","<openexp._canvas.legacy.legacy object at 0x04C709D0>","<openexp._canvas.legacy.legacy object at 0x04C414B0>","<openexp._canvas.legacy.legacy object at 0x04B7F950>","<openexp._canvas.legacy.legacy object at 0x04C429F0>","75","IndividualPriorityWithDis_v1.osexp","C:/Userdata/Michel/SpatialProb/IndividualPriorityMaps/Experiment2","no","mono","no","18","no","white","no","yes","0.09","98","1050","legacy","315","2","2","1","C:/Userdata/Michel/SpatialProb/IndividualPriorityMaps/Experiment2/data/subject-11.csv","legacy","9","192","25","Jazzy James","3.1.3","yes","598477b2b83f69022949e7e9","47","red","circular","red","circular","0","/","1609","space","18749","18749","(80, 80, 80)","(0, 122, 0)","(179, 0, 0)","(155, 155, 155)","2","legacy","experiment","[2, 3, 4, 5, 6, 7, 0, 1]","/","2500","3000","0","8","252.758751519","1024","2","48000","-16","main","[(0, -252), (178, -178), (252, 0), (178, 178), (0, 252), (-178, 178), (-252, 0), (-178, -178)]","[]","11","odd","7","352057","423833","423833","205016","204010","1795","256701","256701","1795","1795","223766","439492","1794","423833","437880","436958","436959","NA","916","study_X","0","18749","1","yes","1680"
"undefined","undefined","18749","18749","black","no","legacy","legacy","legacy","0","red","(179, 0, 0)","color","present","highProb","circular","same","same","swap","same","green","(0, 122, 0)","lowProb","lowProb2","circular","uniform","0","undefined","0.00520833333333","1","1","47.2552083333","1","1","9073","0","0","0","0","0","0","0","0","28","0","1","0.00520833333333","47.2552083333","1","9073","28","28","28","08/21/17 12:55:26","Default description","yes","<openexp._canvas.legacy.legacy object at 0x04B827F0>","<openexp._canvas.legacy.legacy object at 0x04B8D7B0>","<openexp._canvas.legacy.legacy object at 0x04B7A410>","<openexp._canvas.legacy.legacy object at 0x04C709D0>","<openexp._canvas.legacy.legacy object at 0x04C414B0>","<openexp._canvas.legacy.legacy object at 0x04B7A130>","<openexp._canvas.legacy.legacy object at 0x04C429F0>","75","IndividualPriorityWithDis_v1.osexp","C:/Userdata/Michel/SpatialProb/IndividualPriorityMaps/Experiment2","no","mono","no","18","no","white","no","yes","0.09","98","1050","legacy","45","3","3","1","C:/Userdata/Michel/SpatialProb/IndividualPriorityMaps/Experiment2/data/subject-11.csv","legacy","9","192","25","Jazzy James","3.1.3","yes","598477b2b83f69022949e7e9","47","red","circular","green","circular","0","None","2500","space","18749","18749","(80, 80, 80)","(0, 122, 0)","(179, 0, 0)","(155, 155, 155)","2","legacy","experiment","[2, 3, 4, 5, 6, 7, 0, 1]","\","2500","3000","0","8","252.758751519","1024","2","48000","-16","main","[(0, -252), (178, -178), (252, 0), (178, 178), (0, 252), (-178, 178), (-252, 0), (-178, -178)]","[]","11","odd","4","352057","423833","423833","205016","204010","1795","256701","256701","1795","1795","223766","443356","1794","423833","440853","439931","439931","NA","916","study_X","0","18749","1","yes","1680"
"undefined","undefined","18749","18749","black","no","legacy","legacy","legacy","0","green","(0, 122, 0)","color","present","lowProb2","rectangular","swap","swap","swap","swap","red","(179, 0, 0)","lowProb","lowProb1","rectangular","uniform","0","undefined","0.00520833333333","1","1","60.2760416667","1","1","11573","0","0","0","0","0","0","0","0","29","0","1","0.00520833333333","60.2760416667","1","11573","29","29","29","08/21/17 12:55:26","Default description","yes","<openexp._canvas.legacy.legacy object at 0x04B827F0>","<openexp._canvas.legacy.legacy object at 0x04B8D7B0>","<openexp._canvas.legacy.legacy object at 0x04B7A410>","<openexp._canvas.legacy.legacy object at 0x04C709D0>","<openexp._canvas.legacy.legacy object at 0x04C414B0>","<openexp._canvas.legacy.legacy object at 0x04B7FF50>","<openexp._canvas.legacy.legacy object at 0x04C429F0>","75","IndividualPriorityWithDis_v1.osexp","C:/Userdata/Michel/SpatialProb/IndividualPriorityMaps/Experiment2","no","mono","no","18","no","white","no","yes","0.09","98","1050","legacy","45","4","4","1","C:/Userdata/Michel/SpatialProb/IndividualPriorityMaps/Experiment2/data/subject-11.csv","legacy","9","192","25","Jazzy James","3.1.3","yes","598477b2b83f69022949e7e9","47","green","rectangular","red","rectangular","0","None","2500","space","18749","18749","(80, 80, 80)","(0, 122, 0)","(179, 0, 0)","(155, 155, 155)","2","legacy","experiment","[2, 3, 4, 5, 6, 7, 0, 1]","\","2500","3000","0","8","252.758751519","1024","2","48000","-16","main","[(0, -252), (178, -178), (252, 0), (178, 178), (0, 252), (-178, 178), (-252, 0), (-178, -178)]","[]","11","odd","3","352057","423833","423833","205016","204010","1795","256701","256701","1795","1795","223766","447192","1794","423833","444689","443767","443767","NA","916","study_X","0","18749","1","yes","1680"
"undefined","undefined","18749","18749","black","no","legacy","legacy","legacy","0","green","(0, 122, 0)","shape","present","highProb","rectangular","same","same","swap","swap","green","(0, 122, 0)","highProbColor","highProbColor","circular","uniform","0","undefined","0.00520833333333","1","1","73.296875","1","1","14073","0","0","0","0","0","0","0","0","30","0","1","0.00520833333333","73.296875","1","14073","30","30","30","08/21/17 12:55:26","Default description","yes","<openexp._canvas.legacy.legacy object at 0x04B827F0>","<openexp._canvas.legacy.legacy object at 0x04B8D7B0>","<openexp._canvas.legacy.legacy object at 0x04B7A410>","<openexp._canvas.legacy.legacy object at 0x04C709D0>","<openexp._canvas.legacy.legacy object at 0x04C414B0>","<openexp._canvas.legacy.legacy object at 0x04C702B0>","<openexp._canvas.legacy.legacy object at 0x04C429F0>","75","IndividualPriorityWithDis_v1.osexp","C:/Userdata/Michel/SpatialProb/IndividualPriorityMaps/Experiment2","no","mono","no","18","no","white","no","yes","0.09","98","1050","legacy","315","5","5","1","C:/Userdata/Michel/SpatialProb/IndividualPriorityMaps/Experiment2/data/subject-11.csv","legacy","9","192","25","Jazzy James","3.1.3","yes","598477b2b83f69022949e7e9","47","green","rectangular","green","circular","0","None","2500","space","18749","18749","(80, 80, 80)","(0, 122, 0)","(179, 0, 0)","(155, 155, 155)","2","legacy","experiment","[2, 3, 4, 5, 6, 7, 0, 1]","/","2500","3000","0","8","252.758751519","1024","2","48000","-16","main","[(0, -252), (178, -178), (252, 0), (178, 178), (0, 252), (-178, 178), (-252, 0), (-178, -178)]","[]","11","odd","2","352057","423833","423833","205016","204010","1795","256701","256701","1795","1795","223766","451065","1794","423833","448562","447640","447640","NA","916","study_X","0","18749","1","yes","1680"
"undefined","undefined","18749","18749","black","no","legacy","legacy","legacy","0","green","(0, 122, 0)","shape","present","highProb","rectangular","same","same","same","same","green","(0, 122, 0)","lowProb","lowProb6","circular","uniform","0","undefined","0.00520833333333","1","1","86.3177083333","1","1","16573","0","0","0","0","0","0","0","0","31","0","1","0.00520833333333","86.3177083333","1","16573","31","31","31","08/21/17 12:55:26","Default description","yes","<openexp._canvas.legacy.legacy object at 0x04B827F0>","<openexp._canvas.legacy.legacy object at 0x04B8D7B0>","<openexp._canvas.legacy.legacy object at 0x04B7A410>","<openexp._canvas.legacy.legacy object at 0x04C709D0>","<openexp._canvas.legacy.legacy object at 0x04C414B0>","<openexp._canvas.legacy.legacy object at 0x04B7AED0>","<openexp._canvas.legacy.legacy object at 0x04C429F0>","75","IndividualPriorityWithDis_v1.osexp","C:/Userdata/Michel/SpatialProb/IndividualPriorityMaps/Experiment2","no","mono","no","18","no","white","no","yes","0.09","98","1050","legacy","45","6","6","1","C:/Userdata/Michel/SpatialProb/IndividualPriorityMaps/Experiment2/data/subject-11.csv","legacy","9","192","25","Jazzy James","3.1.3","yes","598477b2b83f69022949e7e9","47","green","rectangular","green","circular","0","None","2500","space","18749","18749","(80, 80, 80)","(0, 122, 0)","(179, 0, 0)","(155, 155, 155)","2","legacy","experiment","[2, 3, 4, 5, 6, 7, 0, 1]","\","2500","3000","0","8","252.758751519","1024","2","48000","-16","main","[(0, -252), (178, -178), (252, 0), (178, 178), (0, 252), (-178, 178), (-252, 0), (-178, -178)]","[]","11","odd","1","352057","423833","423833","205016","204010","1795","256701","256701","1795","1795","223766","454910","1794","423833","452407","451485","451485","NA","916","study_X","0","18749","1","yes","1680"
"undefined","undefined","18749","18749","black","no","legacy","legacy","legacy","0","red","(179, 0, 0)","color","absent","lowProb5","circular","swap","swap","swap","same","red","(179, 0, 0)","lowProb","lowProb6","circular","uniform","1","undefined","0.0104166666667","1","1","98.8697916667","1","2","18983","0","0","0","0","0","0","0","0","32","0","1","0.0104166666667","98.8697916667","2","18983","32","32","32","08/21/17 12:55:26","Default description","yes","<openexp._canvas.legacy.legacy object at 0x04B827F0>","<openexp._canvas.legacy.legacy object at 0x04B8D7B0>","<openexp._canvas.legacy.legacy object at 0x04B7A410>","<openexp._canvas.legacy.legacy object at 0x04C709D0>","<openexp._canvas.legacy.legacy object at 0x04C414B0>","<openexp._canvas.legacy.legacy object at 0x04B7E550>","<openexp._canvas.legacy.legacy object at 0x04C429F0>","75","IndividualPriorityWithDis_v1.osexp","C:/Userdata/Michel/SpatialProb/IndividualPriorityMaps/Experiment2","no","mono","no","18","no","white","no","yes","0.09","98","1050","legacy","315","7","7","1","C:/Userdata/Michel/SpatialProb/IndividualPriorityMaps/Experiment2/data/subject-11.csv","legacy","9","192","25","Jazzy James","3.1.3","yes","598477b2b83f69022949e7e9","47","red","circular","red","circular","0","/","2410","space","18749","18749","(80, 80, 80)","(0, 122, 0)","(179, 0, 0)","(155, 155, 155)","2","legacy","experiment","[2, 3, 4, 5, 6, 7, 0, 1]","/","2500","3000","0","8","252.758751519","1024","2","48000","-16","main","[(0, -252), (178, -178), (252, 0), (178, 178), (0, 252), (-178, 178), (-252, 0), (-178, -178)]","[]","11","odd","1","352057","423833","423833","205016","204010","1795","256701","256701","1795","1795","223766","458684","1794","423833","456270","455348","455349","NA","916","study_X","0","18749","1","yes","1680"
"undefined","undefined","18749","18749","black","no","legacy","legacy","legacy","0","red","(179, 0, 0)","color","present","highProb","circular","same","same","swap","same","green","(0, 122, 0)","lowProb","lowProb4","circular","uniform","1","undefined","0.015625","1","1","110.697916667","1","3","21254","0","0","0","0","0","0","0","0","33","0","1","0.015625","110.697916667","3","21254","33","33","33","08/21/17 12:55:26","Default description","yes","<openexp._canvas.legacy.legacy object at 0x04B827F0>","<openexp._canvas.legacy.legacy object at 0x04B8D7B0>","<openexp._canvas.legacy.legacy object at 0x04B7A410>","<openexp._canvas.legacy.legacy object at 0x04C709D0>","<openexp._canvas.legacy.legacy object at 0x04C414B0>","<openexp._canvas.legacy.legacy object at 0x04C70AB0>","<openexp._canvas.legacy.legacy object at 0x04C429F0>","75","IndividualPriorityWithDis_v1.osexp","C:/Userdata/Michel/SpatialProb/IndividualPriorityMaps/Experiment2","no","mono","no","18","no","white","no","yes","0.09","98","1050","legacy","315","8","8","1","C:/Userdata/Michel/SpatialProb/IndividualPriorityMaps/Experiment2/data/subject-11.csv","legacy","9","192","25","Jazzy James","3.1.3","yes","598477b2b83f69022949e7e9","47","red","circular","green","circular","0","/","2271","space","18749","18749","(80, 80, 80)","(0, 122, 0)","(179, 0, 0)","(155, 155, 155)","2","legacy","experiment","[2, 3, 4, 5, 6, 7, 0, 1]","/","2500","3000","0","8","252.758751519","1024","2","48000","-16","main","[(0, -252), (178, -178), (252, 0), (178, 178), (0, 252), (-178, 178), (-252, 0), (-178, -178)]","[]","11","odd","7","352057","423833","423833","205016","204010","1795","256701","256701","1795","1795","223766","462299","1794","423833","460025","459103","459103","NA","916","study_X","0","18749","1","yes","1680"
"undefined","undefined","18749","18749","black","no","legacy","legacy","legacy","0","green","(0, 122, 0)","color","present","highProb","rectangular","swap","swap","swap","swap","red","(179, 0, 0)","lowProb","lowProb3","rectangular","uniform","1","undefined","0.0208333333333","1","1","120.911458333","1","4","23215","0","0","0","0","0","0","0","0","34","0","1","0.0208333333333","120.911458333","4","23215","34","34","34","08/21/17 12:55:26","Default description","yes","<openexp._canvas.legacy.legacy object at 0x04B827F0>","<openexp._canvas.legacy.legacy object at 0x04B8D7B0>","<openexp._canvas.legacy.legacy object at 0x04B7A410>","<openexp._canvas.legacy.legacy object at 0x04C709D0>","<openexp._canvas.legacy.legacy object at 0x04C414B0>","<openexp._canvas.legacy.legacy object at 0x04C70250>","<openexp._canvas.legacy.legacy object at 0x04C429F0>","75","IndividualPriorityWithDis_v1.osexp","C:/Userdata/Michel/SpatialProb/IndividualPriorityMaps/Experiment2","no","mono","no","18","no","white","no","yes","0.09","98","1050","legacy","315","9","9","1","C:/Userdata/Michel/SpatialProb/IndividualPriorityMaps/Experiment2/data/subject-11.csv","legacy","9","192","25","Jazzy James","3.1.3","yes","598477b2b83f69022949e7e9","47","green","rectangular","red","rectangular","0","/","1961","space","18749","18749","(80, 80, 80)","(0, 122, 0)","(179, 0, 0)","(155, 155, 155)","2","legacy","experiment","[2, 3, 4, 5, 6, 7, 0, 1]","/","2500","3000","0","8","252.758751519","1024","2","48000","-16","main","[(0, -252), (178, -178), (252, 0), (178, 178), (0, 252), (-178, 178), (-252, 0), (-178, -178)]","[]","11","odd","5","352057","423833","423833","205016","204010","1795","256701","256701","1795","1795","223766","465596","1794","423833","463632","462710","462710","NA","916","study_X","0","18749","1","yes","1680"
"undefined","undefined","18749","18749","black","no","legacy","legacy","legacy","0","green","(0, 122, 0)","shape","present","highProb","circular","same","swap","swap","same","green","(0, 122, 0)","lowProb","lowProb4","rectangular","uniform","0","undefined","0.0208333333333","1","1","133.932291667","1","4","25715","0","0","0","0","0","0","0","0","35","0","1","0.0208333333333","133.932291667","4","25715","35","35","35","08/21/17 12:55:26","Default description","yes","<openexp._canvas.legacy.legacy object at 0x04B827F0>","<openexp._canvas.legacy.legacy object at 0x04B8D7B0>","<openexp._canvas.legacy.legacy object at 0x04B7A410>","<openexp._canvas.legacy.legacy object at 0x04C709D0>","<openexp._canvas.legacy.legacy object at 0x04C414B0>","<openexp._canvas.legacy.legacy object at 0x04B7A790>","<openexp._canvas.legacy.legacy object at 0x04C429F0>","75","IndividualPriorityWithDis_v1.osexp","C:/Userdata/Michel/SpatialProb/IndividualPriorityMaps/Experiment2","no","mono","no","18","no","white","no","yes","0.09","98","1050","legacy","45","10","10","1","C:/Userdata/Michel/SpatialProb/IndividualPriorityMaps/Experiment2/data/subject-11.csv","legacy","9","192","25","Jazzy James","3.1.3","yes","598477b2b83f69022949e7e9","47","green","circular","green","rectangular","0","None","2500","space","18749","18749","(80, 80, 80)","(0, 122, 0)","(179, 0, 0)","(155, 155, 155)","2","legacy","experiment","[2, 3, 4, 5, 6, 7, 0, 1]","\","2500","3000","0","8","252.758751519","1024","2","48000","-16","main","[(0, -252), (178, -178), (252, 0), (178, 178), (0, 252), (-178, 178), (-252, 0), (-178, -178)]","[]","11","odd","7","352057","423833","423833","205016","204010","1795","256701","256701","1795","1795","223766","469422","1794","423833","466919","465997","465997","NA","916","study_X","0","18749","1","yes","1680"
"undefined","undefined","18749","18749","black","no","legacy","legacy","legacy","0","red","(179, 0, 0)","color","present","highProb","rectangular","swap","swap","same","same","green","(0, 122, 0)","lowProb","lowProb3","rectangular","uniform","1","undefined","0.0260416666667","1","1","144.015625","1","5","27651","0","0","0","0","0","0","0","0","36","0","1","0.0260416666667","144.015625","5","27651","36","36","36","08/21/17 12:55:26","Default description","yes","<openexp._canvas.legacy.legacy object at 0x04B827F0>","<openexp._canvas.legacy.legacy object at 0x04B8D7B0>","<openexp._canvas.legacy.legacy object at 0x04B7A410>","<openexp._canvas.legacy.legacy object at 0x04C709D0>","<openexp._canvas.legacy.legacy object at 0x04C414B0>","<openexp._canvas.legacy.legacy object at 0x04B7AC90>","<openexp._canvas.legacy.legacy object at 0x04C429F0>","75","IndividualPriorityWithDis_v1.osexp","C:/Userdata/Michel/SpatialProb/IndividualPriorityMaps/Experiment2","no","mono","no","18","no","white","no","yes","0.09","98","1050","legacy","45","11","11","1","C:/Userdata/Michel/SpatialProb/IndividualPriorityMaps/Experiment2/data/subject-11.csv","legacy","9","192","25","Jazzy James","3.1.3","yes","598477b2b83f69022949e7e9","47","red","rectangular","green","rectangular","0","\","1936","space","18749","18749","(80, 80, 80)","(0, 122, 0)","(179, 0, 0)","(155, 155, 155)","2","legacy","experiment","[2, 3, 4, 5, 6, 7, 0, 1]","\","2500","3000","0","8","252.758751519","1024","2","48000","-16","main","[(0, -252), (178, -178), (252, 0), (178, 178), (0, 252), (-178, 178), (-252, 0), (-178, -178)]","[]","11","odd","5","352057","423833","423833","205016","204010","1795","256701","256701","1795","1795","223766","472700","1794","423833","470761","469839","469839","NA","916","study_X","0","18749","1","yes","1680"
"undefined","undefined","18749","18749","black","no","legacy","legacy","legacy","0","red","(179, 0, 0)","color","present","lowProb2","rectangular","same","same","same","same","green","(0, 122, 0)","lowProb","lowProb3","rectangular","uniform","0","undefined","0.0260416666667","1","1","157.041666667","1","5","30152","0","0","0","0","0","0","0","0","37","0","1","0.0260416666667","157.041666667","5","30152","37","37","37","08/21/17 12:55:26","Default description","yes","<openexp._canvas.legacy.legacy object at 0x04B827F0>","<openexp._canvas.legacy.legacy object at 0x04B8D7B0>","<openexp._canvas.legacy.legacy object at 0x04B7A410>","<openexp._canvas.legacy.legacy object at 0x04C709D0>","<openexp._canvas.legacy.legacy object at 0x04C414B0>","<openexp._canvas.legacy.legacy object at 0x04C708B0>","<openexp._canvas.legacy.legacy object at 0x04C429F0>","75","IndividualPriorityWithDis_v1.osexp","C:/Userdata/Michel/SpatialProb/IndividualPriorityMaps/Experiment2","no","mono","no","18","no","white","no","yes","0.09","98","1050","legacy","315","12","12","1","C:/Userdata/Michel/SpatialProb/IndividualPriorityMaps/Experiment2/data/subject-11.csv","legacy","9","192","25","Jazzy James","3.1.3","yes","598477b2b83f69022949e7e9","47","red","rectangular","green","rectangular","0","None","2501","space","18749","18749","(80, 80, 80)","(0, 122, 0)","(179, 0, 0)","(155, 155, 155)","2","legacy","experiment","[2, 3, 4, 5, 6, 7, 0, 1]","/","2500","3000","0","8","252.758751519","1024","2","48000","-16","main","[(0, -252), (178, -178), (252, 0), (178, 178), (0, 252), (-178, 178), (-252, 0), (-178, -178)]","[]","11","odd","5","352057","423833","423833","205016","204010","1795","256701","256701","1795","1795","223766","476540","1794","423833","474037","473116","473116","NA","916","study_X","0","18749","1","yes","1680"
"undefined","undefined","18749","18749","black","no","legacy","legacy","legacy","0","red","(179, 0, 0)","color","present","highProb","circular","same","swap","same","swap","green","(0, 122, 0)","lowProb","lowProb4","circular","uniform","1","undefined","0.03125","1","1","167.791666667","1","6","32216","0","0","0","0","0","0","0","0","38","0","1","0.03125","167.791666667","6","32216","38","38","38","08/21/17 12:55:26","Default description","yes","<openexp._canvas.legacy.legacy object at 0x04B827F0>","<openexp._canvas.legacy.legacy object at 0x04B8D7B0>","<openexp._canvas.legacy.legacy object at 0x04B7A410>","<openexp._canvas.legacy.legacy object at 0x04C709D0>","<openexp._canvas.legacy.legacy object at 0x04C414B0>","<openexp._canvas.legacy.legacy object at 0x04B8DE70>","<openexp._canvas.legacy.legacy object at 0x04C429F0>","75","IndividualPriorityWithDis_v1.osexp","C:/Userdata/Michel/SpatialProb/IndividualPriorityMaps/Experiment2","no","mono","no","18","no","white","no","yes","0.09","98","1050","legacy","45","13","13","1","C:/Userdata/Michel/SpatialProb/IndividualPriorityMaps/Experiment2/data/subject-11.csv","legacy","9","192","25","Jazzy James","3.1.3","yes","598477b2b83f69022949e7e9","47","red","circular","green","circular","0","\","2064","space","18749","18749","(80, 80, 80)","(0, 122, 0)","(179, 0, 0)","(155, 155, 155)","2","legacy","experiment","[2, 3, 4, 5, 6, 7, 0, 1]","\","2500","3000","0","8","252.758751519","1024","2","48000","-16","main","[(0, -252), (178, -178), (252, 0), (178, 178), (0, 252), (-178, 178), (-252, 0), (-178, -178)]","[]","11","odd","7","352057","423833","423833","205016","204010","1795","256701","256701","1795","1795","223766","479947","1794","423833","477880","476958","476958","NA","916","study_X","0","18749","1","yes","1680"
"undefined","undefined","18749","18749","black","no","legacy","legacy","legacy","0","red","(179, 0, 0)","shape","present","highProb","rectangular","same","swap","swap","same","red","(179, 0, 0)","lowProb","lowProb6","circular","uniform","1","undefined","0.0364583333333","1","1","176.552083333","1","7","33898","0","0","0","0","0","0","0","0","39","0","1","0.0364583333333","176.552083333","7","33898","39","39","39","08/21/17 12:55:26","Default description","yes","<openexp._canvas.legacy.legacy object at 0x04B827F0>","<openexp._canvas.legacy.legacy object at 0x04B8D7B0>","<openexp._canvas.legacy.legacy object at 0x04B7A410>","<openexp._canvas.legacy.legacy object at 0x04C709D0>","<openexp._canvas.legacy.legacy object at 0x04C414B0>","<openexp._canvas.legacy.legacy object at 0x04B7EE70>","<openexp._canvas.legacy.legacy object at 0x04C429F0>","75","IndividualPriorityWithDis_v1.osexp","C:/Userdata/Michel/SpatialProb/IndividualPriorityMaps/Experiment2","no","mono","no","18","no","white","no","yes","0.09","98","1050","legacy","315","14","14","1","C:/Userdata/Michel/SpatialProb/IndividualPriorityMaps/Experiment2/data/subject-11.csv","legacy","9","192","25","Jazzy James","3.1.3","yes","598477b2b83f69022949e7e9","47","red","rectangular","red","circular","0","/","1682","space","18749","18749","(80, 80, 80)","(0, 122, 0)","(179, 0, 0)","(155, 155, 155)","2","legacy","experiment","[2, 3, 4, 5, 6, 7, 0, 1]","/","2500","3000","0","8","252.758751519","1024","2","48000","-16","main","[(0, -252), (178, -178), (252, 0), (178, 178), (0, 252), (-178, 178), (-252, 0), (-178, -178)]","[]","11","odd","1","352057","423833","423833","205016","204010","1795","256701","256701","1795","1795","223766","482972","1794","423833","481287","480365","480365","NA","916","study_X","0","18749","1","yes","1680"
"undefined","undefined","18749","18749","black","no","legacy","legacy","legacy","0","green","(0, 122, 0)","shape","present","highProb","rectangular","swap","same","swap","same","green","(0, 122, 0)","lowProb","lowProb1","circular","uniform","1","undefined","0.0416666666667","1","1","188.338541667","1","8","36161","0","0","0","0","0","0","0","0","40","0","1","0.0416666666667","188.338541667","8","36161","40","40","40","08/21/17 12:55:26","Default description","yes","<openexp._canvas.legacy.legacy object at 0x04B827F0>","<openexp._canvas.legacy.legacy object at 0x04B8D7B0>","<openexp._canvas.legacy.legacy object at 0x04B7A410>","<openexp._canvas.legacy.legacy object at 0x04C709D0>","<openexp._canvas.legacy.legacy object at 0x04C414B0>","<openexp._canvas.legacy.legacy object at 0x04B7AF50>","<openexp._canvas.legacy.legacy object at 0x04C429F0>","75","IndividualPriorityWithDis_v1.osexp","C:/Userdata/Michel/SpatialProb/IndividualPriorityMaps/Experiment2","no","mono","no","18","no","white","no","yes","0.09","98","1050","legacy","315","15","15","1","C:/Userdata/Michel/SpatialProb/IndividualPriorityMaps/Experiment2/data/subject-11.csv","legacy","9","192","25","Jazzy James","3.1.3","yes","598477b2b83f69022949e7e9","47","green","rectangular","green","circular","0","/","2263","space","18749","18749","(80, 80, 80)","(0, 122, 0)","(179, 0, 0)","(155, 155, 155)","2","legacy","experiment","[2, 3, 4, 5, 6, 7, 0, 1]","/","2500","3000","0","8","252.758751519","1024","2","48000","-16","main","[(0, -252), (178, -178), (252, 0), (178, 178), (0, 252), (-178, 178), (-252, 0), (-178, -178)]","[]","11","odd","3","352057","423833","423833","205016","204010","1795","256701","256701","1795","1795","223766","486580","1794","423833","484315","483393","483394","NA","916","study_X","0","18749","1","yes","1680"
"undefined","undefined","18749","18749","black","no","legacy","legacy","legacy","0","red","(179, 0, 0)","color","present","lowProb4","rectangular","swap","same","same","swap","green","(0, 122, 0)","lowProb","lowProb6","rectangular","uniform","1","undefined","0.046875","1","1","198.90625","1","9","38190","0","0","0","0","0","0","0","0","41","0","1","0.046875","198.90625","9","38190","41","41","41","08/21/17 12:55:26","Default description","yes","<openexp._canvas.legacy.legacy object at 0x04B827F0>","<openexp._canvas.legacy.legacy object at 0x04B8D7B0>","<openexp._canvas.legacy.legacy object at 0x04B7A410>","<openexp._canvas.legacy.legacy object at 0x04C709D0>","<openexp._canvas.legacy.legacy object at 0x04C414B0>","<openexp._canvas.legacy.legacy object at 0x04B7A6B0>","<openexp._canvas.legacy.legacy object at 0x04C429F0>","75","IndividualPriorityWithDis_v1.osexp","C:/Userdata/Michel/SpatialProb/IndividualPriorityMaps/Experiment2","no","mono","no","18","no","white","no","yes","0.09","98","1050","legacy","315","16","16","1","C:/Userdata/Michel/SpatialProb/IndividualPriorityMaps/Experiment2/data/subject-11.csv","legacy","9","192","25","Jazzy James","3.1.3","yes","598477b2b83f69022949e7e9","47","red","rectangular","green","rectangular","0","/","2029","space","18749","18749","(80, 80, 80)","(0, 122, 0)","(179, 0, 0)","(155, 155, 155)","2","legacy","experiment","[2, 3, 4, 5, 6, 7, 0, 1]","/","2500","3000","0","8","252.758751519","1024","2","48000","-16","main","[(0, -252), (178, -178), (252, 0), (178, 178), (0, 252), (-178, 178), (-252, 0), (-178, -178)]","[]","11","odd","1","352057","423833","423833","205016","204010","1795","256701","256701","1795","1795","223766","489948","1794","423833","487915","486993","486993","NA","916","study_X","0","18749","1","yes","1680"
"undefined","undefined","18749","18749","black","no","legacy","legacy","legacy","0","green","(0, 122, 0)","shape","present","lowProb2","rectangular","swap","same","same","swap","green","(0, 122, 0)","lowProb","lowProb6","circular","uniform","1","undefined","0.0520833333333","1","1","210.802083333","1","10","40474","0","0","0","0","0","0","0","0","42","0","1","0.0520833333333","210.802083333","10","40474","42","42","42","08/21/17 12:55:26","Default description","yes","<openexp._canvas.legacy.legacy object at 0x04B827F0>","<openexp._canvas.legacy.legacy object at 0x04B8D7B0>","<openexp._canvas.legacy.legacy object at 0x04B7A410>","<openexp._canvas.legacy.legacy object at 0x04C709D0>","<openexp._canvas.legacy.legacy object at 0x04C414B0>","<openexp._canvas.legacy.legacy object at 0x04B8D950>","<openexp._canvas.legacy.legacy object at 0x04C429F0>","75","IndividualPriorityWithDis_v1.osexp","C:/Userdata/Michel/SpatialProb/IndividualPriorityMaps/Experiment2","no","mono","no","18","no","white","no","yes","0.09","98","1050","legacy","45","17","17","1","C:/Userdata/Michel/SpatialProb/IndividualPriorityMaps/Experiment2/data/subject-11.csv","legacy","9","192","25","Jazzy James","3.1.3","yes","598477b2b83f69022949e7e9","47","green","rectangular","green","circular","0","\","2284","space","18749","18749","(80, 80, 80)","(0, 122, 0)","(179, 0, 0)","(155, 155, 155)","2","legacy","experiment","[2, 3, 4, 5, 6, 7, 0, 1]","\","2500","3000","0","8","252.758751519","1024","2","48000","-16","main","[(0, -252), (178, -178), (252, 0), (178, 178), (0, 252), (-178, 178), (-252, 0), (-178, -178)]","[]","11","odd","1","352057","423833","423833","205016","204010","1795","256701","256701","1795","1795","223766","493643","1794","423833","491356","490434","490434","NA","916","study_X","0","18749","1","yes","1680"
"undefined","undefined","18749","18749","black","no","legacy","legacy","legacy","0","red","(179, 0, 0)","shape","present","highProb","circular","swap","swap","swap","swap","red","(179, 0, 0)","lowProb","lowProb2","rectangular","uniform","1","undefined","0.0572916666667","1","1","223.223958333","1","11","42859","0","0","0","0","0","0","0","0","43","0","1","0.0572916666667","223.223958333","11","42859","43","43","43","08/21/17 12:55:26","Default description","yes","<openexp._canvas.legacy.legacy object at 0x04B827F0>","<openexp._canvas.legacy.legacy object at 0x04B8D7B0>","<openexp._canvas.legacy.legacy object at 0x04B7A410>","<openexp._canvas.legacy.legacy object at 0x04C709D0>","<openexp._canvas.legacy.legacy object at 0x04C414B0>","<openexp._canvas.legacy.legacy object at 0x04C70250>","<openexp._canvas.legacy.legacy object at 0x04C429F0>","75","IndividualPriorityWithDis_v1.osexp","C:/Userdata/Michel/SpatialProb/IndividualPriorityMaps/Experiment2","no","mono","no","18","no","white","no","yes","0.09","98","1050","legacy","45","18","18","1","C:/Userdata/Michel/SpatialProb/IndividualPriorityMaps/Experiment2/data/subject-11.csv","legacy","9","192","25","Jazzy James","3.1.3","yes","598477b2b83f69022949e7e9","47","red","circular","red","rectangular","0","\","2385","space","18749","18749","(80, 80, 80)","(0, 122, 0)","(179, 0, 0)","(155, 155, 155)","2","legacy","experiment","[2, 3, 4, 5, 6, 7, 0, 1]","\","2500","3000","0","8","252.758751519","1024","2","48000","-16","main","[(0, -252), (178, -178), (252, 0), (178, 178), (0, 252), (-178, 178), (-252, 0), (-178, -178)]","[]","11","odd","4","352057","423833","423833","205016","204010","1795","256701","256701","1795","1795","223766","497363","1794","423833","494975","494053","494053","NA","916","study_X","0","18749","1","yes","1680"
"undefined","undefined","18749","18749","black","no","legacy","legacy","legacy","0","green","(0, 122, 0)","shape","present","highProb","rectangular","swap","swap","swap","swap","green","(0, 122, 0)","highProbColor","highProbColor","circular","uniform","1","undefined","0.0625","1","1","232.416666667","1","12","44624","0","0","0","0","0","0","0","0","44","0","1","0.0625","232.416666667","12","44624","44","44","44","08/21/17 12:55:26","Default description","yes","<openexp._canvas.legacy.legacy object at 0x04B827F0>","<openexp._canvas.legacy.legacy object at 0x04B8D7B0>","<openexp._canvas.legacy.legacy object at 0x04B7A410>","<openexp._canvas.legacy.legacy object at 0x04C709D0>","<openexp._canvas.legacy.legacy object at 0x04C414B0>","<openexp._canvas.legacy.legacy object at 0x04B8D5B0>","<openexp._canvas.legacy.legacy object at 0x04C429F0>","75","IndividualPriorityWithDis_v1.osexp","C:/Userdata/Michel/SpatialProb/IndividualPriorityMaps/Experiment2","no","mono","no","18","no","white","no","yes","0.09","98","1050","legacy","45","19","19","1","C:/Userdata/Michel/SpatialProb/IndividualPriorityMaps/Experiment2/data/subject-11.csv","legacy","9","192","25","Jazzy James","3.1.3","yes","598477b2b83f69022949e7e9","47","green","rectangular","green","circular","0","\","1765","space","18749","18749","(80, 80, 80)","(0, 122, 0)","(179, 0, 0)","(155, 155, 155)","2","legacy","experiment","[2, 3, 4, 5, 6, 7, 0, 1]","\","2500","3000","0","8","252.758751519","1024","2","48000","-16","main","[(0, -252), (178, -178), (252, 0), (178, 178), (0, 252), (-178, 178), (-252, 0), (-178, -178)]","[]","11","odd","2","352057","423833","423833","205016","204010","1795","256701","256701","1795","1795","223766","500492","1794","423833","498724","497802","497802","NA","916","study_X","0","18749","1","yes","1680"
"undefined","undefined","18749","18749","black","no","legacy","legacy","legacy","0","green","(0, 122, 0)","color","present","lowProb4","rectangular","same","same","swap","swap","red","(179, 0, 0)","lowProb","lowProb1","rectangular","uniform","0","undefined","0.0625","1","1","245.4375","1","12","47124","0","0","0","0","0","0","0","0","45","0","1","0.0625","245.4375","12","47124","45","45","45","08/21/17 12:55:26","Default description","yes","<openexp._canvas.legacy.legacy object at 0x04B827F0>","<openexp._canvas.legacy.legacy object at 0x04B8D7B0>","<openexp._canvas.legacy.legacy object at 0x04B7A410>","<openexp._canvas.legacy.legacy object at 0x04C709D0>","<openexp._canvas.legacy.legacy object at 0x04C414B0>","<openexp._canvas.legacy.legacy object at 0x04B7EC70>","<openexp._canvas.legacy.legacy object at 0x04C429F0>","75","IndividualPriorityWithDis_v1.osexp","C:/Userdata/Michel/SpatialProb/IndividualPriorityMaps/Experiment2","no","mono","no","18","no","white","no","yes","0.09","98","1050","legacy","45","20","20","1","C:/Userdata/Michel/SpatialProb/IndividualPriorityMaps/Experiment2/data/subject-11.csv","legacy","9","192","25","Jazzy James","3.1.3","yes","598477b2b83f69022949e7e9","47","green","rectangular","red","rectangular","0","None","2500","space","18749","18749","(80, 80, 80)","(0, 122, 0)","(179, 0, 0)","(155, 155, 155)","2","legacy","experiment","[2, 3, 4, 5, 6, 7, 0, 1]","\","2500","3000","0","8","252.758751519","1024","2","48000","-16","main","[(0, -252), (178, -178), (252, 0), (178, 178), (0, 252), (-178, 178), (-252, 0), (-178, -178)]","[]","11","odd","3","352057","423833","423833","205016","204010","1795","256701","256701","1795","1795","223766","504330","1794","423833","501827","500905","500905","NA","916","study_X","0","18749","1","yes","1680"
"undefined","undefined","18749","18749","black","no","legacy","legacy","legacy","0","green","(0, 122, 0)","shape","absent","lowProb3","rectangular","same","same","swap","same","green","(0, 122, 0)","lowProb","lowProb1","rectangular","uniform","0","undefined","0.0625","1","1","258.458333333","1","12","49624","0","0","0","0","0","0","0","0","46","0","1","0.0625","258.458333333","12","49624","46","46","46","08/21/17 12:55:26","Default description","yes","<openexp._canvas.legacy.legacy object at 0x04B827F0>","<openexp._canvas.legacy.legacy object at 0x04B8D7B0>","<openexp._canvas.legacy.legacy object at 0x04B7A410>","<openexp._canvas.legacy.legacy object at 0x04C709D0>","<openexp._canvas.legacy.legacy object at 0x04C414B0>","<openexp._canvas.legacy.legacy object at 0x04B84C50>","<openexp._canvas.legacy.legacy object at 0x04C429F0>","75","IndividualPriorityWithDis_v1.osexp","C:/Userdata/Michel/SpatialProb/IndividualPriorityMaps/Experiment2","no","mono","no","18","no","white","no","yes","0.09","98","1050","legacy","315","21","21","1","C:/Userdata/Michel/SpatialProb/IndividualPriorityMaps/Experiment2/data/subject-11.csv","legacy","9","192","25","Jazzy James","3.1.3","yes","598477b2b83f69022949e7e9","47","green","rectangular","green","rectangular","0","None","2500","space","18749","18749","(80, 80, 80)","(0, 122, 0)","(179, 0, 0)","(155, 155, 155)","2","legacy","experiment","[2, 3, 4, 5, 6, 7, 0, 1]","/","2500","3000","0","8","252.758751519","1024","2","48000","-16","main","[(0, -252), (178, -178), (252, 0), (178, 178), (0, 252), (-178, 178), (-252, 0), (-178, -178)]","[]","11","odd","3","352057","423833","423833","205016","204010","1795","256701","256701","1795","1795","223766","508164","1794","423833","505661","504740","504740","NA","916","study_X","0","18749","1","yes","1680"
"undefined","undefined","18749","18749","black","no","legacy","legacy","legacy","0","red","(179, 0, 0)","shape","present","highProb","circular","swap","swap","swap","same","red","(179, 0, 0)","lowProb","lowProb4","rectangular","uniform","0","undefined","0.0625","1","1","271.479166667","1","12","52124","0","0","0","0","0","0","0","0","47","0","1","0.0625","271.479166667","12","52124","47","47","47","08/21/17 12:55:26","Default description","yes","<openexp._canvas.legacy.legacy object at 0x04B827F0>","<openexp._canvas.legacy.legacy object at 0x04B8D7B0>","<openexp._canvas.legacy.legacy object at 0x04B7A410>","<openexp._canvas.legacy.legacy object at 0x04C709D0>","<openexp._canvas.legacy.legacy object at 0x04C414B0>","<openexp._canvas.legacy.legacy object at 0x04C6BFF0>","<openexp._canvas.legacy.legacy object at 0x04C429F0>","75","IndividualPriorityWithDis_v1.osexp","C:/Userdata/Michel/SpatialProb/IndividualPriorityMaps/Experiment2","no","mono","no","18","no","white","no","yes","0.09","98","1050","legacy","45","22","22","1","C:/Userdata/Michel/SpatialProb/IndividualPriorityMaps/Experiment2/data/subject-11.csv","legacy","9","192","25","Jazzy James","3.1.3","yes","598477b2b83f69022949e7e9","47","red","circular","red","rectangular","0","None","2500","space","18749","18749","(80, 80, 80)","(0, 122, 0)","(179, 0, 0)","(155, 155, 155)","2","legacy","experiment","[2, 3, 4, 5, 6, 7, 0, 1]","\","2500","3000","0","8","252.758751519","1024","2","48000","-16","main","[(0, -252), (178, -178), (252, 0), (178, 178), (0, 252), (-178, 178), (-252, 0), (-178, -178)]","[]","11","odd","7","352057","423833","423833","205016","204010","1795","256701","256701","1795","1795","223766","511998","1794","423833","509495","508574","508574","NA","916","study_X","0","18749","1","yes","1680"
"undefined","undefined","18749","18749","black","no","legacy","legacy","legacy","0","green","(0, 122, 0)","shape","present","highProb","rectangular","swap","swap","swap","swap","green","(0, 122, 0)","lowProb","lowProb4","circular","uniform","0","undefined","0.0625","1","1","284.5","1","12","54624","0","0","0","0","0","0","0","0","48","0","1","0.0625","284.5","12","54624","48","48","48","08/21/17 12:55:26","Default description","yes","<openexp._canvas.legacy.legacy object at 0x04B827F0>","<openexp._canvas.legacy.legacy object at 0x04B8D7B0>","<openexp._canvas.legacy.legacy object at 0x04B7A410>","<openexp._canvas.legacy.legacy object at 0x04C709D0>","<openexp._canvas.legacy.legacy object at 0x04C414B0>","<openexp._canvas.legacy.legacy object at 0x04B8D1B0>","<openexp._canvas.legacy.legacy object at 0x04C429F0>","75","IndividualPriorityWithDis_v1.osexp","C:/Userdata/Michel/SpatialProb/IndividualPriorityMaps/Experiment2","no","mono","no","18","no","white","no","yes","0.09","98","1050","legacy","45","23","23","1","C:/Userdata/Michel/SpatialProb/IndividualPriorityMaps/Experiment2/data/subject-11.csv","legacy","9","192","25","Jazzy James","3.1.3","yes","598477b2b83f69022949e7e9","47","green","rectangular","green","circular","0","None","2500","space","18749","18749","(80, 80, 80)","(0, 122, 0)","(179, 0, 0)","(155, 155, 155)","2","legacy","experiment","[2, 3, 4, 5, 6, 7, 0, 1]","\","2500","3000","0","8","252.758751519","1024","2","48000","-16","main","[(0, -252), (178, -178), (252, 0), (178, 178), (0, 252), (-178, 178), (-252, 0), (-178, -178)]","[]","11","odd","7","352057","423833","423833","205016","204010","1795","256701","256701","1795","1795","223766","515864","1794","423833","513361","512439","512439","NA","916","study_X","0","18749","1","yes","1680"
"undefined","undefined","18749","18749","black","no","legacy","legacy","legacy","0","red","(179, 0, 0)","color","present","highProbOther","circular","swap","swap","same","same","green","(0, 122, 0)","lowProb","lowProb4","circular","uniform","0","undefined","0.0625","1","1","297.520833333","1","12","57124","0","0","0","0","0","0","0","0","49","0","1","0.0625","297.520833333","12","57124","49","49","49","08/21/17 12:55:26","Default description","yes","<openexp._canvas.legacy.legacy object at 0x04B827F0>","<openexp._canvas.legacy.legacy object at 0x04B8D7B0>","<openexp._canvas.legacy.legacy object at 0x04B7A410>","<openexp._canvas.legacy.legacy object at 0x04C709D0>","<openexp._canvas.legacy.legacy object at 0x04C414B0>","<openexp._canvas.legacy.legacy object at 0x04C6BE50>","<openexp._canvas.legacy.legacy object at 0x04C429F0>","75","IndividualPriorityWithDis_v1.osexp","C:/Userdata/Michel/SpatialProb/IndividualPriorityMaps/Experiment2","no","mono","no","18","no","white","no","yes","0.09","98","1050","legacy","45","24","24","1","C:/Userdata/Michel/SpatialProb/IndividualPriorityMaps/Experiment2/data/subject-11.csv","legacy","9","192","25","Jazzy James","3.1.3","yes","598477b2b83f69022949e7e9","47","red","circular","green","circular","0","None","2500","space","18749","18749","(80, 80, 80)","(0, 122, 0)","(179, 0, 0)","(155, 155, 155)","2","legacy","experiment","[2, 3, 4, 5, 6, 7, 0, 1]","\","2500","3000","0","8","252.758751519","1024","2","48000","-16","main","[(0, -252), (178, -178), (252, 0), (178, 178), (0, 252), (-178, 178), (-252, 0), (-178, -178)]","[]","11","odd","7","352057","423833","423833","205016","204010","1795","256701","256701","1795","1795","223766","519716","1794","423833","517213","516291","516291","NA","916","study_X","0","18749","1","yes","1680"
"undefined","undefined","18749","18749","black","no","legacy","legacy","legacy","0","green","(0, 122, 0)","shape","present","lowProb6","circular","swap","same","same","swap","green","(0, 122, 0)","highProbShape","highProbShape","rectangular","uniform","0","undefined","0.0625","1","1","310.541666667","1","12","59624","0","0","0","0","0","0","0","0","50","0","1","0.0625","310.541666667","12","59624","50","50","50","08/21/17 12:55:26","Default description","yes","<openexp._canvas.legacy.legacy object at 0x04B827F0>","<openexp._canvas.legacy.legacy object at 0x04B8D7B0>","<openexp._canvas.legacy.legacy object at 0x04B7A410>","<openexp._canvas.legacy.legacy object at 0x04C709D0>","<openexp._canvas.legacy.legacy object at 0x04C414B0>","<openexp._canvas.legacy.legacy object at 0x04C711D0>","<openexp._canvas.legacy.legacy object at 0x04C429F0>","75","IndividualPriorityWithDis_v1.osexp","C:/Userdata/Michel/SpatialProb/IndividualPriorityMaps/Experiment2","no","mono","no","18","no","white","no","yes","0.09","98","1050","legacy","315","25","25","1","C:/Userdata/Michel/SpatialProb/IndividualPriorityMaps/Experiment2/data/subject-11.csv","legacy","9","192","25","Jazzy James","3.1.3","yes","598477b2b83f69022949e7e9","47","green","circular","green","rectangular","0","None","2500","space","18749","18749","(80, 80, 80)","(0, 122, 0)","(179, 0, 0)","(155, 155, 155)","2","legacy","experiment","[2, 3, 4, 5, 6, 7, 0, 1]","/","2500","3000","0","8","252.758751519","1024","2","48000","-16","main","[(0, -252), (178, -178), (252, 0), (178, 178), (0, 252), (-178, 178), (-252, 0), (-178, -178)]","[]","11","odd","6","352057","423833","423833","205016","204010","1795","256701","256701","1795","1795","223766","523558","1794","423833","521055","520133","520133","NA","916","study_X","0","18749","1","yes","1680"
"undefined","undefined","18749","18749","black","no","legacy","legacy","legacy","0","red","(179, 0, 0)","color","present","highProb","circular","swap","same","same","swap","green","(0, 122, 0)","lowProb","lowProb5","circular","uniform","1","undefined","0.0677083333333","1","1","322.765625","1","13","61971","0","0","0","0","0","0","0","0","51","0","1","0.0677083333333","322.765625","13","61971","51","51","51","08/21/17 12:55:26","Default description","yes","<openexp._canvas.legacy.legacy object at 0x04B827F0>","<openexp._canvas.legacy.legacy object at 0x04B8D7B0>","<openexp._canvas.legacy.legacy object at 0x04B7A410>","<openexp._canvas.legacy.legacy object at 0x04C709D0>","<openexp._canvas.legacy.legacy object at 0x04C414B0>","<openexp._canvas.legacy.legacy object at 0x04B7F0F0>","<openexp._canvas.legacy.legacy object at 0x04C429F0>","75","IndividualPriorityWithDis_v1.osexp","C:/Userdata/Michel/SpatialProb/IndividualPriorityMaps/Experiment2","no","mono","no","18","no","white","no","yes","0.09","98","1050","legacy","45","26","26","1","C:/Userdata/Michel/SpatialProb/IndividualPriorityMaps/Experiment2/data/subject-11.csv","legacy","9","192","25","Jazzy James","3.1.3","yes","598477b2b83f69022949e7e9","47","red","circular","green","circular","0","\","2347","space","18749","18749","(80, 80, 80)","(0, 122, 0)","(179, 0, 0)","(155, 155, 155)","2","legacy","experiment","[2, 3, 4, 5, 6, 7, 0, 1]","\","2500","3000","0","8","252.758751519","1024","2","48000","-16","main","[(0, -252), (178, -178), (252, 0), (178, 178), (0, 252), (-178, 178), (-252, 0), (-178, -178)]","[]","11","odd","0","352057","423833","423833","205016","204010","1795","256701","256701","1795","1795","223766","527243","1794","423833","524893","523971","523971","NA","916","study_X","0","18749","1","yes","1680"
"undefined","undefined","18749","18749","black","no","legacy","legacy","legacy","0","red","(179, 0, 0)","color","present","highProbOther","rectangular","same","swap","same","swap","green","(0, 122, 0)","lowProb","lowProb3","rectangular","uniform","1","undefined","0.0729166666667","1","1","335.588541667","1","14","64433","0","0","0","0","0","0","0","0","52","0","1","0.0729166666667","335.588541667","14","64433","52","52","52","08/21/17 12:55:26","Default description","yes","<openexp._canvas.legacy.legacy object at 0x04B827F0>","<openexp._canvas.legacy.legacy object at 0x04B8D7B0>","<openexp._canvas.legacy.legacy object at 0x04B7A410>","<openexp._canvas.legacy.legacy object at 0x04C709D0>","<openexp._canvas.legacy.legacy object at 0x04C414B0>","<openexp._canvas.legacy.legacy object at 0x04C6BF30>","<openexp._canvas.legacy.legacy object at 0x04C429F0>","75","IndividualPriorityWithDis_v1.osexp","C:/Userdata/Michel/SpatialProb/IndividualPriorityMaps/Experiment2","no","mono","no","18","no","white","no","yes","0.09","98","1050","legacy","45","27","27","1","C:/Userdata/Michel/SpatialProb/IndividualPriorityMaps/Experiment2/data/subject-11.csv","legacy","9","192","25","Jazzy James","3.1.3","yes","598477b2b83f69022949e7e9","47","red","rectangular","green","rectangular","0","\","2462","space","18749","18749","(80, 80, 80)","(0, 122, 0)","(179, 0, 0)","(155, 155, 155)","2","legacy","experiment","[2, 3, 4, 5, 6, 7, 0, 1]","\","2500","3000","0","8","252.758751519","1024","2","48000","-16","main","[(0, -252), (178, -178), (252, 0), (178, 178), (0, 252), (-178, 178), (-252, 0), (-178, -178)]","[]","11","odd","5","352057","423833","423833","205016","204010","1795","256701","256701","1795","1795","223766","531035","1794","423833","528570","527648","527648","NA","916","study_X","0","18749","1","yes","1680"
"undefined","undefined","18749","18749","black","no","legacy","legacy","legacy","0","green","(0, 122, 0)","shape","present","highProb","circular","swap","swap","same","same","green","(0, 122, 0)","lowProb","lowProb4","rectangular","uniform","0","undefined","0.0729166666667","1","1","345.114583333","1","14","66262","0","0","0","0","0","0","0","0","53","0","1","0.0729166666667","345.114583333","14","66262","53","53","53","08/21/17 12:55:26","Default description","yes","<openexp._canvas.legacy.legacy object at 0x04B827F0>","<openexp._canvas.legacy.legacy object at 0x04B8D7B0>","<openexp._canvas.legacy.legacy object at 0x04B7A410>","<openexp._canvas.legacy.legacy object at 0x04C709D0>","<openexp._canvas.legacy.legacy object at 0x04C414B0>","<openexp._canvas.legacy.legacy object at 0x04B8D1B0>","<openexp._canvas.legacy.legacy object at 0x04C429F0>","75","IndividualPriorityWithDis_v1.osexp","C:/Userdata/Michel/SpatialProb/IndividualPriorityMaps/Experiment2","no","mono","no","18","no","white","no","yes","0.09","98","1050","legacy","315","28","28","1","C:/Userdata/Michel/SpatialProb/IndividualPriorityMaps/Experiment2/data/subject-11.csv","legacy","9","192","25","Jazzy James","3.1.3","yes","598477b2b83f69022949e7e9","47","green","circular","green","rectangular","0","\","1829","space","18749","18749","(80, 80, 80)","(0, 122, 0)","(179, 0, 0)","(155, 155, 155)","2","legacy","experiment","[2, 3, 4, 5, 6, 7, 0, 1]","/","2500","3000","0","8","252.758751519","1024","2","48000","-16","main","[(0, -252), (178, -178), (252, 0), (178, 178), (0, 252), (-178, 178), (-252, 0), (-178, -178)]","[]","11","odd","7","352057","423833","423833","205016","204010","1795","256701","256701","1795","1795","223766","534203","1794","423833","532370","531448","531448","NA","916","study_X","0","18749","1","yes","1680"
"undefined","undefined","18749","18749","black","no","legacy","legacy","legacy","0","red","(179, 0, 0)","color","present","lowProb1","circular","swap","same","same","swap","green","(0, 122, 0)","highProbShape","highProbShape","circular","uniform","0","undefined","0.0729166666667","1","1","358.135416667","1","14","68762","0","0","0","0","0","0","0","0","54","0","1","0.0729166666667","358.135416667","14","68762","54","54","54","08/21/17 12:55:26","Default description","yes","<openexp._canvas.legacy.legacy object at 0x04B827F0>","<openexp._canvas.legacy.legacy object at 0x04B8D7B0>","<openexp._canvas.legacy.legacy object at 0x04B7A410>","<openexp._canvas.legacy.legacy object at 0x04C709D0>","<openexp._canvas.legacy.legacy object at 0x04C414B0>","<openexp._canvas.legacy.legacy object at 0x04C710B0>","<openexp._canvas.legacy.legacy object at 0x04C429F0>","75","IndividualPriorityWithDis_v1.osexp","C:/Userdata/Michel/SpatialProb/IndividualPriorityMaps/Experiment2","no","mono","no","18","no","white","no","yes","0.09","98","1050","legacy","315","29","29","1","C:/Userdata/Michel/SpatialProb/IndividualPriorityMaps/Experiment2/data/subject-11.csv","legacy","9","192","25","Jazzy James","3.1.3","yes","598477b2b83f69022949e7e9","47","red","circular","green","circular","0","None","2500","space","18749","18749","(80, 80, 80)","(0, 122, 0)","(179, 0, 0)","(155, 155, 155)","2","legacy","experiment","[2, 3, 4, 5, 6, 7, 0, 1]","/","2500","3000","0","8","252.758751519","1024","2","48000","-16","main","[(0, -252), (178, -178), (252, 0), (178, 178), (0, 252), (-178, 178), (-252, 0), (-178, -178)]","[]","11","odd","6","352057","423833","423833","205016","204010","1795","256701","256701","1795","1795","223766","538049","1794","423833","535546","534624","534624","NA","916","study_X","0","18749","1","yes","1680"
"undefined","undefined","18749","18749","black","no","legacy","legacy","legacy","0","green","(0, 122, 0)","color","present","highProb","circular","swap","same","swap","same","red","(179, 0, 0)","lowProb","lowProb1","circular","uniform","0","undefined","0.0729166666667","1","1","371.15625","1","14","71262","0","0","0","0","0","0","0","0","55","0","1","0.0729166666667","371.15625","14","71262","55","55","55","08/21/17 12:55:26","Default description","yes","<openexp._canvas.legacy.legacy object at 0x04B827F0>","<openexp._canvas.legacy.legacy object at 0x04B8D7B0>","<openexp._canvas.legacy.legacy object at 0x04B7A410>","<openexp._canvas.legacy.legacy object at 0x04C709D0>","<openexp._canvas.legacy.legacy object at 0x04C414B0>","<openexp._canvas.legacy.legacy object at 0x04B896D0>","<openexp._canvas.legacy.legacy object at 0x04C429F0>","75","IndividualPriorityWithDis_v1.osexp","C:/Userdata/Michel/SpatialProb/IndividualPriorityMaps/Experiment2","no","mono","no","18","no","white","no","yes","0.09","98","1050","legacy","45","30","30","1","C:/Userdata/Michel/SpatialProb/IndividualPriorityMaps/Experiment2/data/subject-11.csv","legacy","9","192","25","Jazzy James","3.1.3","yes","598477b2b83f69022949e7e9","47","green","circular","red","circular","0","None","2500","space","18749","18749","(80, 80, 80)","(0, 122, 0)","(179, 0, 0)","(155, 155, 155)","2","legacy","experiment","[2, 3, 4, 5, 6, 7, 0, 1]","\","2500","3000","0","8","252.758751519","1024","2","48000","-16","main","[(0, -252), (178, -178), (252, 0), (178, 178), (0, 252), (-178, 178), (-252, 0), (-178, -178)]","[]","11","odd","3","352057","423833","423833","205016","204010","1795","256701","256701","1795","1795","223766","541900","1794","423833","539397","538476","538476","NA","916","study_X","0","18749","1","yes","1680"
"undefined","undefined","18749","18749","black","no","legacy","legacy","legacy","0","green","(0, 122, 0)","color","present","highProb","circular","same","same","same","same","red","(179, 0, 0)","lowProb","lowProb4","circular","uniform","1","undefined","0.078125","1","1","381.161458333","1","15","73183","0","0","0","0","0","0","0","0","56","0","1","0.078125","381.161458333","15","73183","56","56","56","08/21/17 12:55:26","Default description","yes","<openexp._canvas.legacy.legacy object at 0x04B827F0>","<openexp._canvas.legacy.legacy object at 0x04B8D7B0>","<openexp._canvas.legacy.legacy object at 0x04B7A410>","<openexp._canvas.legacy.legacy object at 0x04C709D0>","<openexp._canvas.legacy.legacy object at 0x04C414B0>","<openexp._canvas.legacy.legacy object at 0x04C71AB0>","<openexp._canvas.legacy.legacy object at 0x04C429F0>","75","IndividualPriorityWithDis_v1.osexp","C:/Userdata/Michel/SpatialProb/IndividualPriorityMaps/Experiment2","no","mono","no","18","no","white","no","yes","0.09","98","1050","legacy","45","31","31","1","C:/Userdata/Michel/SpatialProb/IndividualPriorityMaps/Experiment2/data/subject-11.csv","legacy","9","192","25","Jazzy James","3.1.3","yes","598477b2b83f69022949e7e9","47","green","circular","red","circular","0","\","1921","space","18749","18749","(80, 80, 80)","(0, 122, 0)","(179, 0, 0)","(155, 155, 155)","2","legacy","experiment","[2, 3, 4, 5, 6, 7, 0, 1]","\","2500","3000","0","8","252.758751519","1024","2","48000","-16","main","[(0, -252), (178, -178), (252, 0), (178, 178), (0, 252), (-178, 178), (-252, 0), (-178, -178)]","[]","11","odd","7","352057","423833","423833","205016","204010","1795","256701","256701","1795","1795","223766","545171","1794","423833","543247","542325","542325","NA","916","study_X","0","18749","1","yes","1680"
"undefined","undefined","18749","18749","black","no","legacy","legacy","legacy","0","red","(179, 0, 0)","color","present","highProb","rectangular","swap","swap","swap","swap","green","(0, 122, 0)","lowProb","lowProb6","rectangular","uniform","1","undefined","0.0833333333333","1","1","393.0625","1","16","75468","0","0","0","0","0","0","0","0","57","0","1","0.0833333333333","393.0625","16","75468","57","57","57","08/21/17 12:55:26","Default description","yes","<openexp._canvas.legacy.legacy object at 0x04B827F0>","<openexp._canvas.legacy.legacy object at 0x04B8D7B0>","<openexp._canvas.legacy.legacy object at 0x04B7A410>","<openexp._canvas.legacy.legacy object at 0x04C709D0>","<openexp._canvas.legacy.legacy object at 0x04C414B0>","<openexp._canvas.legacy.legacy object at 0x04B91030>","<openexp._canvas.legacy.legacy object at 0x04C429F0>","75","IndividualPriorityWithDis_v1.osexp","C:/Userdata/Michel/SpatialProb/IndividualPriorityMaps/Experiment2","no","mono","no","18","no","white","no","yes","0.09","98","1050","legacy","315","32","32","1","C:/Userdata/Michel/SpatialProb/IndividualPriorityMaps/Experiment2/data/subject-11.csv","legacy","9","192","25","Jazzy James","3.1.3","yes","598477b2b83f69022949e7e9","47","red","rectangular","green","rectangular","0","/","2285","space","18749","18749","(80, 80, 80)","(0, 122, 0)","(179, 0, 0)","(155, 155, 155)","2","legacy","experiment","[2, 3, 4, 5, 6, 7, 0, 1]","/","2500","3000","0","8","252.758751519","1024","2","48000","-16","main","[(0, -252), (178, -178), (252, 0), (178, 178), (0, 252), (-178, 178), (-252, 0), (-178, -178)]","[]","11","odd","1","352057","423833","423833","205016","204010","1795","256701","256701","1795","1795","223766","548795","1794","423833","546506","545584","545584","NA","916","study_X","0","18749","1","yes","1680"
"undefined","undefined","18749","18749","black","no","legacy","legacy","legacy","0","red","(179, 0, 0)","color","absent","lowProb6","rectangular","same","same","swap","same","red","(179, 0, 0)","highProbColor","highProbColor","rectangular","uniform","1","undefined","0.0885416666667","1","1","398.838541667","1","17","76577","0","0","0","0","0","0","0","0","58","0","1","0.0885416666667","398.838541667","17","76577","58","58","58","08/21/17 12:55:26","Default description","yes","<openexp._canvas.legacy.legacy object at 0x04B827F0>","<openexp._canvas.legacy.legacy object at 0x04B8D7B0>","<openexp._canvas.legacy.legacy object at 0x04B7A410>","<openexp._canvas.legacy.legacy object at 0x04C709D0>","<openexp._canvas.legacy.legacy object at 0x04C414B0>","<openexp._canvas.legacy.legacy object at 0x04B98590>","<openexp._canvas.legacy.legacy object at 0x04C429F0>","75","IndividualPriorityWithDis_v1.osexp","C:/Userdata/Michel/SpatialProb/IndividualPriorityMaps/Experiment2","no","mono","no","18","no","white","no","yes","0.09","98","1050","legacy","45","33","33","1","C:/Userdata/Michel/SpatialProb/IndividualPriorityMaps/Experiment2/data/subject-11.csv","legacy","9","192","25","Jazzy James","3.1.3","yes","598477b2b83f69022949e7e9","47","red","rectangular","red","rectangular","0","\","1109","space","18749","18749","(80, 80, 80)","(0, 122, 0)","(179, 0, 0)","(155, 155, 155)","2","legacy","experiment","[2, 3, 4, 5, 6, 7, 0, 1]","\","2500","3000","0","8","252.758751519","1024","2","48000","-16","main","[(0, -252), (178, -178), (252, 0), (178, 178), (0, 252), (-178, 178), (-252, 0), (-178, -178)]","[]","11","odd","2","352057","423833","423833","205016","204010","1795","256701","256701","1795","1795","223766","551243","1794","423833","550131","549210","549210","NA","916","study_X","0","18749","1","yes","1680"
"undefined","undefined","18749","18749","black","no","legacy","legacy","legacy","0","red","(179, 0, 0)","color","present","lowProb3","rectangular","same","same","swap","same","green","(0, 122, 0)","lowProb","lowProb5","rectangular","uniform","1","undefined","0.09375","1","1","404.895833333","1","18","77740","0","0","0","0","0","0","0","0","59","0","1","0.09375","404.895833333","18","77740","59","59","59","08/21/17 12:55:26","Default description","yes","<openexp._canvas.legacy.legacy object at 0x04B827F0>","<openexp._canvas.legacy.legacy object at 0x04B8D7B0>","<openexp._canvas.legacy.legacy object at 0x04B7A410>","<openexp._canvas.legacy.legacy object at 0x04C709D0>","<openexp._canvas.legacy.legacy object at 0x04C414B0>","<openexp._canvas.legacy.legacy object at 0x04B91B50>","<openexp._canvas.legacy.legacy object at 0x04C429F0>","75","IndividualPriorityWithDis_v1.osexp","C:/Userdata/Michel/SpatialProb/IndividualPriorityMaps/Experiment2","no","mono","no","18","no","white","no","yes","0.09","98","1050","legacy","45","34","34","1","C:/Userdata/Michel/SpatialProb/IndividualPriorityMaps/Experiment2/data/subject-11.csv","legacy","9","192","25","Jazzy James","3.1.3","yes","598477b2b83f69022949e7e9","47","red","rectangular","green","rectangular","0","\","1163","space","18749","18749","(80, 80, 80)","(0, 122, 0)","(179, 0, 0)","(155, 155, 155)","2","legacy","experiment","[2, 3, 4, 5, 6, 7, 0, 1]","\","2500","3000","0","8","252.758751519","1024","2","48000","-16","main","[(0, -252), (178, -178), (252, 0), (178, 178), (0, 252), (-178, 178), (-252, 0), (-178, -178)]","[]","11","odd","0","352057","423833","423833","205016","204010","1795","256701","256701","1795","1795","223766","553764","1794","423833","552597","551675","551675","NA","916","study_X","0","18749","1","yes","1680"
"undefined","undefined","18749","18749","black","no","legacy","legacy","legacy","0","red","(179, 0, 0)","color","absent","lowProb3","rectangular","same","same","swap","same","red","(179, 0, 0)","lowProb","lowProb1","rectangular","uniform","1","undefined","0.0989583333333","1","1","413.84375","1","19","79458","0","0","0","0","0","0","0","0","60","0","1","0.0989583333333","413.84375","19","79458","60","60","60","08/21/17 12:55:26","Default description","yes","<openexp._canvas.legacy.legacy object at 0x04B827F0>","<openexp._canvas.legacy.legacy object at 0x04B8D7B0>","<openexp._canvas.legacy.legacy object at 0x04B7A410>","<openexp._canvas.legacy.legacy object at 0x04C709D0>","<openexp._canvas.legacy.legacy object at 0x04C414B0>","<openexp._canvas.legacy.legacy object at 0x04B8DF50>","<openexp._canvas.legacy.legacy object at 0x04C429F0>","75","IndividualPriorityWithDis_v1.osexp","C:/Userdata/Michel/SpatialProb/IndividualPriorityMaps/Experiment2","no","mono","no","18","no","white","no","yes","0.09","98","1050","legacy","45","35","35","1","C:/Userdata/Michel/SpatialProb/IndividualPriorityMaps/Experiment2/data/subject-11.csv","legacy","9","192","25","Jazzy James","3.1.3","yes","598477b2b83f69022949e7e9","47","red","rectangular","red","rectangular","0","\","1718","space","18749","18749","(80, 80, 80)","(0, 122, 0)","(179, 0, 0)","(155, 155, 155)","2","legacy","experiment","[2, 3, 4, 5, 6, 7, 0, 1]","\","2500","3000","0","8","252.758751519","1024","2","48000","-16","main","[(0, -252), (178, -178), (252, 0), (178, 178), (0, 252), (-178, 178), (-252, 0), (-178, -178)]","[]","11","odd","3","352057","423833","423833","205016","204010","1795","256701","256701","1795","1795","223766","556835","1794","423833","555115","554193","554193","NA","916","study_X","0","18749","1","yes","1680"
"undefined","undefined","18749","18749","black","no","legacy","legacy","legacy","0","green","(0, 122, 0)","shape","absent","lowProb5","rectangular","swap","same","swap","same","green","(0, 122, 0)","lowProb","lowProb6","rectangular","uniform","1","undefined","0.104166666667","1","1","420.536458333","1","20","80743","0","0","0","0","0","0","0","0","61","0","1","0.104166666667","420.536458333","20","80743","61","61","61","08/21/17 12:55:26","Default description","yes","<openexp._canvas.legacy.legacy object at 0x04B827F0>","<openexp._canvas.legacy.legacy object at 0x04B8D7B0>","<openexp._canvas.legacy.legacy object at 0x04B7A410>","<openexp._canvas.legacy.legacy object at 0x04C709D0>","<openexp._canvas.legacy.legacy object at 0x04C414B0>","<openexp._canvas.legacy.legacy object at 0x04B7FEB0>","<openexp._canvas.legacy.legacy object at 0x04C429F0>","75","IndividualPriorityWithDis_v1.osexp","C:/Userdata/Michel/SpatialProb/IndividualPriorityMaps/Experiment2","no","mono","no","18","no","white","no","yes","0.09","98","1050","legacy","45","36","36","1","C:/Userdata/Michel/SpatialProb/IndividualPriorityMaps/Experiment2/data/subject-11.csv","legacy","9","192","25","Jazzy James","3.1.3","yes","598477b2b83f69022949e7e9","47","green","rectangular","green","rectangular","0","\","1285","space","18749","18749","(80, 80, 80)","(0, 122, 0)","(179, 0, 0)","(155, 155, 155)","2","legacy","experiment","[2, 3, 4, 5, 6, 7, 0, 1]","\","2500","3000","0","8","252.758751519","1024","2","48000","-16","main","[(0, -252), (178, -178), (252, 0), (178, 178), (0, 252), (-178, 178), (-252, 0), (-178, -178)]","[]","11","odd","1","352057","423833","423833","205016","204010","1795","256701","256701","1795","1795","223766","559459","1794","423833","558171","557249","557249","NA","916","study_X","0","18749","1","yes","1680"
"undefined","undefined","18749","18749","black","no","legacy","legacy","legacy","0","red","(179, 0, 0)","shape","present","highProb","circular","swap","swap","swap","same","red","(179, 0, 0)","lowProb","lowProb1","rectangular","uniform","0","undefined","0.104166666667","1","1","432.46875","1","20","83034","0","0","0","0","0","0","0","0","62","0","1","0.104166666667","432.46875","20","83034","62","62","62","08/21/17 12:55:26","Default description","yes","<openexp._canvas.legacy.legacy object at 0x04B827F0>","<openexp._canvas.legacy.legacy object at 0x04B8D7B0>","<openexp._canvas.legacy.legacy object at 0x04B7A410>","<openexp._canvas.legacy.legacy object at 0x04C709D0>","<openexp._canvas.legacy.legacy object at 0x04C414B0>","<openexp._canvas.legacy.legacy object at 0x04C71090>","<openexp._canvas.legacy.legacy object at 0x04C429F0>","75","IndividualPriorityWithDis_v1.osexp","C:/Userdata/Michel/SpatialProb/IndividualPriorityMaps/Experiment2","no","mono","no","18","no","white","no","yes","0.09","98","1050","legacy","315","37","37","1","C:/Userdata/Michel/SpatialProb/IndividualPriorityMaps/Experiment2/data/subject-11.csv","legacy","9","192","25","Jazzy James","3.1.3","yes","598477b2b83f69022949e7e9","47","red","circular","red","rectangular","0","\","2291","space","18749","18749","(80, 80, 80)","(0, 122, 0)","(179, 0, 0)","(155, 155, 155)","2","legacy","experiment","[2, 3, 4, 5, 6, 7, 0, 1]","/","2500","3000","0","8","252.758751519","1024","2","48000","-16","main","[(0, -252), (178, -178), (252, 0), (178, 178), (0, 252), (-178, 178), (-252, 0), (-178, -178)]","[]","11","odd","3","352057","423833","423833","205016","204010","1795","256701","256701","1795","1795","223766","563091","1794","423833","560797","559875","559875","NA","916","study_X","0","18749","1","yes","1680"
"undefined","undefined","18749","18749","black","no","legacy","legacy","legacy","0","green","(0, 122, 0)","shape","absent","lowProb2","circular","swap","same","swap","swap","green","(0, 122, 0)","lowProb","lowProb3","circular","uniform","0","undefined","0.104166666667","1","1","445.489583333","1","20","85534","0","0","0","0","0","0","0","0","63","0","1","0.104166666667","445.489583333","20","85534","63","63","63","08/21/17 12:55:26","Default description","yes","<openexp._canvas.legacy.legacy object at 0x04B827F0>","<openexp._canvas.legacy.legacy object at 0x04B8D7B0>","<openexp._canvas.legacy.legacy object at 0x04B7A410>","<openexp._canvas.legacy.legacy object at 0x04C709D0>","<openexp._canvas.legacy.legacy object at 0x04C414B0>","<openexp._canvas.legacy.legacy object at 0x04B89450>","<openexp._canvas.legacy.legacy object at 0x04C429F0>","75","IndividualPriorityWithDis_v1.osexp","C:/Userdata/Michel/SpatialProb/IndividualPriorityMaps/Experiment2","no","mono","no","18","no","white","no","yes","0.09","98","1050","legacy","45","38","38","1","C:/Userdata/Michel/SpatialProb/IndividualPriorityMaps/Experiment2/data/subject-11.csv","legacy","9","192","25","Jazzy James","3.1.3","yes","598477b2b83f69022949e7e9","47","green","circular","green","circular","0","None","2500","space","18749","18749","(80, 80, 80)","(0, 122, 0)","(179, 0, 0)","(155, 155, 155)","2","legacy","experiment","[2, 3, 4, 5, 6, 7, 0, 1]","\","2500","3000","0","8","252.758751519","1024","2","48000","-16","main","[(0, -252), (178, -178), (252, 0), (178, 178), (0, 252), (-178, 178), (-252, 0), (-178, -178)]","[]","11","odd","5","352057","423833","423833","205016","204010","1795","256701","256701","1795","1795","223766","566926","1794","423833","564423","563502","563502","NA","916","study_X","0","18749","1","yes","1680"
"undefined","undefined","18749","18749","black","no","legacy","legacy","legacy","0","red","(179, 0, 0)","color","absent","lowProb2","circular","swap","same","swap","same","red","(179, 0, 0)","lowProb","lowProb5","circular","uniform","0","undefined","0.104166666667","1","1","455.734375","1","20","87501","0","0","0","0","0","0","0","0","64","0","1","0.104166666667","455.734375","20","87501","64","64","64","08/21/17 12:55:26","Default description","yes","<openexp._canvas.legacy.legacy object at 0x04B827F0>","<openexp._canvas.legacy.legacy object at 0x04B8D7B0>","<openexp._canvas.legacy.legacy object at 0x04B7A410>","<openexp._canvas.legacy.legacy object at 0x04C709D0>","<openexp._canvas.legacy.legacy object at 0x04C414B0>","<openexp._canvas.legacy.legacy object at 0x04B7EA70>","<openexp._canvas.legacy.legacy object at 0x04C429F0>","75","IndividualPriorityWithDis_v1.osexp","C:/Userdata/Michel/SpatialProb/IndividualPriorityMaps/Experiment2","no","mono","no","18","no","white","no","yes","0.09","98","1050","legacy","315","39","39","1","C:/Userdata/Michel/SpatialProb/IndividualPriorityMaps/Experiment2/data/subject-11.csv","legacy","9","192","25","Jazzy James","3.1.3","yes","598477b2b83f69022949e7e9","47","red","circular","red","circular","0","\","1967","space","18749","18749","(80, 80, 80)","(0, 122, 0)","(179, 0, 0)","(155, 155, 155)","2","legacy","experiment","[2, 3, 4, 5, 6, 7, 0, 1]","/","2500","3000","0","8","252.758751519","1024","2","48000","-16","main","[(0, -252), (178, -178), (252, 0), (178, 178), (0, 252), (-178, 178), (-252, 0), (-178, -178)]","[]","11","odd","0","352057","423833","423833","205016","204010","1795","256701","256701","1795","1795","223766","570243","1794","423833","568273","567351","567352","NA","916","study_X","0","18749","1","yes","1680"
"undefined","undefined","18749","18749","black","no","legacy","legacy","legacy","0","green","(0, 122, 0)","color","absent","highProb","rectangular","swap","swap","swap","swap","green","(0, 122, 0)","lowProb","lowProb5","rectangular","uniform","0","undefined","0.104166666667","1","1","468.755208333","1","20","90001","0","0","0","0","0","0","0","0","65","0","1","0.104166666667","468.755208333","20","90001","65","65","65","08/21/17 12:55:26","Default description","yes","<openexp._canvas.legacy.legacy object at 0x04B827F0>","<openexp._canvas.legacy.legacy object at 0x04B8D7B0>","<openexp._canvas.legacy.legacy object at 0x04B7A410>","<openexp._canvas.legacy.legacy object at 0x04C709D0>","<openexp._canvas.legacy.legacy object at 0x04C414B0>","<openexp._canvas.legacy.legacy object at 0x04B8DD70>","<openexp._canvas.legacy.legacy object at 0x04C429F0>","75","IndividualPriorityWithDis_v1.osexp","C:/Userdata/Michel/SpatialProb/IndividualPriorityMaps/Experiment2","no","mono","no","18","no","white","no","yes","0.09","98","1050","legacy","45","40","40","1","C:/Userdata/Michel/SpatialProb/IndividualPriorityMaps/Experiment2/data/subject-11.csv","legacy","9","192","25","Jazzy James","3.1.3","yes","598477b2b83f69022949e7e9","47","green","rectangular","green","rectangular","0","None","2500","space","18749","18749","(80, 80, 80)","(0, 122, 0)","(179, 0, 0)","(155, 155, 155)","2","legacy","experiment","[2, 3, 4, 5, 6, 7, 0, 1]","\","2500","3000","0","8","252.758751519","1024","2","48000","-16","main","[(0, -252), (178, -178), (252, 0), (178, 178), (0, 252), (-178, 178), (-252, 0), (-178, -178)]","[]","11","odd","0","352057","423833","423833","205016","204010","1795","256701","256701","1795","1795","223766","574086","1794","423833","571584","570662","570662","NA","916","study_X","0","18749","1","yes","1680"
"undefined","undefined","18749","18749","black","no","legacy","legacy","legacy","0","red","(179, 0, 0)","color","absent","lowProb2","rectangular","swap","same","swap","same","red","(179, 0, 0)","lowProb","lowProb5","rectangular","uniform","0","undefined","0.104166666667","1","1","474.46875","1","20","91098","0","0","0","0","0","0","0","0","66","0","1","0.104166666667","474.46875","20","91098","66","66","66","08/21/17 12:55:26","Default description","yes","<openexp._canvas.legacy.legacy object at 0x04B827F0>","<openexp._canvas.legacy.legacy object at 0x04B8D7B0>","<openexp._canvas.legacy.legacy object at 0x04B7A410>","<openexp._canvas.legacy.legacy object at 0x04C709D0>","<openexp._canvas.legacy.legacy object at 0x04C414B0>","<openexp._canvas.legacy.legacy object at 0x04B84F90>","<openexp._canvas.legacy.legacy object at 0x04C429F0>","75","IndividualPriorityWithDis_v1.osexp","C:/Userdata/Michel/SpatialProb/IndividualPriorityMaps/Experiment2","no","mono","no","18","no","white","no","yes","0.09","98","1050","legacy","315","41","41","1","C:/Userdata/Michel/SpatialProb/IndividualPriorityMaps/Experiment2/data/subject-11.csv","legacy","9","192","25","Jazzy James","3.1.3","yes","598477b2b83f69022949e7e9","47","red","rectangular","red","rectangular","0","\","1097","space","18749","18749","(80, 80, 80)","(0, 122, 0)","(179, 0, 0)","(155, 155, 155)","2","legacy","experiment","[2, 3, 4, 5, 6, 7, 0, 1]","/","2500","3000","0","8","252.758751519","1024","2","48000","-16","main","[(0, -252), (178, -178), (252, 0), (178, 178), (0, 252), (-178, 178), (-252, 0), (-178, -178)]","[]","11","odd","0","352057","423833","423833","205016","204010","1795","256701","256701","1795","1795","223766","576523","1794","423833","575424","574502","574502","NA","916","study_X","0","18749","1","yes","1680"
"undefined","undefined","18749","18749","black","no","legacy","legacy","legacy","0","red","(179, 0, 0)","shape","absent","lowProb3","rectangular","same","same","same","same","red","(179, 0, 0)","lowProb","lowProb2","rectangular","uniform","0","undefined","0.104166666667","1","1","487.489583333","1","20","93598","0","0","0","0","0","0","0","0","67","0","1","0.104166666667","487.489583333","20","93598","67","67","67","08/21/17 12:55:26","Default description","yes","<openexp._canvas.legacy.legacy object at 0x04B827F0>","<openexp._canvas.legacy.legacy object at 0x04B8D7B0>","<openexp._canvas.legacy.legacy object at 0x04B7A410>","<openexp._canvas.legacy.legacy object at 0x04C709D0>","<openexp._canvas.legacy.legacy object at 0x04C414B0>","<openexp._canvas.legacy.legacy object at 0x04B7FB70>","<openexp._canvas.legacy.legacy object at 0x04C429F0>","75","IndividualPriorityWithDis_v1.osexp","C:/Userdata/Michel/SpatialProb/IndividualPriorityMaps/Experiment2","no","mono","no","18","no","white","no","yes","0.09","98","1050","legacy","45","42","42","1","C:/Userdata/Michel/SpatialProb/IndividualPriorityMaps/Experiment2/data/subject-11.csv","legacy","9","192","25","Jazzy James","3.1.3","yes","598477b2b83f69022949e7e9","47","red","rectangular","red","rectangular","0","None","2500","space","18749","18749","(80, 80, 80)","(0, 122, 0)","(179, 0, 0)","(155, 155, 155)","2","legacy","experiment","[2, 3, 4, 5, 6, 7, 0, 1]","\","2500","3000","0","8","252.758751519","1024","2","48000","-16","main","[(0, -252), (178, -178), (252, 0), (178, 178), (0, 252), (-178, 178), (-252, 0), (-178, -178)]","[]","11","odd","4","352057","423833","423833","205016","204010","1795","256701","256701","1795","1795","223766","580385","1794","423833","577882","576960","576960","NA","916","study_X","0","18749","1","yes","1680"
"undefined","undefined","18749","18749","black","no","legacy","legacy","legacy","0","red","(179, 0, 0)","shape","present","lowProb2","rectangular","same","same","same","swap","red","(179, 0, 0)","highProbShape","highProbShape","circular","uniform","0","undefined","0.104166666667","1","1","500.510416667","1","20","96098","0","0","0","0","0","0","0","0","68","0","1","0.104166666667","500.510416667","20","96098","68","68","68","08/21/17 12:55:26","Default description","yes","<openexp._canvas.legacy.legacy object at 0x04B827F0>","<openexp._canvas.legacy.legacy object at 0x04B8D7B0>","<openexp._canvas.legacy.legacy object at 0x04B7A410>","<openexp._canvas.legacy.legacy object at 0x04C709D0>","<openexp._canvas.legacy.legacy object at 0x04C414B0>","<openexp._canvas.legacy.legacy object at 0x04B840D0>","<openexp._canvas.legacy.legacy object at 0x04C429F0>","75","IndividualPriorityWithDis_v1.osexp","C:/Userdata/Michel/SpatialProb/IndividualPriorityMaps/Experiment2","no","mono","no","18","no","white","no","yes","0.09","98","1050","legacy","315","43","43","1","C:/Userdata/Michel/SpatialProb/IndividualPriorityMaps/Experiment2/data/subject-11.csv","legacy","9","192","25","Jazzy James","3.1.3","yes","598477b2b83f69022949e7e9","47","red","rectangular","red","circular","0","None","2500","space","18749","18749","(80, 80, 80)","(0, 122, 0)","(179, 0, 0)","(155, 155, 155)","2","legacy","experiment","[2, 3, 4, 5, 6, 7, 0, 1]","/","2500","3000","0","8","252.758751519","1024","2","48000","-16","main","[(0, -252), (178, -178), (252, 0), (178, 178), (0, 252), (-178, 178), (-252, 0), (-178, -178)]","[]","11","odd","6","352057","423833","423833","205016","204010","1795","256701","256701","1795","1795","223766","584229","1794","423833","581726","580804","580804","NA","916","study_X","0","18749","1","yes","1680"
"undefined","undefined","18749","18749","black","no","legacy","legacy","legacy","0","green","(0, 122, 0)","color","absent","lowProb1","circular","swap","swap","swap","same","green","(0, 122, 0)","lowProb","lowProb6","circular","uniform","1","undefined","0.109375","1","1","505.770833333","1","21","97108","0","0","0","0","0","0","0","0","69","0","1","0.109375","505.770833333","21","97108","69","69","69","08/21/17 12:55:26","Default description","yes","<openexp._canvas.legacy.legacy object at 0x04B827F0>","<openexp._canvas.legacy.legacy object at 0x04B8D7B0>","<openexp._canvas.legacy.legacy object at 0x04B7A410>","<openexp._canvas.legacy.legacy object at 0x04C709D0>","<openexp._canvas.legacy.legacy object at 0x04C414B0>","<openexp._canvas.legacy.legacy object at 0x04B7E870>","<openexp._canvas.legacy.legacy object at 0x04C429F0>","75","IndividualPriorityWithDis_v1.osexp","C:/Userdata/Michel/SpatialProb/IndividualPriorityMaps/Experiment2","no","mono","no","18","no","white","no","yes","0.09","98","1050","legacy","315","44","44","1","C:/Userdata/Michel/SpatialProb/IndividualPriorityMaps/Experiment2/data/subject-11.csv","legacy","9","192","25","Jazzy James","3.1.3","yes","598477b2b83f69022949e7e9","47","green","circular","green","circular","0","/","1010","space","18749","18749","(80, 80, 80)","(0, 122, 0)","(179, 0, 0)","(155, 155, 155)","2","legacy","experiment","[2, 3, 4, 5, 6, 7, 0, 1]","/","2500","3000","0","8","252.758751519","1024","2","48000","-16","main","[(0, -252), (178, -178), (252, 0), (178, 178), (0, 252), (-178, 178), (-252, 0), (-178, -178)]","[]","11","odd","1","352057","423833","423833","205016","204010","1795","256701","256701","1795","1795","223766","586594","1794","423833","585581","584659","584659","NA","916","study_X","0","18749","1","yes","1680"
"undefined","undefined","18749","18749","black","no","legacy","legacy","legacy","0","green","(0, 122, 0)","color","present","highProb","rectangular","same","swap","swap","swap","red","(179, 0, 0)","lowProb","lowProb3","rectangular","uniform","1","undefined","0.114583333333","1","1","512.979166667","1","22","98492","0","0","0","0","0","0","0","0","70","0","1","0.114583333333","512.979166667","22","98492","70","70","70","08/21/17 12:55:26","Default description","yes","<openexp._canvas.legacy.legacy object at 0x04B827F0>","<openexp._canvas.legacy.legacy object at 0x04B8D7B0>","<openexp._canvas.legacy.legacy object at 0x04B7A410>","<openexp._canvas.legacy.legacy object at 0x04C709D0>","<openexp._canvas.legacy.legacy object at 0x04C414B0>","<openexp._canvas.legacy.legacy object at 0x04B7AF90>","<openexp._canvas.legacy.legacy object at 0x04C429F0>","75","IndividualPriorityWithDis_v1.osexp","C:/Userdata/Michel/SpatialProb/IndividualPriorityMaps/Experiment2","no","mono","no","18","no","white","no","yes","0.09","98","1050","legacy","45","45","45","1","C:/Userdata/Michel/SpatialProb/IndividualPriorityMaps/Experiment2/data/subject-11.csv","legacy","9","192","25","Jazzy James","3.1.3","yes","598477b2b83f69022949e7e9","47","green","rectangular","red","rectangular","0","\","1384","space","18749","18749","(80, 80, 80)","(0, 122, 0)","(179, 0, 0)","(155, 155, 155)","2","legacy","experiment","[2, 3, 4, 5, 6, 7, 0, 1]","\","2500","3000","0","8","252.758751519","1024","2","48000","-16","main","[(0, -252), (178, -178), (252, 0), (178, 178), (0, 252), (-178, 178), (-252, 0), (-178, -178)]","[]","11","odd","5","352057","423833","423833","205016","204010","1795","256701","256701","1795","1795","223766","589315","1794","423833","587928","587007","587007","NA","916","study_X","0","18749","1","yes","1680"
"undefined","undefined","18749","18749","black","no","legacy","legacy","legacy","0","green","(0, 122, 0)","shape","present","highProb","rectangular","same","same","swap","swap","green","(0, 122, 0)","lowProb","lowProb1","circular","uniform","0","undefined","0.114583333333","1","1","526","1","22","100992","0","0","0","0","0","0","0","0","71","0","1","0.114583333333","526","22","100992","71","71","71","08/21/17 12:55:26","Default description","yes","<openexp._canvas.legacy.legacy object at 0x04B827F0>","<openexp._canvas.legacy.legacy object at 0x04B8D7B0>","<openexp._canvas.legacy.legacy object at 0x04B7A410>","<openexp._canvas.legacy.legacy object at 0x04C709D0>","<openexp._canvas.legacy.legacy object at 0x04C414B0>","<openexp._canvas.legacy.legacy object at 0x04B7F570>","<openexp._canvas.legacy.legacy object at 0x04C429F0>","75","IndividualPriorityWithDis_v1.osexp","C:/Userdata/Michel/SpatialProb/IndividualPriorityMaps/Experiment2","no","mono","no","18","no","white","no","yes","0.09","98","1050","legacy","315","46","46","1","C:/Userdata/Michel/SpatialProb/IndividualPriorityMaps/Experiment2/data/subject-11.csv","legacy","9","192","25","Jazzy James","3.1.3","yes","598477b2b83f69022949e7e9","47","green","rectangular","green","circular","0","None","2500","space","18749","18749","(80, 80, 80)","(0, 122, 0)","(179, 0, 0)","(155, 155, 155)","2","legacy","experiment","[2, 3, 4, 5, 6, 7, 0, 1]","/","2500","3000","0","8","252.758751519","1024","2","48000","-16","main","[(0, -252), (178, -178), (252, 0), (178, 178), (0, 252), (-178, 178), (-252, 0), (-178, -178)]","[]","11","odd","3","352057","423833","423833","205016","204010","1795","256701","256701","1795","1795","223766","593160","1794","423833","590658","589736","589736","NA","916","study_X","0","18749","1","yes","1680"
"undefined","undefined","18749","18749","black","no","legacy","legacy","legacy","0","green","(0, 122, 0)","shape","absent","lowProb6","rectangular","same","same","same","swap","green","(0, 122, 0)","lowProb","lowProb2","rectangular","uniform","1","undefined","0.119791666667","1","1","536.104166667","1","23","102932","0","0","0","0","0","0","0","0","72","0","1","0.119791666667","536.104166667","23","102932","72","72","72","08/21/17 12:55:26","Default description","yes","<openexp._canvas.legacy.legacy object at 0x04B827F0>","<openexp._canvas.legacy.legacy object at 0x04B8D7B0>","<openexp._canvas.legacy.legacy object at 0x04B7A410>","<openexp._canvas.legacy.legacy object at 0x04C709D0>","<openexp._canvas.legacy.legacy object at 0x04C414B0>","<openexp._canvas.legacy.legacy object at 0x04C71410>","<openexp._canvas.legacy.legacy object at 0x04C429F0>","75","IndividualPriorityWithDis_v1.osexp","C:/Userdata/Michel/SpatialProb/IndividualPriorityMaps/Experiment2","no","mono","no","18","no","white","no","yes","0.09","98","1050","legacy","45","47","47","1","C:/Userdata/Michel/SpatialProb/IndividualPriorityMaps/Experiment2/data/subject-11.csv","legacy","9","192","25","Jazzy James","3.1.3","yes","598477b2b83f69022949e7e9","47","green","rectangular","green","rectangular","0","\","1940","space","18749","18749","(80, 80, 80)","(0, 122, 0)","(179, 0, 0)","(155, 155, 155)","2","legacy","experiment","[2, 3, 4, 5, 6, 7, 0, 1]","\","2500","3000","0","8","252.758751519","1024","2","48000","-16","main","[(0, -252), (178, -178), (252, 0), (178, 178), (0, 252), (-178, 178), (-252, 0), (-178, -178)]","[]","11","odd","4","352057","423833","423833","205016","204010","1795","256701","256701","1795","1795","223766","596435","1794","423833","594491","593569","593569","NA","916","study_X","0","18749","1","yes","1680"
"undefined","undefined","18749","18749","black","no","legacy","legacy","legacy","0","green","(0, 122, 0)","shape","present","highProb","circular","same","swap","same","same","green","(0, 122, 0)","lowProb","lowProb6","rectangular","uniform","1","undefined","0.125","1","1","545.96875","1","24","104826","0","0","0","0","0","0","0","0","73","0","1","0.125","545.96875","24","104826","73","73","73","08/21/17 12:55:26","Default description","yes","<openexp._canvas.legacy.legacy object at 0x04B827F0>","<openexp._canvas.legacy.legacy object at 0x04B8D7B0>","<openexp._canvas.legacy.legacy object at 0x04B7A410>","<openexp._canvas.legacy.legacy object at 0x04C709D0>","<openexp._canvas.legacy.legacy object at 0x04C414B0>","<openexp._canvas.legacy.legacy object at 0x04B89770>","<openexp._canvas.legacy.legacy object at 0x04C429F0>","75","IndividualPriorityWithDis_v1.osexp","C:/Userdata/Michel/SpatialProb/IndividualPriorityMaps/Experiment2","no","mono","no","18","no","white","no","yes","0.09","98","1050","legacy","315","48","48","1","C:/Userdata/Michel/SpatialProb/IndividualPriorityMaps/Experiment2/data/subject-11.csv","legacy","9","192","25","Jazzy James","3.1.3","yes","598477b2b83f69022949e7e9","47","green","circular","green","rectangular","0","/","1894","space","18749","18749","(80, 80, 80)","(0, 122, 0)","(179, 0, 0)","(155, 155, 155)","2","legacy","experiment","[2, 3, 4, 5, 6, 7, 0, 1]","/","2500","3000","0","8","252.758751519","1024","2","48000","-16","main","[(0, -252), (178, -178), (252, 0), (178, 178), (0, 252), (-178, 178), (-252, 0), (-178, -178)]","[]","11","odd","1","352057","423833","423833","205016","204010","1795","256701","256701","1795","1795","223766","599659","1794","423833","597761","596839","596839","NA","916","study_X","0","18749","1","yes","1680"
"undefined","undefined","18749","18749","black","no","legacy","legacy","legacy","0","red","(179, 0, 0)","color","absent","highProbOther","rectangular","swap","swap","swap","same","red","(179, 0, 0)","highProbShape","highProbShape","rectangular","uniform","0","undefined","0.125","1","1","558.989583333","1","24","107326","0","0","0","0","0","0","0","0","74","0","1","0.125","558.989583333","24","107326","74","74","74","08/21/17 12:55:26","Default description","yes","<openexp._canvas.legacy.legacy object at 0x04B827F0>","<openexp._canvas.legacy.legacy object at 0x04B8D7B0>","<openexp._canvas.legacy.legacy object at 0x04B7A410>","<openexp._canvas.legacy.legacy object at 0x04C709D0>","<openexp._canvas.legacy.legacy object at 0x04C414B0>","<openexp._canvas.legacy.legacy object at 0x04B912F0>","<openexp._canvas.legacy.legacy object at 0x04C429F0>","75","IndividualPriorityWithDis_v1.osexp","C:/Userdata/Michel/SpatialProb/IndividualPriorityMaps/Experiment2","no","mono","no","18","no","white","no","yes","0.09","98","1050","legacy","315","49","49","1","C:/Userdata/Michel/SpatialProb/IndividualPriorityMaps/Experiment2/data/subject-11.csv","legacy","9","192","25","Jazzy James","3.1.3","yes","598477b2b83f69022949e7e9","47","red","rectangular","red","rectangular","0","None","2500","space","18749","18749","(80, 80, 80)","(0, 122, 0)","(179, 0, 0)","(155, 155, 155)","2","legacy","experiment","[2, 3, 4, 5, 6, 7, 0, 1]","/","2500","3000","0","8","252.758751519","1024","2","48000","-16","main","[(0, -252), (178, -178), (252, 0), (178, 178), (0, 252), (-178, 178), (-252, 0), (-178, -178)]","[]","11","odd","6","352057","423833","423833","205016","204010","1795","256701","256701","1795","1795","223766","603494","1794","423833","600991","600069","600069","NA","916","study_X","0","18749","1","yes","1680"
"undefined","undefined","18749","18749","black","no","legacy","legacy","legacy","0","red","(179, 0, 0)","shape","present","lowProb1","rectangular","same","same","same","swap","red","(179, 0, 0)","lowProb","lowProb2","circular","uniform","0","undefined","0.125","1","1","572.010416667","1","24","109826","0","0","0","0","0","0","0","0","75","0","1","0.125","572.010416667","24","109826","75","75","75","08/21/17 12:55:26","Default description","yes","<openexp._canvas.legacy.legacy object at 0x04B827F0>","<openexp._canvas.legacy.legacy object at 0x04B8D7B0>","<openexp._canvas.legacy.legacy object at 0x04B7A410>","<openexp._canvas.legacy.legacy object at 0x04C709D0>","<openexp._canvas.legacy.legacy object at 0x04C414B0>","<openexp._canvas.legacy.legacy object at 0x04B7E110>","<openexp._canvas.legacy.legacy object at 0x04C429F0>","75","IndividualPriorityWithDis_v1.osexp","C:/Userdata/Michel/SpatialProb/IndividualPriorityMaps/Experiment2","no","mono","no","18","no","white","no","yes","0.09","98","1050","legacy","315","50","50","1","C:/Userdata/Michel/SpatialProb/IndividualPriorityMaps/Experiment2/data/subject-11.csv","legacy","9","192","25","Jazzy James","3.1.3","yes","598477b2b83f69022949e7e9","47","red","rectangular","red","circular","0","None","2500","space","18749","18749","(80, 80, 80)","(0, 122, 0)","(179, 0, 0)","(155, 155, 155)","2","legacy","experiment","[2, 3, 4, 5, 6, 7, 0, 1]","/","2500","3000","0","8","252.758751519","1024","2","48000","-16","main","[(0, -252), (178, -178), (252, 0), (178, 178), (0, 252), (-178, 178), (-252, 0), (-178, -178)]","[]","11","odd","4","352057","423833","423833","205016","204010","1795","256701","256701","1795","1795","223766","607337","1794","423833","604834","603913","603913","NA","916","study_X","0","18749","1","yes","1680"
"undefined","undefined","18749","18749","black","no","legacy","legacy","legacy","0","red","(179, 0, 0)","shape","present","highProb","rectangular","same","same","same","same","red","(179, 0, 0)","lowProb","lowProb5","circular","uniform","1","undefined","0.130208333333","1","1","580.317708333","1","25","111421","0","0","0","0","0","0","0","0","76","0","1","0.130208333333","580.317708333","25","111421","76","76","76","08/21/17 12:55:26","Default description","yes","<openexp._canvas.legacy.legacy object at 0x04B827F0>","<openexp._canvas.legacy.legacy object at 0x04B8D7B0>","<openexp._canvas.legacy.legacy object at 0x04B7A410>","<openexp._canvas.legacy.legacy object at 0x04C709D0>","<openexp._canvas.legacy.legacy object at 0x04C414B0>","<openexp._canvas.legacy.legacy object at 0x04B824D0>","<openexp._canvas.legacy.legacy object at 0x04C429F0>","75","IndividualPriorityWithDis_v1.osexp","C:/Userdata/Michel/SpatialProb/IndividualPriorityMaps/Experiment2","no","mono","no","18","no","white","no","yes","0.09","98","1050","legacy","315","51","51","1","C:/Userdata/Michel/SpatialProb/IndividualPriorityMaps/Experiment2/data/subject-11.csv","legacy","9","192","25","Jazzy James","3.1.3","yes","598477b2b83f69022949e7e9","47","red","rectangular","red","circular","0","/","1595","space","18749","18749","(80, 80, 80)","(0, 122, 0)","(179, 0, 0)","(155, 155, 155)","2","legacy","experiment","[2, 3, 4, 5, 6, 7, 0, 1]","/","2500","3000","0","8","252.758751519","1024","2","48000","-16","main","[(0, -252), (178, -178), (252, 0), (178, 178), (0, 252), (-178, 178), (-252, 0), (-178, -178)]","[]","11","odd","0","352057","423833","423833","205016","204010","1795","256701","256701","1795","1795","223766","610275","1794","423833","608677","607755","607755","NA","916","study_X","0","18749","1","yes","1680"
"undefined","undefined","18749","18749","black","no","legacy","legacy","legacy","0","green","(0, 122, 0)","color","present","highProb","circular","swap","swap","same","same","red","(179, 0, 0)","highProbShape","highProbShape","circular","uniform","0","undefined","0.130208333333","1","1","587.317708333","1","25","112765","0","0","0","0","0","0","0","0","77","0","1","0.130208333333","587.317708333","25","112765","77","77","77","08/21/17 12:55:26","Default description","yes","<openexp._canvas.legacy.legacy object at 0x04B827F0>","<openexp._canvas.legacy.legacy object at 0x04B8D7B0>","<openexp._canvas.legacy.legacy object at 0x04B7A410>","<openexp._canvas.legacy.legacy object at 0x04C709D0>","<openexp._canvas.legacy.legacy object at 0x04C414B0>","<openexp._canvas.legacy.legacy object at 0x04C6BB70>","<openexp._canvas.legacy.legacy object at 0x04C429F0>","75","IndividualPriorityWithDis_v1.osexp","C:/Userdata/Michel/SpatialProb/IndividualPriorityMaps/Experiment2","no","mono","no","18","no","white","no","yes","0.09","98","1050","legacy","45","52","52","1","C:/Userdata/Michel/SpatialProb/IndividualPriorityMaps/Experiment2/data/subject-11.csv","legacy","9","192","25","Jazzy James","3.1.3","yes","598477b2b83f69022949e7e9","47","green","circular","red","circular","0","/","1344","space","18749","18749","(80, 80, 80)","(0, 122, 0)","(179, 0, 0)","(155, 155, 155)","2","legacy","experiment","[2, 3, 4, 5, 6, 7, 0, 1]","\","2500","3000","0","8","252.758751519","1024","2","48000","-16","main","[(0, -252), (178, -178), (252, 0), (178, 178), (0, 252), (-178, 178), (-252, 0), (-178, -178)]","[]","11","odd","6","352057","423833","423833","205016","204010","1795","256701","256701","1795","1795","223766","612971","1794","423833","611623","610701","610701","NA","916","study_X","0","18749","1","yes","1680"
"undefined","undefined","18749","18749","black","no","legacy","legacy","legacy","0","green","(0, 122, 0)","shape","present","lowProb5","rectangular","same","swap","swap","same","green","(0, 122, 0)","lowProb","lowProb2","circular","uniform","0","undefined","0.130208333333","1","1","597.59375","1","25","114738","0","0","0","0","0","0","0","0","78","0","1","0.130208333333","597.59375","25","114738","78","78","78","08/21/17 12:55:26","Default description","yes","<openexp._canvas.legacy.legacy object at 0x04B827F0>","<openexp._canvas.legacy.legacy object at 0x04B8D7B0>","<openexp._canvas.legacy.legacy object at 0x04B7A410>","<openexp._canvas.legacy.legacy object at 0x04C709D0>","<openexp._canvas.legacy.legacy object at 0x04C414B0>","<openexp._canvas.legacy.legacy object at 0x04B91850>","<openexp._canvas.legacy.legacy object at 0x04C429F0>","75","IndividualPriorityWithDis_v1.osexp","C:/Userdata/Michel/SpatialProb/IndividualPriorityMaps/Experiment2","no","mono","no","18","no","white","no","yes","0.09","98","1050","legacy","315","53","53","1","C:/Userdata/Michel/SpatialProb/IndividualPriorityMaps/Experiment2/data/subject-11.csv","legacy","9","192","25","Jazzy James","3.1.3","yes","598477b2b83f69022949e7e9","47","green","rectangular","green","circular","0","\","1973","space","18749","18749","(80, 80, 80)","(0, 122, 0)","(179, 0, 0)","(155, 155, 155)","2","legacy","experiment","[2, 3, 4, 5, 6, 7, 0, 1]","/","2500","3000","0","8","252.758751519","1024","2","48000","-16","main","[(0, -252), (178, -178), (252, 0), (178, 178), (0, 252), (-178, 178), (-252, 0), (-178, -178)]","[]","11","odd","4","352057","423833","423833","205016","204010","1795","256701","256701","1795","1795","223766","616291","1794","423833","614314","613392","613392","NA","916","study_X","0","18749","1","yes","1680"
