acc,accuracy,answerQ1,answerQ2,answerQ3,average_response_time,avg_rt,background,bidi,canvas_backend,clock_backend,color_backend,compensation,cond_disColor,cond_disColorRGB,cond_disFeature,cond_disPresent,cond_disProbability,cond_disShape,cond_primingDisColor,cond_primingDisShape,cond_primingTarColor,cond_primingTarShape,cond_tarColor,cond_tarColorRGB,cond_tarLocation,cond_tarLocationLong,cond_tarShape,coordinates,correct,correct_continuePress,count_Questions,count_blockAcc,count_blockFeed,count_blockLoop,count_blockRT,count_blockSeq,count_blockSumCorrect,count_blockSumRT,count_continuePress,count_example,count_expSettings,count_exp_mainLoop,count_experiment,count_instructions,count_instructions1,count_instructions2,count_log,count_main,count_prepCanvas,count_totalAcc,count_totalRT,count_totalSumCorrect,count_totalSumRT,count_trialResp,count_trialSeq,count_trialTask,datetime,description,disable_garbage_collection,dispBlank,dispBlockStart,dispFeedBlock,dispFix,dispInstructions,dispQuestions,dispSearch,dispStartScreen,distance2screen,experiment_file,experiment_path,font_bold,font_family,font_italic,font_size,font_underline,foreground,form_clicks,fullscreen,gaborFreq,gaborSize,height,keyboard_backend,lineOriTar,live_row,live_row_blockLoop,live_row_exp_mainLoop,logfile,mouse_backend,noExpBlocks,noExpTrials,noPracTrials,opensesame_codename,opensesame_version,osf_always_upload_experiment,osf_id,physical_screensize,previousDisColor,previousDisShape,previousTarColor,previousTarShape,repeat_cycle,response,responseTime,response_continuePress,response_time,response_time_continuePress,rgb_gray,rgb_green,rgb_red,rgb_white,round_decimals,sampler_backend,set_blockType,set_counterPositions,set_respCorrect,set_respTimeoutExp,set_respTimeoutPrac,set_rotation,set_setSize,sizeImaginary,sound_buf_size,sound_channels,sound_freq,sound_sample_size,start,stimPositions,stimuli,subject_nr,subject_parity,tarIdx,time_Questions,time_blockFeed,time_blockLoop,time_blockSeq,time_continuePress,time_example,time_expSettings,time_exp_mainLoop,time_experiment,time_instructions,time_instructions1,time_instructions2,time_log,time_main,time_prepCanvas,time_trialResp,time_trialSeq,time_trialTask,timing_EEGwait,timing_fix,title,total_correct,total_response_time,total_responses,uniform_coordinates,width
undefined,undefined,NA,NA,NA,11202,11202,black,no,legacy,legacy,legacy,0,green,"(0, 123, 0)",color,absent,lowProb6,rectangular,swap,swap,swap,same,green,"(0, 123, 0)",lowProb,lowProb3,rectangular,uniform,1,undefined,0,0.005208333,1,1,6.401041667,1,1,1229,0,0,0,0,0,0,0,0,26,0,1,0.005208333,6.401041667,1,1229,25,25,25,11/28/2018 13:14,Default description,yes,<openexp._canvas.legacy.Legacy object at 0x054F18D0>,<openexp._canvas.legacy.Legacy object at 0x05509C90>,<openexp._canvas.legacy.Legacy object at 0x054FC650>,<openexp._canvas.legacy.Legacy object at 0x0538A910>,<openexp._canvas.legacy.Legacy object at 0x0537A190>,<openexp._canvas.legacy.Legacy object at 0x054E42B0>,<openexp._canvas.legacy.Legacy object at 0x0538AC50>,<openexp._canvas.legacy.Legacy object at 0x054FC090>,75,SpatProbMultiple3.osexp,C:/Userdata/Michel/SpatProbMultiple3,no,mono,no,18,no,white,no,yes,0.09,98,1050,legacy,315,0,0,1,C:/Userdata/Michel/SpatProbMultiple3/beh/subject-19.csv,legacy,9,192,25,Kafkaesque Koffka,3.2.5,yes,598477b2b83f69022949e7e9,47,green,rectangular,green,rectangular,0,/,1229,space,11202,11202,"(80, 80, 80)","(0, 123, 0)","(177, 0, 0)","(155, 155, 155)",2,legacy,experiment,"[2, 3, 4, 5, 6, 7, 0, 1]",/,2500,3000,0,8,252.7587515,1024,2,48000,-16,main,"[(0, -252), (178, -178), (252, 0), (178, 178), (0, 252), (-178, 178), (-252, 0), (-178, -178)]",[],43,odd,5,NA,540082,645192,645192,423111,422098,2126,458380,458380,2126,2126,434313,652952,2122,645192,651719,645592,645592,NA,957,study_X,0,11202,1,yes,1680
undefined,undefined,NA,NA,NA,11202,11202,black,no,legacy,legacy,legacy,0,red,"(177, 0, 0)",color,absent,lowProb4,rectangular,swap,same,swap,same,red,"(177, 0, 0)",lowProb,lowProb5,rectangular,uniform,1,undefined,0,0.010416667,1,1,11.703125,1,2,2247,0,0,0,0,0,0,0,0,27,0,1,0.010416667,11.703125,2,2247,26,26,26,11/28/2018 13:14,Default description,yes,<openexp._canvas.legacy.Legacy object at 0x054F18D0>,<openexp._canvas.legacy.Legacy object at 0x05509C90>,<openexp._canvas.legacy.Legacy object at 0x054FC650>,<openexp._canvas.legacy.Legacy object at 0x0538A910>,<openexp._canvas.legacy.Legacy object at 0x0537A190>,<openexp._canvas.legacy.Legacy object at 0x054E42B0>,<openexp._canvas.legacy.Legacy object at 0x055166F0>,<openexp._canvas.legacy.Legacy object at 0x054FC090>,75,SpatProbMultiple3.osexp,C:/Userdata/Michel/SpatProbMultiple3,no,mono,no,18,no,white,no,yes,0.09,98,1050,legacy,45,1,1,1,C:/Userdata/Michel/SpatProbMultiple3/beh/subject-19.csv,legacy,9,192,25,Kafkaesque Koffka,3.2.5,yes,598477b2b83f69022949e7e9,47,red,rectangular,red,rectangular,0,\,1018,space,11202,11202,"(80, 80, 80)","(0, 123, 0)","(177, 0, 0)","(155, 155, 155)",2,legacy,experiment,"[2, 3, 4, 5, 6, 7, 0, 1]",\,2500,3000,0,8,252.7587515,1024,2,48000,-16,main,"[(0, -252), (178, -178), (252, 0), (178, 178), (0, 252), (-178, 178), (-252, 0), (-178, -178)]",[],43,odd,0,NA,540082,645192,645192,423111,422098,2126,458380,458380,2126,2126,434313,655416,2122,645192,654394,653427,653427,NA,957,study_X,0,11202,1,yes,1680
undefined,undefined,NA,NA,NA,11202,11202,black,no,legacy,legacy,legacy,0,green,"(0, 123, 0)",color,present,highProb,circular,swap,swap,same,swap,red,"(177, 0, 0)",lowProb,lowProb3,circular,uniform,1,undefined,0,0.015625,1,1,23.140625,1,3,4443,0,0,0,0,0,0,0,0,28,0,1,0.015625,23.140625,3,4443,27,27,27,11/28/2018 13:14,Default description,yes,<openexp._canvas.legacy.Legacy object at 0x054F18D0>,<openexp._canvas.legacy.Legacy object at 0x05509C90>,<openexp._canvas.legacy.Legacy object at 0x054FC650>,<openexp._canvas.legacy.Legacy object at 0x0538A910>,<openexp._canvas.legacy.Legacy object at 0x0537A190>,<openexp._canvas.legacy.Legacy object at 0x054E42B0>,<openexp._canvas.legacy.Legacy object at 0x05509D50>,<openexp._canvas.legacy.Legacy object at 0x054FC090>,75,SpatProbMultiple3.osexp,C:/Userdata/Michel/SpatProbMultiple3,no,mono,no,18,no,white,no,yes,0.09,98,1050,legacy,315,2,2,1,C:/Userdata/Michel/SpatProbMultiple3/beh/subject-19.csv,legacy,9,192,25,Kafkaesque Koffka,3.2.5,yes,598477b2b83f69022949e7e9,47,green,circular,red,circular,0,/,2196,space,11202,11202,"(80, 80, 80)","(0, 123, 0)","(177, 0, 0)","(155, 155, 155)",2,legacy,experiment,"[2, 3, 4, 5, 6, 7, 0, 1]",/,2500,3000,0,8,252.7587515,1024,2,48000,-16,main,"[(0, -252), (178, -178), (252, 0), (178, 178), (0, 252), (-178, 178), (-252, 0), (-178, -178)]",[],43,odd,5,NA,540082,645192,645192,423111,422098,2126,458380,458380,2126,2126,434313,659031,2122,645192,656832,655865,655865,NA,957,study_X,0,11202,1,yes,1680
undefined,undefined,NA,NA,NA,11202,11202,black,no,legacy,legacy,legacy,0,green,"(0, 123, 0)",shape,absent,highProb,rectangular,same,swap,swap,swap,green,"(0, 123, 0)",lowProb,lowProb6,rectangular,uniform,1,undefined,0,0.020833333,1,1,26.97916667,1,4,5180,0,0,0,0,0,0,0,0,29,0,1,0.020833333,26.97916667,4,5180,28,28,28,11/28/2018 13:14,Default description,yes,<openexp._canvas.legacy.Legacy object at 0x054F18D0>,<openexp._canvas.legacy.Legacy object at 0x05509C90>,<openexp._canvas.legacy.Legacy object at 0x054FC650>,<openexp._canvas.legacy.Legacy object at 0x0538A910>,<openexp._canvas.legacy.Legacy object at 0x0537A190>,<openexp._canvas.legacy.Legacy object at 0x054E42B0>,<openexp._canvas.legacy.Legacy object at 0x05516B30>,<openexp._canvas.legacy.Legacy object at 0x054FC090>,75,SpatProbMultiple3.osexp,C:/Userdata/Michel/SpatProbMultiple3,no,mono,no,18,no,white,no,yes,0.09,98,1050,legacy,45,3,3,1,C:/Userdata/Michel/SpatProbMultiple3/beh/subject-19.csv,legacy,9,192,25,Kafkaesque Koffka,3.2.5,yes,598477b2b83f69022949e7e9,47,green,rectangular,green,rectangular,0,\,737,space,11202,11202,"(80, 80, 80)","(0, 123, 0)","(177, 0, 0)","(155, 155, 155)",2,legacy,experiment,"[2, 3, 4, 5, 6, 7, 0, 1]",\,2500,3000,0,8,252.7587515,1024,2,48000,-16,main,"[(0, -252), (178, -178), (252, 0), (178, 178), (0, 252), (-178, 178), (-252, 0), (-178, -178)]",[],43,odd,1,NA,540082,645192,645192,423111,422098,2126,458380,458380,2126,2126,434313,661167,2122,645192,660427,659459,659459,NA,957,study_X,0,11202,1,yes,1680
undefined,undefined,NA,NA,NA,11202,11202,black,no,legacy,legacy,legacy,0,green,"(0, 123, 0)",color,present,highProb,circular,same,swap,swap,swap,red,"(177, 0, 0)",lowProb,lowProb2,circular,uniform,1,undefined,0,0.026041667,1,1,36.53645833,1,5,7015,0,0,0,0,0,0,0,0,30,0,1,0.026041667,36.53645833,5,7015,29,29,29,11/28/2018 13:14,Default description,yes,<openexp._canvas.legacy.Legacy object at 0x054F18D0>,<openexp._canvas.legacy.Legacy object at 0x05509C90>,<openexp._canvas.legacy.Legacy object at 0x054FC650>,<openexp._canvas.legacy.Legacy object at 0x0538A910>,<openexp._canvas.legacy.Legacy object at 0x0537A190>,<openexp._canvas.legacy.Legacy object at 0x054E42B0>,<openexp._canvas.legacy.Legacy object at 0x05370F70>,<openexp._canvas.legacy.Legacy object at 0x054FC090>,75,SpatProbMultiple3.osexp,C:/Userdata/Michel/SpatProbMultiple3,no,mono,no,18,no,white,no,yes,0.09,98,1050,legacy,315,4,4,1,C:/Userdata/Michel/SpatProbMultiple3/beh/subject-19.csv,legacy,9,192,25,Kafkaesque Koffka,3.2.5,yes,598477b2b83f69022949e7e9,47,green,circular,red,circular,0,/,1835,space,11202,11202,"(80, 80, 80)","(0, 123, 0)","(177, 0, 0)","(155, 155, 155)",2,legacy,experiment,"[2, 3, 4, 5, 6, 7, 0, 1]",/,2500,3000,0,8,252.7587515,1024,2,48000,-16,main,"[(0, -252), (178, -178), (252, 0), (178, 178), (0, 252), (-178, 178), (-252, 0), (-178, -178)]",[],43,odd,4,NA,540082,645192,645192,423111,422098,2126,458380,458380,2126,2126,434313,664416,2122,645192,662578,661610,661611,NA,957,study_X,0,11202,1,yes,1680
undefined,undefined,NA,NA,NA,11202,11202,black,no,legacy,legacy,legacy,0,green,"(0, 123, 0)",shape,present,highProbOther,rectangular,same,swap,swap,same,green,"(0, 123, 0)",highProbShape,highProbShape,circular,uniform,1,undefined,0,0.03125,1,1,45.66666667,1,6,8768,0,0,0,0,0,0,0,0,31,0,1,0.03125,45.66666667,6,8768,30,30,30,11/28/2018 13:14,Default description,yes,<openexp._canvas.legacy.Legacy object at 0x054F18D0>,<openexp._canvas.legacy.Legacy object at 0x05509C90>,<openexp._canvas.legacy.Legacy object at 0x054FC650>,<openexp._canvas.legacy.Legacy object at 0x0538A910>,<openexp._canvas.legacy.Legacy object at 0x0537A190>,<openexp._canvas.legacy.Legacy object at 0x054E42B0>,<openexp._canvas.legacy.Legacy object at 0x055208F0>,<openexp._canvas.legacy.Legacy object at 0x054FC090>,75,SpatProbMultiple3.osexp,C:/Userdata/Michel/SpatProbMultiple3,no,mono,no,18,no,white,no,yes,0.09,98,1050,legacy,45,5,5,1,C:/Userdata/Michel/SpatProbMultiple3/beh/subject-19.csv,legacy,9,192,25,Kafkaesque Koffka,3.2.5,yes,598477b2b83f69022949e7e9,47,green,rectangular,green,circular,0,\,1753,space,11202,11202,"(80, 80, 80)","(0, 123, 0)","(177, 0, 0)","(155, 155, 155)",2,legacy,experiment,"[2, 3, 4, 5, 6, 7, 0, 1]",\,2500,3000,0,8,252.7587515,1024,2,48000,-16,main,"[(0, -252), (178, -178), (252, 0), (178, 178), (0, 252), (-178, 178), (-252, 0), (-178, -178)]",[],43,odd,6,NA,540082,645192,645192,423111,422098,2126,458380,458380,2126,2126,434313,667568,2122,645192,665812,664845,664845,NA,957,study_X,0,11202,1,yes,1680
undefined,undefined,NA,NA,NA,11202,11202,black,no,legacy,legacy,legacy,0,green,"(0, 123, 0)",color,present,highProb,circular,same,swap,swap,same,red,"(177, 0, 0)",highProbShape,highProbShape,circular,uniform,0,undefined,0,0.03125,1,1,58.6875,1,6,11268,0,0,0,0,0,0,0,0,32,0,1,0.03125,58.6875,6,11268,31,31,31,11/28/2018 13:14,Default description,yes,<openexp._canvas.legacy.Legacy object at 0x054F18D0>,<openexp._canvas.legacy.Legacy object at 0x05509C90>,<openexp._canvas.legacy.Legacy object at 0x054FC650>,<openexp._canvas.legacy.Legacy object at 0x0538A910>,<openexp._canvas.legacy.Legacy object at 0x0537A190>,<openexp._canvas.legacy.Legacy object at 0x054E42B0>,<openexp._canvas.legacy.Legacy object at 0x0550FAB0>,<openexp._canvas.legacy.Legacy object at 0x054FC090>,75,SpatProbMultiple3.osexp,C:/Userdata/Michel/SpatProbMultiple3,no,mono,no,18,no,white,no,yes,0.09,98,1050,legacy,45,6,6,1,C:/Userdata/Michel/SpatProbMultiple3/beh/subject-19.csv,legacy,9,192,25,Kafkaesque Koffka,3.2.5,yes,598477b2b83f69022949e7e9,47,green,circular,red,circular,0,None,2500,space,11202,11202,"(80, 80, 80)","(0, 123, 0)","(177, 0, 0)","(155, 155, 155)",2,legacy,experiment,"[2, 3, 4, 5, 6, 7, 0, 1]",\,2500,3000,0,8,252.7587515,1024,2,48000,-16,main,"[(0, -252), (178, -178), (252, 0), (178, 178), (0, 252), (-178, 178), (-252, 0), (-178, -178)]",[],43,odd,6,NA,540082,645192,645192,423111,422098,2126,458380,458380,2126,2126,434313,671491,2122,645192,668988,668021,668021,NA,957,study_X,0,11202,1,yes,1680
undefined,undefined,NA,NA,NA,11202,11202,black,no,legacy,legacy,legacy,0,green,"(0, 123, 0)",shape,absent,lowProb3,rectangular,same,swap,swap,swap,green,"(0, 123, 0)",lowProb,lowProb6,rectangular,uniform,1,undefined,0,0.036458333,1,1,62.40104167,1,7,11981,0,0,0,0,0,0,0,0,33,0,1,0.036458333,62.40104167,7,11981,32,32,32,11/28/2018 13:14,Default description,yes,<openexp._canvas.legacy.Legacy object at 0x054F18D0>,<openexp._canvas.legacy.Legacy object at 0x05509C90>,<openexp._canvas.legacy.Legacy object at 0x054FC650>,<openexp._canvas.legacy.Legacy object at 0x0538A910>,<openexp._canvas.legacy.Legacy object at 0x0537A190>,<openexp._canvas.legacy.Legacy object at 0x054E42B0>,<openexp._canvas.legacy.Legacy object at 0x05509AB0>,<openexp._canvas.legacy.Legacy object at 0x054FC090>,75,SpatProbMultiple3.osexp,C:/Userdata/Michel/SpatProbMultiple3,no,mono,no,18,no,white,no,yes,0.09,98,1050,legacy,45,7,7,1,C:/Userdata/Michel/SpatProbMultiple3/beh/subject-19.csv,legacy,9,192,25,Kafkaesque Koffka,3.2.5,yes,598477b2b83f69022949e7e9,47,green,rectangular,green,rectangular,0,\,713,space,11202,11202,"(80, 80, 80)","(0, 123, 0)","(177, 0, 0)","(155, 155, 155)",2,legacy,experiment,"[2, 3, 4, 5, 6, 7, 0, 1]",\,2500,3000,0,8,252.7587515,1024,2,48000,-16,main,"[(0, -252), (178, -178), (252, 0), (178, 178), (0, 252), (-178, 178), (-252, 0), (-178, -178)]",[],43,odd,1,NA,540082,645192,645192,423111,422098,2126,458380,458380,2126,2126,434313,673632,2122,645192,672915,671948,671948,NA,957,study_X,0,11202,1,yes,1680
undefined,undefined,NA,NA,NA,11202,11202,black,no,legacy,legacy,legacy,0,green,"(0, 123, 0)",shape,present,highProb,circular,same,swap,same,same,green,"(0, 123, 0)",highProbColor,highProbColor,rectangular,uniform,1,undefined,0,0.041666667,1,1,67.5,1,8,12960,0,0,0,0,0,0,0,0,34,0,1,0.041666667,67.5,8,12960,33,33,33,11/28/2018 13:14,Default description,yes,<openexp._canvas.legacy.Legacy object at 0x054F18D0>,<openexp._canvas.legacy.Legacy object at 0x05509C90>,<openexp._canvas.legacy.Legacy object at 0x054FC650>,<openexp._canvas.legacy.Legacy object at 0x0538A910>,<openexp._canvas.legacy.Legacy object at 0x0537A190>,<openexp._canvas.legacy.Legacy object at 0x054E42B0>,<openexp._canvas.legacy.Legacy object at 0x054F1430>,<openexp._canvas.legacy.Legacy object at 0x054FC090>,75,SpatProbMultiple3.osexp,C:/Userdata/Michel/SpatProbMultiple3,no,mono,no,18,no,white,no,yes,0.09,98,1050,legacy,315,8,8,1,C:/Userdata/Michel/SpatProbMultiple3/beh/subject-19.csv,legacy,9,192,25,Kafkaesque Koffka,3.2.5,yes,598477b2b83f69022949e7e9,47,green,circular,green,rectangular,0,/,979,space,11202,11202,"(80, 80, 80)","(0, 123, 0)","(177, 0, 0)","(155, 155, 155)",2,legacy,experiment,"[2, 3, 4, 5, 6, 7, 0, 1]",/,2500,3000,0,8,252.7587515,1024,2,48000,-16,main,"[(0, -252), (178, -178), (252, 0), (178, 178), (0, 252), (-178, 178), (-252, 0), (-178, -178)]",[],43,odd,2,NA,540082,645192,645192,423111,422098,2126,458380,458380,2126,2126,434313,676007,2122,645192,675025,674058,674058,NA,957,study_X,0,11202,1,yes,1680
undefined,undefined,NA,NA,NA,11202,11202,black,no,legacy,legacy,legacy,0,green,"(0, 123, 0)",shape,present,highProb,circular,same,same,same,same,green,"(0, 123, 0)",lowProb,lowProb6,rectangular,uniform,1,undefined,0,0.046875,1,1,76.58854167,1,9,14705,0,0,0,0,0,0,0,0,35,0,1,0.046875,76.58854167,9,14705,34,34,34,11/28/2018 13:14,Default description,yes,<openexp._canvas.legacy.Legacy object at 0x054F18D0>,<openexp._canvas.legacy.Legacy object at 0x05509C90>,<openexp._canvas.legacy.Legacy object at 0x054FC650>,<openexp._canvas.legacy.Legacy object at 0x0538A910>,<openexp._canvas.legacy.Legacy object at 0x0537A190>,<openexp._canvas.legacy.Legacy object at 0x054E42B0>,<openexp._canvas.legacy.Legacy object at 0x0550FB70>,<openexp._canvas.legacy.Legacy object at 0x054FC090>,75,SpatProbMultiple3.osexp,C:/Userdata/Michel/SpatProbMultiple3,no,mono,no,18,no,white,no,yes,0.09,98,1050,legacy,315,9,9,1,C:/Userdata/Michel/SpatProbMultiple3/beh/subject-19.csv,legacy,9,192,25,Kafkaesque Koffka,3.2.5,yes,598477b2b83f69022949e7e9,47,green,circular,green,rectangular,0,/,1745,space,11202,11202,"(80, 80, 80)","(0, 123, 0)","(177, 0, 0)","(155, 155, 155)",2,legacy,experiment,"[2, 3, 4, 5, 6, 7, 0, 1]",/,2500,3000,0,8,252.7587515,1024,2,48000,-16,main,"[(0, -252), (178, -178), (252, 0), (178, 178), (0, 252), (-178, 178), (-252, 0), (-178, -178)]",[],43,odd,1,NA,540082,645192,645192,423111,422098,2126,458380,458380,2126,2126,434313,679159,2122,645192,677411,676444,676444,NA,957,study_X,0,11202,1,yes,1680
undefined,undefined,NA,NA,NA,11202,11202,black,no,legacy,legacy,legacy,0,red,"(177, 0, 0)",color,absent,lowProb2,rectangular,swap,swap,swap,same,red,"(177, 0, 0)",lowProb,lowProb4,rectangular,uniform,1,undefined,0,0.052083333,1,1,81.05729167,1,10,15563,0,0,0,0,0,0,0,0,36,0,1,0.052083333,81.05729167,10,15563,35,35,35,11/28/2018 13:14,Default description,yes,<openexp._canvas.legacy.Legacy object at 0x054F18D0>,<openexp._canvas.legacy.Legacy object at 0x05509C90>,<openexp._canvas.legacy.Legacy object at 0x054FC650>,<openexp._canvas.legacy.Legacy object at 0x0538A910>,<openexp._canvas.legacy.Legacy object at 0x0537A190>,<openexp._canvas.legacy.Legacy object at 0x054E42B0>,<openexp._canvas.legacy.Legacy object at 0x0550FAB0>,<openexp._canvas.legacy.Legacy object at 0x054FC090>,75,SpatProbMultiple3.osexp,C:/Userdata/Michel/SpatProbMultiple3,no,mono,no,18,no,white,no,yes,0.09,98,1050,legacy,45,10,10,1,C:/Userdata/Michel/SpatProbMultiple3/beh/subject-19.csv,legacy,9,192,25,Kafkaesque Koffka,3.2.5,yes,598477b2b83f69022949e7e9,47,red,rectangular,red,rectangular,0,\,858,space,11202,11202,"(80, 80, 80)","(0, 123, 0)","(177, 0, 0)","(155, 155, 155)",2,legacy,experiment,"[2, 3, 4, 5, 6, 7, 0, 1]",\,2500,3000,0,8,252.7587515,1024,2,48000,-16,main,"[(0, -252), (178, -178), (252, 0), (178, 178), (0, 252), (-178, 178), (-252, 0), (-178, -178)]",[],43,odd,7,NA,540082,645192,645192,423111,422098,2126,458380,458380,2126,2126,434313,681399,2122,645192,680538,679572,679572,NA,957,study_X,0,11202,1,yes,1680
undefined,undefined,NA,NA,NA,11202,11202,black,no,legacy,legacy,legacy,0,green,"(0, 123, 0)",shape,present,lowProb5,circular,swap,swap,swap,same,green,"(0, 123, 0)",lowProb,lowProb4,rectangular,uniform,1,undefined,0,0.057291667,1,1,86.35416667,1,11,16580,0,0,0,0,0,0,0,0,37,0,1,0.057291667,86.35416667,11,16580,36,36,36,11/28/2018 13:14,Default description,yes,<openexp._canvas.legacy.Legacy object at 0x054F18D0>,<openexp._canvas.legacy.Legacy object at 0x05509C90>,<openexp._canvas.legacy.Legacy object at 0x054FC650>,<openexp._canvas.legacy.Legacy object at 0x0538A910>,<openexp._canvas.legacy.Legacy object at 0x0537A190>,<openexp._canvas.legacy.Legacy object at 0x054E42B0>,<openexp._canvas.legacy.Legacy object at 0x055099B0>,<openexp._canvas.legacy.Legacy object at 0x054FC090>,75,SpatProbMultiple3.osexp,C:/Userdata/Michel/SpatProbMultiple3,no,mono,no,18,no,white,no,yes,0.09,98,1050,legacy,45,11,11,1,C:/Userdata/Michel/SpatProbMultiple3/beh/subject-19.csv,legacy,9,192,25,Kafkaesque Koffka,3.2.5,yes,598477b2b83f69022949e7e9,47,green,circular,green,rectangular,0,\,1017,space,11202,11202,"(80, 80, 80)","(0, 123, 0)","(177, 0, 0)","(155, 155, 155)",2,legacy,experiment,"[2, 3, 4, 5, 6, 7, 0, 1]",\,2500,3000,0,8,252.7587515,1024,2,48000,-16,main,"[(0, -252), (178, -178), (252, 0), (178, 178), (0, 252), (-178, 178), (-252, 0), (-178, -178)]",[],43,odd,7,NA,540082,645192,645192,423111,422098,2126,458380,458380,2126,2126,434313,683832,2122,645192,682812,681845,681845,NA,957,study_X,0,11202,1,yes,1680
undefined,undefined,NA,NA,NA,11202,11202,black,no,legacy,legacy,legacy,0,green,"(0, 123, 0)",color,present,highProbOther,rectangular,same,swap,swap,same,red,"(177, 0, 0)",lowProb,lowProb1,rectangular,uniform,1,undefined,0,0.0625,1,1,91.36979167,1,12,17543,0,0,0,0,0,0,0,0,38,0,1,0.0625,91.36979167,12,17543,37,37,37,11/28/2018 13:14,Default description,yes,<openexp._canvas.legacy.Legacy object at 0x054F18D0>,<openexp._canvas.legacy.Legacy object at 0x05509C90>,<openexp._canvas.legacy.Legacy object at 0x054FC650>,<openexp._canvas.legacy.Legacy object at 0x0538A910>,<openexp._canvas.legacy.Legacy object at 0x0537A190>,<openexp._canvas.legacy.Legacy object at 0x054E42B0>,<openexp._canvas.legacy.Legacy object at 0x055096F0>,<openexp._canvas.legacy.Legacy object at 0x054FC090>,75,SpatProbMultiple3.osexp,C:/Userdata/Michel/SpatProbMultiple3,no,mono,no,18,no,white,no,yes,0.09,98,1050,legacy,45,12,12,1,C:/Userdata/Michel/SpatProbMultiple3/beh/subject-19.csv,legacy,9,192,25,Kafkaesque Koffka,3.2.5,yes,598477b2b83f69022949e7e9,47,green,rectangular,red,rectangular,0,\,963,space,11202,11202,"(80, 80, 80)","(0, 123, 0)","(177, 0, 0)","(155, 155, 155)",2,legacy,experiment,"[2, 3, 4, 5, 6, 7, 0, 1]",\,2500,3000,0,8,252.7587515,1024,2,48000,-16,main,"[(0, -252), (178, -178), (252, 0), (178, 178), (0, 252), (-178, 178), (-252, 0), (-178, -178)]",[],43,odd,3,NA,540082,645192,645192,423111,422098,2126,458380,458380,2126,2126,434313,686192,2122,645192,685225,684258,684258,NA,957,study_X,0,11202,1,yes,1680
undefined,undefined,NA,NA,NA,11202,11202,black,no,legacy,legacy,legacy,0,red,"(177, 0, 0)",shape,present,highProbOther,circular,swap,swap,same,same,red,"(177, 0, 0)",highProbShape,highProbShape,rectangular,uniform,1,undefined,0,0.067708333,1,1,101.9947917,1,13,19583,0,0,0,0,0,0,0,0,39,0,1,0.067708333,101.9947917,13,19583,38,38,38,11/28/2018 13:14,Default description,yes,<openexp._canvas.legacy.Legacy object at 0x054F18D0>,<openexp._canvas.legacy.Legacy object at 0x05509C90>,<openexp._canvas.legacy.Legacy object at 0x054FC650>,<openexp._canvas.legacy.Legacy object at 0x0538A910>,<openexp._canvas.legacy.Legacy object at 0x0537A190>,<openexp._canvas.legacy.Legacy object at 0x054E42B0>,<openexp._canvas.legacy.Legacy object at 0x0550FBD0>,<openexp._canvas.legacy.Legacy object at 0x054FC090>,75,SpatProbMultiple3.osexp,C:/Userdata/Michel/SpatProbMultiple3,no,mono,no,18,no,white,no,yes,0.09,98,1050,legacy,315,13,13,1,C:/Userdata/Michel/SpatProbMultiple3/beh/subject-19.csv,legacy,9,192,25,Kafkaesque Koffka,3.2.5,yes,598477b2b83f69022949e7e9,47,red,circular,red,rectangular,0,/,2040,space,11202,11202,"(80, 80, 80)","(0, 123, 0)","(177, 0, 0)","(155, 155, 155)",2,legacy,experiment,"[2, 3, 4, 5, 6, 7, 0, 1]",/,2500,3000,0,8,252.7587515,1024,2,48000,-16,main,"[(0, -252), (178, -178), (252, 0), (178, 178), (0, 252), (-178, 178), (-252, 0), (-178, -178)]",[],43,odd,6,NA,540082,645192,645192,423111,422098,2126,458380,458380,2126,2126,434313,689624,2122,645192,687580,686613,686613,NA,957,study_X,0,11202,1,yes,1680
undefined,undefined,NA,NA,NA,11202,11202,black,no,legacy,legacy,legacy,0,red,"(177, 0, 0)",color,absent,lowProb1,circular,same,same,same,swap,red,"(177, 0, 0)",lowProb,lowProb6,circular,uniform,1,undefined,0,0.072916667,1,1,111.2916667,1,14,21368,0,0,0,0,0,0,0,0,40,0,1,0.072916667,111.2916667,14,21368,39,39,39,11/28/2018 13:14,Default description,yes,<openexp._canvas.legacy.Legacy object at 0x054F18D0>,<openexp._canvas.legacy.Legacy object at 0x05509C90>,<openexp._canvas.legacy.Legacy object at 0x054FC650>,<openexp._canvas.legacy.Legacy object at 0x0538A910>,<openexp._canvas.legacy.Legacy object at 0x0537A190>,<openexp._canvas.legacy.Legacy object at 0x054E42B0>,<openexp._canvas.legacy.Legacy object at 0x054F10B0>,<openexp._canvas.legacy.Legacy object at 0x054FC090>,75,SpatProbMultiple3.osexp,C:/Userdata/Michel/SpatProbMultiple3,no,mono,no,18,no,white,no,yes,0.09,98,1050,legacy,45,14,14,1,C:/Userdata/Michel/SpatProbMultiple3/beh/subject-19.csv,legacy,9,192,25,Kafkaesque Koffka,3.2.5,yes,598477b2b83f69022949e7e9,47,red,circular,red,circular,0,\,1785,space,11202,11202,"(80, 80, 80)","(0, 123, 0)","(177, 0, 0)","(155, 155, 155)",2,legacy,experiment,"[2, 3, 4, 5, 6, 7, 0, 1]",\,2500,3000,0,8,252.7587515,1024,2,48000,-16,main,"[(0, -252), (178, -178), (252, 0), (178, 178), (0, 252), (-178, 178), (-252, 0), (-178, -178)]",[],43,odd,1,NA,540082,645192,645192,423111,422098,2126,458380,458380,2126,2126,434313,692799,2122,645192,691011,690044,690044,NA,957,study_X,0,11202,1,yes,1680
undefined,undefined,NA,NA,NA,11202,11202,black,no,legacy,legacy,legacy,0,red,"(177, 0, 0)",shape,present,lowProb3,rectangular,same,swap,same,same,red,"(177, 0, 0)",lowProb,lowProb1,circular,uniform,1,undefined,0,0.078125,1,1,122.296875,1,15,23481,0,0,0,0,0,0,0,0,41,0,1,0.078125,122.296875,15,23481,40,40,40,11/28/2018 13:14,Default description,yes,<openexp._canvas.legacy.Legacy object at 0x054F18D0>,<openexp._canvas.legacy.Legacy object at 0x05509C90>,<openexp._canvas.legacy.Legacy object at 0x054FC650>,<openexp._canvas.legacy.Legacy object at 0x0538A910>,<openexp._canvas.legacy.Legacy object at 0x0537A190>,<openexp._canvas.legacy.Legacy object at 0x054E42B0>,<openexp._canvas.legacy.Legacy object at 0x0550FA50>,<openexp._canvas.legacy.Legacy object at 0x054FC090>,75,SpatProbMultiple3.osexp,C:/Userdata/Michel/SpatProbMultiple3,no,mono,no,18,no,white,no,yes,0.09,98,1050,legacy,315,15,15,1,C:/Userdata/Michel/SpatProbMultiple3/beh/subject-19.csv,legacy,9,192,25,Kafkaesque Koffka,3.2.5,yes,598477b2b83f69022949e7e9,47,red,rectangular,red,circular,0,/,2113,space,11202,11202,"(80, 80, 80)","(0, 123, 0)","(177, 0, 0)","(155, 155, 155)",2,legacy,experiment,"[2, 3, 4, 5, 6, 7, 0, 1]",/,2500,3000,0,8,252.7587515,1024,2,48000,-16,main,"[(0, -252), (178, -178), (252, 0), (178, 178), (0, 252), (-178, 178), (-252, 0), (-178, -178)]",[],43,odd,3,NA,540082,645192,645192,423111,422098,2126,458380,458380,2126,2126,434313,696311,2122,645192,694195,693228,693228,NA,957,study_X,0,11202,1,yes,1680
undefined,undefined,NA,NA,NA,11202,11202,black,no,legacy,legacy,legacy,0,green,"(0, 123, 0)",shape,present,highProb,circular,swap,swap,swap,swap,green,"(0, 123, 0)",lowProb,lowProb2,rectangular,uniform,1,undefined,0,0.083333333,1,1,129.421875,1,16,24849,0,0,0,0,0,0,0,0,42,0,1,0.083333333,129.421875,16,24849,41,41,41,11/28/2018 13:14,Default description,yes,<openexp._canvas.legacy.Legacy object at 0x054F18D0>,<openexp._canvas.legacy.Legacy object at 0x05509C90>,<openexp._canvas.legacy.Legacy object at 0x054FC650>,<openexp._canvas.legacy.Legacy object at 0x0538A910>,<openexp._canvas.legacy.Legacy object at 0x0537A190>,<openexp._canvas.legacy.Legacy object at 0x054E42B0>,<openexp._canvas.legacy.Legacy object at 0x054F1430>,<openexp._canvas.legacy.Legacy object at 0x054FC090>,75,SpatProbMultiple3.osexp,C:/Userdata/Michel/SpatProbMultiple3,no,mono,no,18,no,white,no,yes,0.09,98,1050,legacy,315,16,16,1,C:/Userdata/Michel/SpatProbMultiple3/beh/subject-19.csv,legacy,9,192,25,Kafkaesque Koffka,3.2.5,yes,598477b2b83f69022949e7e9,47,green,circular,green,rectangular,0,/,1368,space,11202,11202,"(80, 80, 80)","(0, 123, 0)","(177, 0, 0)","(155, 155, 155)",2,legacy,experiment,"[2, 3, 4, 5, 6, 7, 0, 1]",/,2500,3000,0,8,252.7587515,1024,2,48000,-16,main,"[(0, -252), (178, -178), (252, 0), (178, 178), (0, 252), (-178, 178), (-252, 0), (-178, -178)]",[],43,odd,4,NA,540082,645192,645192,423111,422098,2126,458380,458380,2126,2126,434313,699096,2122,645192,697725,696758,696758,NA,957,study_X,0,11202,1,yes,1680
undefined,undefined,NA,NA,NA,11202,11202,black,no,legacy,legacy,legacy,0,green,"(0, 123, 0)",color,present,lowProb3,circular,same,same,swap,swap,red,"(177, 0, 0)",lowProb,lowProb2,circular,uniform,1,undefined,0,0.088541667,1,1,136.3177083,1,17,26173,0,0,0,0,0,0,0,0,43,0,1,0.088541667,136.3177083,17,26173,42,42,42,11/28/2018 13:14,Default description,yes,<openexp._canvas.legacy.Legacy object at 0x054F18D0>,<openexp._canvas.legacy.Legacy object at 0x05509C90>,<openexp._canvas.legacy.Legacy object at 0x054FC650>,<openexp._canvas.legacy.Legacy object at 0x0538A910>,<openexp._canvas.legacy.Legacy object at 0x0537A190>,<openexp._canvas.legacy.Legacy object at 0x054E42B0>,<openexp._canvas.legacy.Legacy object at 0x05516170>,<openexp._canvas.legacy.Legacy object at 0x054FC090>,75,SpatProbMultiple3.osexp,C:/Userdata/Michel/SpatProbMultiple3,no,mono,no,18,no,white,no,yes,0.09,98,1050,legacy,45,17,17,1,C:/Userdata/Michel/SpatProbMultiple3/beh/subject-19.csv,legacy,9,192,25,Kafkaesque Koffka,3.2.5,yes,598477b2b83f69022949e7e9,47,green,circular,red,circular,0,\,1324,space,11202,11202,"(80, 80, 80)","(0, 123, 0)","(177, 0, 0)","(155, 155, 155)",2,legacy,experiment,"[2, 3, 4, 5, 6, 7, 0, 1]",\,2500,3000,0,8,252.7587515,1024,2,48000,-16,main,"[(0, -252), (178, -178), (252, 0), (178, 178), (0, 252), (-178, 178), (-252, 0), (-178, -178)]",[],43,odd,4,NA,540082,645192,645192,423111,422098,2126,458380,458380,2126,2126,434313,701872,2122,645192,700544,699577,699577,NA,957,study_X,0,11202,1,yes,1680
undefined,undefined,NA,NA,NA,11202,11202,black,no,legacy,legacy,legacy,0,green,"(0, 123, 0)",shape,present,lowProb6,rectangular,same,swap,swap,same,green,"(0, 123, 0)",highProbShape,highProbShape,circular,uniform,1,undefined,0,0.09375,1,1,141.7552083,1,18,27217,0,0,0,0,0,0,0,0,44,0,1,0.09375,141.7552083,18,27217,43,43,43,11/28/2018 13:14,Default description,yes,<openexp._canvas.legacy.Legacy object at 0x054F18D0>,<openexp._canvas.legacy.Legacy object at 0x05509C90>,<openexp._canvas.legacy.Legacy object at 0x054FC650>,<openexp._canvas.legacy.Legacy object at 0x0538A910>,<openexp._canvas.legacy.Legacy object at 0x0537A190>,<openexp._canvas.legacy.Legacy object at 0x054E42B0>,<openexp._canvas.legacy.Legacy object at 0x054FCE70>,<openexp._canvas.legacy.Legacy object at 0x054FC090>,75,SpatProbMultiple3.osexp,C:/Userdata/Michel/SpatProbMultiple3,no,mono,no,18,no,white,no,yes,0.09,98,1050,legacy,45,18,18,1,C:/Userdata/Michel/SpatProbMultiple3/beh/subject-19.csv,legacy,9,192,25,Kafkaesque Koffka,3.2.5,yes,598477b2b83f69022949e7e9,47,green,rectangular,green,circular,0,\,1044,space,11202,11202,"(80, 80, 80)","(0, 123, 0)","(177, 0, 0)","(155, 155, 155)",2,legacy,experiment,"[2, 3, 4, 5, 6, 7, 0, 1]",\,2500,3000,0,8,252.7587515,1024,2,48000,-16,main,"[(0, -252), (178, -178), (252, 0), (178, 178), (0, 252), (-178, 178), (-252, 0), (-178, -178)]",[],43,odd,6,NA,540082,645192,645192,423111,422098,2126,458380,458380,2126,2126,434313,704328,2122,645192,703280,702313,702313,NA,957,study_X,0,11202,1,yes,1680
undefined,undefined,NA,NA,NA,11202,11202,black,no,legacy,legacy,legacy,0,red,"(177, 0, 0)",shape,present,lowProb5,circular,swap,swap,swap,swap,red,"(177, 0, 0)",lowProb,lowProb2,rectangular,uniform,1,undefined,0,0.098958333,1,1,149.5052083,1,19,28705,0,0,0,0,0,0,0,0,45,0,1,0.098958333,149.5052083,19,28705,44,44,44,11/28/2018 13:14,Default description,yes,<openexp._canvas.legacy.Legacy object at 0x054F18D0>,<openexp._canvas.legacy.Legacy object at 0x05509C90>,<openexp._canvas.legacy.Legacy object at 0x054FC650>,<openexp._canvas.legacy.Legacy object at 0x0538A910>,<openexp._canvas.legacy.Legacy object at 0x0537A190>,<openexp._canvas.legacy.Legacy object at 0x054E42B0>,<openexp._canvas.legacy.Legacy object at 0x05516F70>,<openexp._canvas.legacy.Legacy object at 0x054FC090>,75,SpatProbMultiple3.osexp,C:/Userdata/Michel/SpatProbMultiple3,no,mono,no,18,no,white,no,yes,0.09,98,1050,legacy,315,19,19,1,C:/Userdata/Michel/SpatProbMultiple3/beh/subject-19.csv,legacy,9,192,25,Kafkaesque Koffka,3.2.5,yes,598477b2b83f69022949e7e9,47,red,circular,red,rectangular,0,/,1488,space,11202,11202,"(80, 80, 80)","(0, 123, 0)","(177, 0, 0)","(155, 155, 155)",2,legacy,experiment,"[2, 3, 4, 5, 6, 7, 0, 1]",/,2500,3000,0,8,252.7587515,1024,2,48000,-16,main,"[(0, -252), (178, -178), (252, 0), (178, 178), (0, 252), (-178, 178), (-252, 0), (-178, -178)]",[],43,odd,4,NA,540082,645192,645192,423111,422098,2126,458380,458380,2126,2126,434313,707207,2122,645192,705716,704749,704749,NA,957,study_X,0,11202,1,yes,1680
undefined,undefined,NA,NA,NA,11202,11202,black,no,legacy,legacy,legacy,0,green,"(0, 123, 0)",color,present,highProb,rectangular,swap,swap,same,same,red,"(177, 0, 0)",lowProb,lowProb6,rectangular,uniform,1,undefined,0,0.104166667,1,1,153.8958333,1,20,29548,0,0,0,0,0,0,0,0,46,0,1,0.104166667,153.8958333,20,29548,45,45,45,11/28/2018 13:14,Default description,yes,<openexp._canvas.legacy.Legacy object at 0x054F18D0>,<openexp._canvas.legacy.Legacy object at 0x05509C90>,<openexp._canvas.legacy.Legacy object at 0x054FC650>,<openexp._canvas.legacy.Legacy object at 0x0538A910>,<openexp._canvas.legacy.Legacy object at 0x0537A190>,<openexp._canvas.legacy.Legacy object at 0x054E42B0>,<openexp._canvas.legacy.Legacy object at 0x054F1D30>,<openexp._canvas.legacy.Legacy object at 0x054FC090>,75,SpatProbMultiple3.osexp,C:/Userdata/Michel/SpatProbMultiple3,no,mono,no,18,no,white,no,yes,0.09,98,1050,legacy,315,20,20,1,C:/Userdata/Michel/SpatProbMultiple3/beh/subject-19.csv,legacy,9,192,25,Kafkaesque Koffka,3.2.5,yes,598477b2b83f69022949e7e9,47,green,rectangular,red,rectangular,0,/,843,space,11202,11202,"(80, 80, 80)","(0, 123, 0)","(177, 0, 0)","(155, 155, 155)",2,legacy,experiment,"[2, 3, 4, 5, 6, 7, 0, 1]",/,2500,3000,0,8,252.7587515,1024,2,48000,-16,main,"[(0, -252), (178, -178), (252, 0), (178, 178), (0, 252), (-178, 178), (-252, 0), (-178, -178)]",[],43,odd,1,NA,540082,645192,645192,423111,422098,2126,458380,458380,2126,2126,434313,709463,2122,645192,708617,707649,707649,NA,957,study_X,0,11202,1,yes,1680
undefined,undefined,NA,NA,NA,11202,11202,black,no,legacy,legacy,legacy,0,red,"(177, 0, 0)",color,present,highProb,rectangular,swap,same,swap,same,green,"(0, 123, 0)",lowProb,lowProb6,rectangular,uniform,1,undefined,0,0.109375,1,1,157.5729167,1,21,30254,0,0,0,0,0,0,0,0,47,0,1,0.109375,157.5729167,21,30254,46,46,46,11/28/2018 13:14,Default description,yes,<openexp._canvas.legacy.Legacy object at 0x054F18D0>,<openexp._canvas.legacy.Legacy object at 0x05509C90>,<openexp._canvas.legacy.Legacy object at 0x054FC650>,<openexp._canvas.legacy.Legacy object at 0x0538A910>,<openexp._canvas.legacy.Legacy object at 0x0537A190>,<openexp._canvas.legacy.Legacy object at 0x054E42B0>,<openexp._canvas.legacy.Legacy object at 0x055164D0>,<openexp._canvas.legacy.Legacy object at 0x054FC090>,75,SpatProbMultiple3.osexp,C:/Userdata/Michel/SpatProbMultiple3,no,mono,no,18,no,white,no,yes,0.09,98,1050,legacy,45,21,21,1,C:/Userdata/Michel/SpatProbMultiple3/beh/subject-19.csv,legacy,9,192,25,Kafkaesque Koffka,3.2.5,yes,598477b2b83f69022949e7e9,47,red,rectangular,green,rectangular,0,\,706,space,11202,11202,"(80, 80, 80)","(0, 123, 0)","(177, 0, 0)","(155, 155, 155)",2,legacy,experiment,"[2, 3, 4, 5, 6, 7, 0, 1]",\,2500,3000,0,8,252.7587515,1024,2,48000,-16,main,"[(0, -252), (178, -178), (252, 0), (178, 178), (0, 252), (-178, 178), (-252, 0), (-178, -178)]",[],43,odd,1,NA,540082,645192,645192,423111,422098,2126,458380,458380,2126,2126,434313,711567,2122,645192,710858,709891,709891,NA,957,study_X,0,11202,1,yes,1680
undefined,undefined,NA,NA,NA,11202,11202,black,no,legacy,legacy,legacy,0,green,"(0, 123, 0)",color,present,highProb,circular,swap,swap,swap,swap,red,"(177, 0, 0)",highProbShape,highProbShape,circular,uniform,1,undefined,0,0.114583333,1,1,164.15625,1,22,31518,0,0,0,0,0,0,0,0,48,0,1,0.114583333,164.15625,22,31518,47,47,47,11/28/2018 13:14,Default description,yes,<openexp._canvas.legacy.Legacy object at 0x054F18D0>,<openexp._canvas.legacy.Legacy object at 0x05509C90>,<openexp._canvas.legacy.Legacy object at 0x054FC650>,<openexp._canvas.legacy.Legacy object at 0x0538A910>,<openexp._canvas.legacy.Legacy object at 0x0537A190>,<openexp._canvas.legacy.Legacy object at 0x054E42B0>,<openexp._canvas.legacy.Legacy object at 0x054B2690>,<openexp._canvas.legacy.Legacy object at 0x054FC090>,75,SpatProbMultiple3.osexp,C:/Userdata/Michel/SpatProbMultiple3,no,mono,no,18,no,white,no,yes,0.09,98,1050,legacy,315,22,22,1,C:/Userdata/Michel/SpatProbMultiple3/beh/subject-19.csv,legacy,9,192,25,Kafkaesque Koffka,3.2.5,yes,598477b2b83f69022949e7e9,47,green,circular,red,circular,0,/,1264,space,11202,11202,"(80, 80, 80)","(0, 123, 0)","(177, 0, 0)","(155, 155, 155)",2,legacy,experiment,"[2, 3, 4, 5, 6, 7, 0, 1]",/,2500,3000,0,8,252.7587515,1024,2,48000,-16,main,"[(0, -252), (178, -178), (252, 0), (178, 178), (0, 252), (-178, 178), (-252, 0), (-178, -178)]",[],43,odd,6,NA,540082,645192,645192,423111,422098,2126,458380,458380,2126,2126,434313,714247,2122,645192,712980,712013,712013,NA,957,study_X,0,11202,1,yes,1680
undefined,undefined,NA,NA,NA,11202,11202,black,no,legacy,legacy,legacy,0,red,"(177, 0, 0)",shape,present,highProb,rectangular,swap,swap,same,same,red,"(177, 0, 0)",lowProb,lowProb2,circular,uniform,1,undefined,0,0.119791667,1,1,174.6822917,1,23,33539,0,0,0,0,0,0,0,0,49,0,1,0.119791667,174.6822917,23,33539,48,48,48,11/28/2018 13:14,Default description,yes,<openexp._canvas.legacy.Legacy object at 0x054F18D0>,<openexp._canvas.legacy.Legacy object at 0x05509C90>,<openexp._canvas.legacy.Legacy object at 0x054FC650>,<openexp._canvas.legacy.Legacy object at 0x0538A910>,<openexp._canvas.legacy.Legacy object at 0x0537A190>,<openexp._canvas.legacy.Legacy object at 0x054E42B0>,<openexp._canvas.legacy.Legacy object at 0x054F1FD0>,<openexp._canvas.legacy.Legacy object at 0x054FC090>,75,SpatProbMultiple3.osexp,C:/Userdata/Michel/SpatProbMultiple3,no,mono,no,18,no,white,no,yes,0.09,98,1050,legacy,315,23,23,1,C:/Userdata/Michel/SpatProbMultiple3/beh/subject-19.csv,legacy,9,192,25,Kafkaesque Koffka,3.2.5,yes,598477b2b83f69022949e7e9,47,red,rectangular,red,circular,0,/,2021,space,11202,11202,"(80, 80, 80)","(0, 123, 0)","(177, 0, 0)","(155, 155, 155)",2,legacy,experiment,"[2, 3, 4, 5, 6, 7, 0, 1]",/,2500,3000,0,8,252.7587515,1024,2,48000,-16,main,"[(0, -252), (178, -178), (252, 0), (178, 178), (0, 252), (-178, 178), (-252, 0), (-178, -178)]",[],43,odd,4,NA,540082,645192,645192,423111,422098,2126,458380,458380,2126,2126,434313,717688,2122,645192,715663,714696,714696,NA,957,study_X,0,11202,1,yes,1680
undefined,undefined,NA,NA,NA,11202,11202,black,no,legacy,legacy,legacy,0,red,"(177, 0, 0)",shape,present,lowProb4,rectangular,same,same,same,same,red,"(177, 0, 0)",lowProb,lowProb2,circular,uniform,1,undefined,0,0.125,1,1,181.6927083,1,24,34885,0,0,0,0,0,0,0,0,50,0,1,0.125,181.6927083,24,34885,49,49,49,11/28/2018 13:14,Default description,yes,<openexp._canvas.legacy.Legacy object at 0x054F18D0>,<openexp._canvas.legacy.Legacy object at 0x05509C90>,<openexp._canvas.legacy.Legacy object at 0x054FC650>,<openexp._canvas.legacy.Legacy object at 0x0538A910>,<openexp._canvas.legacy.Legacy object at 0x0537A190>,<openexp._canvas.legacy.Legacy object at 0x054E42B0>,<openexp._canvas.legacy.Legacy object at 0x05516B50>,<openexp._canvas.legacy.Legacy object at 0x054FC090>,75,SpatProbMultiple3.osexp,C:/Userdata/Michel/SpatProbMultiple3,no,mono,no,18,no,white,no,yes,0.09,98,1050,legacy,45,24,24,1,C:/Userdata/Michel/SpatProbMultiple3/beh/subject-19.csv,legacy,9,192,25,Kafkaesque Koffka,3.2.5,yes,598477b2b83f69022949e7e9,47,red,rectangular,red,circular,0,\,1346,space,11202,11202,"(80, 80, 80)","(0, 123, 0)","(177, 0, 0)","(155, 155, 155)",2,legacy,experiment,"[2, 3, 4, 5, 6, 7, 0, 1]",\,2500,3000,0,8,252.7587515,1024,2,48000,-16,main,"[(0, -252), (178, -178), (252, 0), (178, 178), (0, 252), (-178, 178), (-252, 0), (-178, -178)]",[],43,odd,4,NA,540082,645192,645192,423111,422098,2126,458380,458380,2126,2126,434313,720464,2122,645192,719114,718147,718147,NA,957,study_X,0,11202,1,yes,1680
undefined,undefined,NA,NA,NA,11202,11202,black,no,legacy,legacy,legacy,0,green,"(0, 123, 0)",color,present,lowProb3,rectangular,swap,same,same,swap,red,"(177, 0, 0)",highProbShape,highProbShape,rectangular,uniform,1,undefined,0,0.130208333,1,1,188.28125,1,25,36150,0,0,0,0,0,0,0,0,51,0,1,0.130208333,188.28125,25,36150,50,50,50,11/28/2018 13:14,Default description,yes,<openexp._canvas.legacy.Legacy object at 0x054F18D0>,<openexp._canvas.legacy.Legacy object at 0x05509C90>,<openexp._canvas.legacy.Legacy object at 0x054FC650>,<openexp._canvas.legacy.Legacy object at 0x0538A910>,<openexp._canvas.legacy.Legacy object at 0x0537A190>,<openexp._canvas.legacy.Legacy object at 0x054E42B0>,<openexp._canvas.legacy.Legacy object at 0x05545D90>,<openexp._canvas.legacy.Legacy object at 0x054FC090>,75,SpatProbMultiple3.osexp,C:/Userdata/Michel/SpatProbMultiple3,no,mono,no,18,no,white,no,yes,0.09,98,1050,legacy,315,25,25,1,C:/Userdata/Michel/SpatProbMultiple3/beh/subject-19.csv,legacy,9,192,25,Kafkaesque Koffka,3.2.5,yes,598477b2b83f69022949e7e9,47,green,rectangular,red,rectangular,0,/,1265,space,11202,11202,"(80, 80, 80)","(0, 123, 0)","(177, 0, 0)","(155, 155, 155)",2,legacy,experiment,"[2, 3, 4, 5, 6, 7, 0, 1]",/,2500,3000,0,8,252.7587515,1024,2,48000,-16,main,"[(0, -252), (178, -178), (252, 0), (178, 178), (0, 252), (-178, 178), (-252, 0), (-178, -178)]",[],43,odd,6,NA,540082,645192,645192,423111,422098,2126,458380,458380,2126,2126,434313,723127,2122,645192,721858,720891,720891,NA,957,study_X,0,11202,1,yes,1680
undefined,undefined,NA,NA,NA,11202,11202,black,no,legacy,legacy,legacy,0,red,"(177, 0, 0)",color,present,highProb,circular,swap,swap,swap,swap,green,"(0, 123, 0)",highProbShape,highProbShape,circular,uniform,1,undefined,0,0.135416667,1,1,192.296875,1,26,36921,0,0,0,0,0,0,0,0,52,0,1,0.135416667,192.296875,26,36921,51,51,51,11/28/2018 13:14,Default description,yes,<openexp._canvas.legacy.Legacy object at 0x054F18D0>,<openexp._canvas.legacy.Legacy object at 0x05509C90>,<openexp._canvas.legacy.Legacy object at 0x054FC650>,<openexp._canvas.legacy.Legacy object at 0x0538A910>,<openexp._canvas.legacy.Legacy object at 0x0537A190>,<openexp._canvas.legacy.Legacy object at 0x054E42B0>,<openexp._canvas.legacy.Legacy object at 0x054B2630>,<openexp._canvas.legacy.Legacy object at 0x054FC090>,75,SpatProbMultiple3.osexp,C:/Userdata/Michel/SpatProbMultiple3,no,mono,no,18,no,white,no,yes,0.09,98,1050,legacy,45,26,26,1,C:/Userdata/Michel/SpatProbMultiple3/beh/subject-19.csv,legacy,9,192,25,Kafkaesque Koffka,3.2.5,yes,598477b2b83f69022949e7e9,47,red,circular,green,circular,0,\,771,space,11202,11202,"(80, 80, 80)","(0, 123, 0)","(177, 0, 0)","(155, 155, 155)",2,legacy,experiment,"[2, 3, 4, 5, 6, 7, 0, 1]",\,2500,3000,0,8,252.7587515,1024,2,48000,-16,main,"[(0, -252), (178, -178), (252, 0), (178, 178), (0, 252), (-178, 178), (-252, 0), (-178, -178)]",[],43,odd,6,NA,540082,645192,645192,423111,422098,2126,458380,458380,2126,2126,434313,725303,2122,645192,724529,723562,723562,NA,957,study_X,0,11202,1,yes,1680
undefined,undefined,NA,NA,NA,11202,11202,black,no,legacy,legacy,legacy,0,green,"(0, 123, 0)",shape,absent,lowProb5,circular,swap,same,same,same,green,"(0, 123, 0)",lowProb,lowProb6,circular,uniform,1,undefined,0,0.140625,1,1,196.2708333,1,27,37684,0,0,0,0,0,0,0,0,53,0,1,0.140625,196.2708333,27,37684,52,52,52,11/28/2018 13:14,Default description,yes,<openexp._canvas.legacy.Legacy object at 0x054F18D0>,<openexp._canvas.legacy.Legacy object at 0x05509C90>,<openexp._canvas.legacy.Legacy object at 0x054FC650>,<openexp._canvas.legacy.Legacy object at 0x0538A910>,<openexp._canvas.legacy.Legacy object at 0x0537A190>,<openexp._canvas.legacy.Legacy object at 0x054E42B0>,<openexp._canvas.legacy.Legacy object at 0x05516B50>,<openexp._canvas.legacy.Legacy object at 0x054FC090>,75,SpatProbMultiple3.osexp,C:/Userdata/Michel/SpatProbMultiple3,no,mono,no,18,no,white,no,yes,0.09,98,1050,legacy,315,27,27,1,C:/Userdata/Michel/SpatProbMultiple3/beh/subject-19.csv,legacy,9,192,25,Kafkaesque Koffka,3.2.5,yes,598477b2b83f69022949e7e9,47,green,circular,green,circular,0,/,763,space,11202,11202,"(80, 80, 80)","(0, 123, 0)","(177, 0, 0)","(155, 155, 155)",2,legacy,experiment,"[2, 3, 4, 5, 6, 7, 0, 1]",/,2500,3000,0,8,252.7587515,1024,2,48000,-16,main,"[(0, -252), (178, -178), (252, 0), (178, 178), (0, 252), (-178, 178), (-252, 0), (-178, -178)]",[],43,odd,1,NA,540082,645192,645192,423111,422098,2126,458380,458380,2126,2126,434313,727471,2122,645192,726705,725739,725739,NA,957,study_X,0,11202,1,yes,1680
undefined,undefined,NA,NA,NA,11202,11202,black,no,legacy,legacy,legacy,0,red,"(177, 0, 0)",shape,present,highProb,rectangular,swap,swap,swap,same,red,"(177, 0, 0)",lowProb,lowProb3,circular,uniform,1,undefined,0,0.145833333,1,1,200.0208333,1,28,38404,0,0,0,0,0,0,0,0,54,0,1,0.145833333,200.0208333,28,38404,53,53,53,11/28/2018 13:14,Default description,yes,<openexp._canvas.legacy.Legacy object at 0x054F18D0>,<openexp._canvas.legacy.Legacy object at 0x05509C90>,<openexp._canvas.legacy.Legacy object at 0x054FC650>,<openexp._canvas.legacy.Legacy object at 0x0538A910>,<openexp._canvas.legacy.Legacy object at 0x0537A190>,<openexp._canvas.legacy.Legacy object at 0x054E42B0>,<openexp._canvas.legacy.Legacy object at 0x05520E70>,<openexp._canvas.legacy.Legacy object at 0x054FC090>,75,SpatProbMultiple3.osexp,C:/Userdata/Michel/SpatProbMultiple3,no,mono,no,18,no,white,no,yes,0.09,98,1050,legacy,45,28,28,1,C:/Userdata/Michel/SpatProbMultiple3/beh/subject-19.csv,legacy,9,192,25,Kafkaesque Koffka,3.2.5,yes,598477b2b83f69022949e7e9,47,red,rectangular,red,circular,0,\,720,space,11202,11202,"(80, 80, 80)","(0, 123, 0)","(177, 0, 0)","(155, 155, 155)",2,legacy,experiment,"[2, 3, 4, 5, 6, 7, 0, 1]",\,2500,3000,0,8,252.7587515,1024,2,48000,-16,main,"[(0, -252), (178, -178), (252, 0), (178, 178), (0, 252), (-178, 178), (-252, 0), (-178, -178)]",[],43,odd,5,NA,540082,645192,645192,423111,422098,2126,458380,458380,2126,2126,434313,729631,2122,645192,728908,727941,727941,NA,957,study_X,0,11202,1,yes,1680
undefined,undefined,NA,NA,NA,11202,11202,black,no,legacy,legacy,legacy,0,red,"(177, 0, 0)",color,absent,highProb,circular,same,swap,same,same,red,"(177, 0, 0)",lowProb,lowProb3,circular,uniform,1,undefined,0,0.151041667,1,1,208.046875,1,29,39945,0,0,0,0,0,0,0,0,55,0,1,0.151041667,208.046875,29,39945,54,54,54,11/28/2018 13:14,Default description,yes,<openexp._canvas.legacy.Legacy object at 0x054F18D0>,<openexp._canvas.legacy.Legacy object at 0x05509C90>,<openexp._canvas.legacy.Legacy object at 0x054FC650>,<openexp._canvas.legacy.Legacy object at 0x0538A910>,<openexp._canvas.legacy.Legacy object at 0x0537A190>,<openexp._canvas.legacy.Legacy object at 0x054E42B0>,<openexp._canvas.legacy.Legacy object at 0x054F1EB0>,<openexp._canvas.legacy.Legacy object at 0x054FC090>,75,SpatProbMultiple3.osexp,C:/Userdata/Michel/SpatProbMultiple3,no,mono,no,18,no,white,no,yes,0.09,98,1050,legacy,315,29,29,1,C:/Userdata/Michel/SpatProbMultiple3/beh/subject-19.csv,legacy,9,192,25,Kafkaesque Koffka,3.2.5,yes,598477b2b83f69022949e7e9,47,red,circular,red,circular,0,/,1541,space,11202,11202,"(80, 80, 80)","(0, 123, 0)","(177, 0, 0)","(155, 155, 155)",2,legacy,experiment,"[2, 3, 4, 5, 6, 7, 0, 1]",/,2500,3000,0,8,252.7587515,1024,2,48000,-16,main,"[(0, -252), (178, -178), (252, 0), (178, 178), (0, 252), (-178, 178), (-252, 0), (-178, -178)]",[],43,odd,5,NA,540082,645192,645192,423111,422098,2126,458380,458380,2126,2126,434313,732599,2122,645192,731054,730087,730087,NA,957,study_X,0,11202,1,yes,1680
undefined,undefined,NA,NA,NA,11202,11202,black,no,legacy,legacy,legacy,0,green,"(0, 123, 0)",shape,absent,lowProb1,rectangular,swap,swap,swap,swap,green,"(0, 123, 0)",lowProb,lowProb6,rectangular,uniform,1,undefined,0,0.15625,1,1,213.0416667,1,30,40904,0,0,0,0,0,0,0,0,56,0,1,0.15625,213.0416667,30,40904,55,55,55,11/28/2018 13:14,Default description,yes,<openexp._canvas.legacy.Legacy object at 0x054F18D0>,<openexp._canvas.legacy.Legacy object at 0x05509C90>,<openexp._canvas.legacy.Legacy object at 0x054FC650>,<openexp._canvas.legacy.Legacy object at 0x0538A910>,<openexp._canvas.legacy.Legacy object at 0x0537A190>,<openexp._canvas.legacy.Legacy object at 0x054E42B0>,<openexp._canvas.legacy.Legacy object at 0x0550F650>,<openexp._canvas.legacy.Legacy object at 0x054FC090>,75,SpatProbMultiple3.osexp,C:/Userdata/Michel/SpatProbMultiple3,no,mono,no,18,no,white,no,yes,0.09,98,1050,legacy,45,30,30,1,C:/Userdata/Michel/SpatProbMultiple3/beh/subject-19.csv,legacy,9,192,25,Kafkaesque Koffka,3.2.5,yes,598477b2b83f69022949e7e9,47,green,rectangular,green,rectangular,0,\,959,space,11202,11202,"(80, 80, 80)","(0, 123, 0)","(177, 0, 0)","(155, 155, 155)",2,legacy,experiment,"[2, 3, 4, 5, 6, 7, 0, 1]",\,2500,3000,0,8,252.7587515,1024,2,48000,-16,main,"[(0, -252), (178, -178), (252, 0), (178, 178), (0, 252), (-178, 178), (-252, 0), (-178, -178)]",[],43,odd,1,NA,540082,645192,645192,423111,422098,2126,458380,458380,2126,2126,434313,734960,2122,645192,733997,733031,733031,NA,957,study_X,0,11202,1,yes,1680
undefined,undefined,NA,NA,NA,11202,11202,black,no,legacy,legacy,legacy,0,green,"(0, 123, 0)",color,present,highProb,rectangular,same,same,swap,same,red,"(177, 0, 0)",lowProb,lowProb1,rectangular,uniform,1,undefined,0,0.161458333,1,1,218.6041667,1,31,41972,0,0,0,0,0,0,0,0,57,0,1,0.161458333,218.6041667,31,41972,56,56,56,11/28/2018 13:14,Default description,yes,<openexp._canvas.legacy.Legacy object at 0x054F18D0>,<openexp._canvas.legacy.Legacy object at 0x05509C90>,<openexp._canvas.legacy.Legacy object at 0x054FC650>,<openexp._canvas.legacy.Legacy object at 0x0538A910>,<openexp._canvas.legacy.Legacy object at 0x0537A190>,<openexp._canvas.legacy.Legacy object at 0x054E42B0>,<openexp._canvas.legacy.Legacy object at 0x054F11F0>,<openexp._canvas.legacy.Legacy object at 0x054FC090>,75,SpatProbMultiple3.osexp,C:/Userdata/Michel/SpatProbMultiple3,no,mono,no,18,no,white,no,yes,0.09,98,1050,legacy,45,31,31,1,C:/Userdata/Michel/SpatProbMultiple3/beh/subject-19.csv,legacy,9,192,25,Kafkaesque Koffka,3.2.5,yes,598477b2b83f69022949e7e9,47,green,rectangular,red,rectangular,0,\,1068,space,11202,11202,"(80, 80, 80)","(0, 123, 0)","(177, 0, 0)","(155, 155, 155)",2,legacy,experiment,"[2, 3, 4, 5, 6, 7, 0, 1]",\,2500,3000,0,8,252.7587515,1024,2,48000,-16,main,"[(0, -252), (178, -178), (252, 0), (178, 178), (0, 252), (-178, 178), (-252, 0), (-178, -178)]",[],43,odd,3,NA,540082,645192,645192,423111,422098,2126,458380,458380,2126,2126,434313,737463,2122,645192,736392,735425,735425,NA,957,study_X,0,11202,1,yes,1680
undefined,undefined,NA,NA,NA,11202,11202,black,no,legacy,legacy,legacy,0,red,"(177, 0, 0)",color,present,highProb,circular,swap,swap,swap,swap,green,"(0, 123, 0)",lowProb,lowProb2,circular,uniform,1,undefined,0,0.166666667,1,1,226.9739583,1,32,43579,0,0,0,0,0,0,0,0,58,0,1,0.166666667,226.9739583,32,43579,57,57,57,11/28/2018 13:14,Default description,yes,<openexp._canvas.legacy.Legacy object at 0x054F18D0>,<openexp._canvas.legacy.Legacy object at 0x05509C90>,<openexp._canvas.legacy.Legacy object at 0x054FC650>,<openexp._canvas.legacy.Legacy object at 0x0538A910>,<openexp._canvas.legacy.Legacy object at 0x0537A190>,<openexp._canvas.legacy.Legacy object at 0x054E42B0>,<openexp._canvas.legacy.Legacy object at 0x05509CF0>,<openexp._canvas.legacy.Legacy object at 0x054FC090>,75,SpatProbMultiple3.osexp,C:/Userdata/Michel/SpatProbMultiple3,no,mono,no,18,no,white,no,yes,0.09,98,1050,legacy,315,32,32,1,C:/Userdata/Michel/SpatProbMultiple3/beh/subject-19.csv,legacy,9,192,25,Kafkaesque Koffka,3.2.5,yes,598477b2b83f69022949e7e9,47,red,circular,green,circular,0,/,1607,space,11202,11202,"(80, 80, 80)","(0, 123, 0)","(177, 0, 0)","(155, 155, 155)",2,legacy,experiment,"[2, 3, 4, 5, 6, 7, 0, 1]",/,2500,3000,0,8,252.7587515,1024,2,48000,-16,main,"[(0, -252), (178, -178), (252, 0), (178, 178), (0, 252), (-178, 178), (-252, 0), (-178, -178)]",[],43,odd,4,NA,540082,645192,645192,423111,422098,2126,458380,458380,2126,2126,434313,740503,2122,645192,738893,737925,737925,NA,957,study_X,0,11202,1,yes,1680
undefined,undefined,NA,NA,NA,11202,11202,black,no,legacy,legacy,legacy,0,red,"(177, 0, 0)",shape,present,lowProb2,circular,same,same,swap,swap,red,"(177, 0, 0)",lowProb,lowProb1,rectangular,uniform,1,undefined,0,0.171875,1,1,232.515625,1,33,44643,0,0,0,0,0,0,0,0,59,0,1,0.171875,232.515625,33,44643,58,58,58,11/28/2018 13:14,Default description,yes,<openexp._canvas.legacy.Legacy object at 0x054F18D0>,<openexp._canvas.legacy.Legacy object at 0x05509C90>,<openexp._canvas.legacy.Legacy object at 0x054FC650>,<openexp._canvas.legacy.Legacy object at 0x0538A910>,<openexp._canvas.legacy.Legacy object at 0x0537A190>,<openexp._canvas.legacy.Legacy object at 0x054E42B0>,<openexp._canvas.legacy.Legacy object at 0x0550FB90>,<openexp._canvas.legacy.Legacy object at 0x054FC090>,75,SpatProbMultiple3.osexp,C:/Userdata/Michel/SpatProbMultiple3,no,mono,no,18,no,white,no,yes,0.09,98,1050,legacy,45,33,33,1,C:/Userdata/Michel/SpatProbMultiple3/beh/subject-19.csv,legacy,9,192,25,Kafkaesque Koffka,3.2.5,yes,598477b2b83f69022949e7e9,47,red,circular,red,rectangular,0,\,1064,space,11202,11202,"(80, 80, 80)","(0, 123, 0)","(177, 0, 0)","(155, 155, 155)",2,legacy,experiment,"[2, 3, 4, 5, 6, 7, 0, 1]",\,2500,3000,0,8,252.7587515,1024,2,48000,-16,main,"[(0, -252), (178, -178), (252, 0), (178, 178), (0, 252), (-178, 178), (-252, 0), (-178, -178)]",[],43,odd,3,NA,540082,645192,645192,423111,422098,2126,458380,458380,2126,2126,434313,742967,2122,645192,741900,740932,740932,NA,957,study_X,0,11202,1,yes,1680
undefined,undefined,NA,NA,NA,11202,11202,black,no,legacy,legacy,legacy,0,red,"(177, 0, 0)",shape,absent,lowProb6,rectangular,same,swap,same,same,red,"(177, 0, 0)",highProbColor,highProbColor,rectangular,uniform,1,undefined,0,0.177083333,1,1,237.4635417,1,34,45593,0,0,0,0,0,0,0,0,60,0,1,0.177083333,237.4635417,34,45593,59,59,59,11/28/2018 13:14,Default description,yes,<openexp._canvas.legacy.Legacy object at 0x054F18D0>,<openexp._canvas.legacy.Legacy object at 0x05509C90>,<openexp._canvas.legacy.Legacy object at 0x054FC650>,<openexp._canvas.legacy.Legacy object at 0x0538A910>,<openexp._canvas.legacy.Legacy object at 0x0537A190>,<openexp._canvas.legacy.Legacy object at 0x054E42B0>,<openexp._canvas.legacy.Legacy object at 0x054B2A50>,<openexp._canvas.legacy.Legacy object at 0x054FC090>,75,SpatProbMultiple3.osexp,C:/Userdata/Michel/SpatProbMultiple3,no,mono,no,18,no,white,no,yes,0.09,98,1050,legacy,45,34,34,1,C:/Userdata/Michel/SpatProbMultiple3/beh/subject-19.csv,legacy,9,192,25,Kafkaesque Koffka,3.2.5,yes,598477b2b83f69022949e7e9,47,red,rectangular,red,rectangular,0,\,950,space,11202,11202,"(80, 80, 80)","(0, 123, 0)","(177, 0, 0)","(155, 155, 155)",2,legacy,experiment,"[2, 3, 4, 5, 6, 7, 0, 1]",\,2500,3000,0,8,252.7587515,1024,2,48000,-16,main,"[(0, -252), (178, -178), (252, 0), (178, 178), (0, 252), (-178, 178), (-252, 0), (-178, -178)]",[],43,odd,2,NA,540082,645192,645192,423111,422098,2126,458380,458380,2126,2126,434313,745311,2122,645192,744358,743391,743391,NA,957,study_X,0,11202,1,yes,1680
undefined,undefined,NA,NA,NA,11202,11202,black,no,legacy,legacy,legacy,0,green,"(0, 123, 0)",shape,present,highProb,circular,swap,swap,swap,same,green,"(0, 123, 0)",lowProb,lowProb5,rectangular,uniform,1,undefined,0,0.182291667,1,1,242.328125,1,35,46527,0,0,0,0,0,0,0,0,61,0,1,0.182291667,242.328125,35,46527,60,60,60,11/28/2018 13:14,Default description,yes,<openexp._canvas.legacy.Legacy object at 0x054F18D0>,<openexp._canvas.legacy.Legacy object at 0x05509C90>,<openexp._canvas.legacy.Legacy object at 0x054FC650>,<openexp._canvas.legacy.Legacy object at 0x0538A910>,<openexp._canvas.legacy.Legacy object at 0x0537A190>,<openexp._canvas.legacy.Legacy object at 0x054E42B0>,<openexp._canvas.legacy.Legacy object at 0x05509AB0>,<openexp._canvas.legacy.Legacy object at 0x054FC090>,75,SpatProbMultiple3.osexp,C:/Userdata/Michel/SpatProbMultiple3,no,mono,no,18,no,white,no,yes,0.09,98,1050,legacy,45,35,35,1,C:/Userdata/Michel/SpatProbMultiple3/beh/subject-19.csv,legacy,9,192,25,Kafkaesque Koffka,3.2.5,yes,598477b2b83f69022949e7e9,47,green,circular,green,rectangular,0,\,934,space,11202,11202,"(80, 80, 80)","(0, 123, 0)","(177, 0, 0)","(155, 155, 155)",2,legacy,experiment,"[2, 3, 4, 5, 6, 7, 0, 1]",\,2500,3000,0,8,252.7587515,1024,2,48000,-16,main,"[(0, -252), (178, -178), (252, 0), (178, 178), (0, 252), (-178, 178), (-252, 0), (-178, -178)]",[],43,odd,0,NA,540082,645192,645192,423111,422098,2126,458380,458380,2126,2126,434313,747655,2122,645192,746717,745750,745751,NA,957,study_X,0,11202,1,yes,1680
undefined,undefined,NA,NA,NA,11202,11202,black,no,legacy,legacy,legacy,0,red,"(177, 0, 0)",color,present,highProb,circular,swap,same,same,swap,green,"(0, 123, 0)",lowProb,lowProb5,circular,uniform,1,undefined,0,0.1875,1,1,246.0104167,1,36,47234,0,0,0,0,0,0,0,0,62,0,1,0.1875,246.0104167,36,47234,61,61,61,11/28/2018 13:14,Default description,yes,<openexp._canvas.legacy.Legacy object at 0x054F18D0>,<openexp._canvas.legacy.Legacy object at 0x05509C90>,<openexp._canvas.legacy.Legacy object at 0x054FC650>,<openexp._canvas.legacy.Legacy object at 0x0538A910>,<openexp._canvas.legacy.Legacy object at 0x0537A190>,<openexp._canvas.legacy.Legacy object at 0x054E42B0>,<openexp._canvas.legacy.Legacy object at 0x05509830>,<openexp._canvas.legacy.Legacy object at 0x054FC090>,75,SpatProbMultiple3.osexp,C:/Userdata/Michel/SpatProbMultiple3,no,mono,no,18,no,white,no,yes,0.09,98,1050,legacy,315,36,36,1,C:/Userdata/Michel/SpatProbMultiple3/beh/subject-19.csv,legacy,9,192,25,Kafkaesque Koffka,3.2.5,yes,598477b2b83f69022949e7e9,47,red,circular,green,circular,0,/,707,space,11202,11202,"(80, 80, 80)","(0, 123, 0)","(177, 0, 0)","(155, 155, 155)",2,legacy,experiment,"[2, 3, 4, 5, 6, 7, 0, 1]",/,2500,3000,0,8,252.7587515,1024,2,48000,-16,main,"[(0, -252), (178, -178), (252, 0), (178, 178), (0, 252), (-178, 178), (-252, 0), (-178, -178)]",[],43,odd,0,NA,540082,645192,645192,423111,422098,2126,458380,458380,2126,2126,434313,749799,2122,645192,749088,748123,748123,NA,957,study_X,0,11202,1,yes,1680
undefined,undefined,NA,NA,NA,11202,11202,black,no,legacy,legacy,legacy,0,green,"(0, 123, 0)",shape,absent,highProbOther,circular,swap,same,same,same,green,"(0, 123, 0)",lowProb,lowProb6,circular,uniform,1,undefined,0,0.192708333,1,1,251.21875,1,37,48234,0,0,0,0,0,0,0,0,63,0,1,0.192708333,251.21875,37,48234,62,62,62,11/28/2018 13:14,Default description,yes,<openexp._canvas.legacy.Legacy object at 0x054F18D0>,<openexp._canvas.legacy.Legacy object at 0x05509C90>,<openexp._canvas.legacy.Legacy object at 0x054FC650>,<openexp._canvas.legacy.Legacy object at 0x0538A910>,<openexp._canvas.legacy.Legacy object at 0x0537A190>,<openexp._canvas.legacy.Legacy object at 0x054E42B0>,<openexp._canvas.legacy.Legacy object at 0x05545B30>,<openexp._canvas.legacy.Legacy object at 0x054FC090>,75,SpatProbMultiple3.osexp,C:/Userdata/Michel/SpatProbMultiple3,no,mono,no,18,no,white,no,yes,0.09,98,1050,legacy,45,37,37,1,C:/Userdata/Michel/SpatProbMultiple3/beh/subject-19.csv,legacy,9,192,25,Kafkaesque Koffka,3.2.5,yes,598477b2b83f69022949e7e9,47,green,circular,green,circular,0,\,1000,space,11202,11202,"(80, 80, 80)","(0, 123, 0)","(177, 0, 0)","(155, 155, 155)",2,legacy,experiment,"[2, 3, 4, 5, 6, 7, 0, 1]",\,2500,3000,0,8,252.7587515,1024,2,48000,-16,main,"[(0, -252), (178, -178), (252, 0), (178, 178), (0, 252), (-178, 178), (-252, 0), (-178, -178)]",[],43,odd,1,NA,540082,645192,645192,423111,422098,2126,458380,458380,2126,2126,434313,752224,2122,645192,751220,750254,750254,NA,957,study_X,0,11202,1,yes,1680
undefined,undefined,NA,NA,NA,11202,11202,black,no,legacy,legacy,legacy,0,red,"(177, 0, 0)",shape,present,highProb,rectangular,swap,swap,swap,same,red,"(177, 0, 0)",highProbColor,highProbColor,circular,uniform,1,undefined,0,0.197916667,1,1,256.1666667,1,38,49184,0,0,0,0,0,0,0,0,64,0,1,0.197916667,256.1666667,38,49184,63,63,63,11/28/2018 13:14,Default description,yes,<openexp._canvas.legacy.Legacy object at 0x054F18D0>,<openexp._canvas.legacy.Legacy object at 0x05509C90>,<openexp._canvas.legacy.Legacy object at 0x054FC650>,<openexp._canvas.legacy.Legacy object at 0x0538A910>,<openexp._canvas.legacy.Legacy object at 0x0537A190>,<openexp._canvas.legacy.Legacy object at 0x054E42B0>,<openexp._canvas.legacy.Legacy object at 0x055167F0>,<openexp._canvas.legacy.Legacy object at 0x054FC090>,75,SpatProbMultiple3.osexp,C:/Userdata/Michel/SpatProbMultiple3,no,mono,no,18,no,white,no,yes,0.09,98,1050,legacy,315,38,38,1,C:/Userdata/Michel/SpatProbMultiple3/beh/subject-19.csv,legacy,9,192,25,Kafkaesque Koffka,3.2.5,yes,598477b2b83f69022949e7e9,47,red,rectangular,red,circular,0,/,950,space,11202,11202,"(80, 80, 80)","(0, 123, 0)","(177, 0, 0)","(155, 155, 155)",2,legacy,experiment,"[2, 3, 4, 5, 6, 7, 0, 1]",/,2500,3000,0,8,252.7587515,1024,2,48000,-16,main,"[(0, -252), (178, -178), (252, 0), (178, 178), (0, 252), (-178, 178), (-252, 0), (-178, -178)]",[],43,odd,2,NA,540082,645192,645192,423111,422098,2126,458380,458380,2126,2126,434313,754575,2122,645192,753622,752654,752655,NA,957,study_X,0,11202,1,yes,1680
undefined,undefined,NA,NA,NA,11202,11202,black,no,legacy,legacy,legacy,0,red,"(177, 0, 0)",shape,present,highProb,rectangular,same,same,same,same,red,"(177, 0, 0)",lowProb,lowProb4,circular,uniform,1,undefined,0,0.203125,1,1,262.3229167,1,39,50366,0,0,0,0,0,0,0,0,65,0,1,0.203125,262.3229167,39,50366,64,64,64,11/28/2018 13:14,Default description,yes,<openexp._canvas.legacy.Legacy object at 0x054F18D0>,<openexp._canvas.legacy.Legacy object at 0x05509C90>,<openexp._canvas.legacy.Legacy object at 0x054FC650>,<openexp._canvas.legacy.Legacy object at 0x0538A910>,<openexp._canvas.legacy.Legacy object at 0x0537A190>,<openexp._canvas.legacy.Legacy object at 0x054E42B0>,<openexp._canvas.legacy.Legacy object at 0x054FC3F0>,<openexp._canvas.legacy.Legacy object at 0x054FC090>,75,SpatProbMultiple3.osexp,C:/Userdata/Michel/SpatProbMultiple3,no,mono,no,18,no,white,no,yes,0.09,98,1050,legacy,315,39,39,1,C:/Userdata/Michel/SpatProbMultiple3/beh/subject-19.csv,legacy,9,192,25,Kafkaesque Koffka,3.2.5,yes,598477b2b83f69022949e7e9,47,red,rectangular,red,circular,0,/,1182,space,11202,11202,"(80, 80, 80)","(0, 123, 0)","(177, 0, 0)","(155, 155, 155)",2,legacy,experiment,"[2, 3, 4, 5, 6, 7, 0, 1]",/,2500,3000,0,8,252.7587515,1024,2,48000,-16,main,"[(0, -252), (178, -178), (252, 0), (178, 178), (0, 252), (-178, 178), (-252, 0), (-178, -178)]",[],43,odd,7,NA,540082,645192,645192,423111,422098,2126,458380,458380,2126,2126,434313,757167,2122,645192,755982,755015,755015,NA,957,study_X,0,11202,1,yes,1680
undefined,undefined,NA,NA,NA,11202,11202,black,no,legacy,legacy,legacy,0,red,"(177, 0, 0)",shape,present,highProb,rectangular,same,same,same,same,red,"(177, 0, 0)",lowProb,lowProb3,circular,uniform,1,undefined,0,0.208333333,1,1,269.4583333,1,40,51736,0,0,0,0,0,0,0,0,66,0,1,0.208333333,269.4583333,40,51736,65,65,65,11/28/2018 13:14,Default description,yes,<openexp._canvas.legacy.Legacy object at 0x054F18D0>,<openexp._canvas.legacy.Legacy object at 0x05509C90>,<openexp._canvas.legacy.Legacy object at 0x054FC650>,<openexp._canvas.legacy.Legacy object at 0x0538A910>,<openexp._canvas.legacy.Legacy object at 0x0537A190>,<openexp._canvas.legacy.Legacy object at 0x054E42B0>,<openexp._canvas.legacy.Legacy object at 0x05545DD0>,<openexp._canvas.legacy.Legacy object at 0x054FC090>,75,SpatProbMultiple3.osexp,C:/Userdata/Michel/SpatProbMultiple3,no,mono,no,18,no,white,no,yes,0.09,98,1050,legacy,45,40,40,1,C:/Userdata/Michel/SpatProbMultiple3/beh/subject-19.csv,legacy,9,192,25,Kafkaesque Koffka,3.2.5,yes,598477b2b83f69022949e7e9,47,red,rectangular,red,circular,0,\,1370,space,11202,11202,"(80, 80, 80)","(0, 123, 0)","(177, 0, 0)","(155, 155, 155)",2,legacy,experiment,"[2, 3, 4, 5, 6, 7, 0, 1]",\,2500,3000,0,8,252.7587515,1024,2,48000,-16,main,"[(0, -252), (178, -178), (252, 0), (178, 178), (0, 252), (-178, 178), (-252, 0), (-178, -178)]",[],43,odd,5,NA,540082,645192,645192,423111,422098,2126,458380,458380,2126,2126,434313,759935,2122,645192,758562,757595,757595,NA,957,study_X,0,11202,1,yes,1680
undefined,undefined,NA,NA,NA,11202,11202,black,no,legacy,legacy,legacy,0,green,"(0, 123, 0)",color,present,lowProb5,rectangular,swap,same,same,swap,red,"(177, 0, 0)",highProbColor,highProbColor,rectangular,uniform,1,undefined,0,0.213541667,1,1,274.453125,1,41,52695,0,0,0,0,0,0,0,0,67,0,1,0.213541667,274.453125,41,52695,66,66,66,11/28/2018 13:14,Default description,yes,<openexp._canvas.legacy.Legacy object at 0x054F18D0>,<openexp._canvas.legacy.Legacy object at 0x05509C90>,<openexp._canvas.legacy.Legacy object at 0x054FC650>,<openexp._canvas.legacy.Legacy object at 0x0538A910>,<openexp._canvas.legacy.Legacy object at 0x0537A190>,<openexp._canvas.legacy.Legacy object at 0x054E42B0>,<openexp._canvas.legacy.Legacy object at 0x0554D790>,<openexp._canvas.legacy.Legacy object at 0x054FC090>,75,SpatProbMultiple3.osexp,C:/Userdata/Michel/SpatProbMultiple3,no,mono,no,18,no,white,no,yes,0.09,98,1050,legacy,45,41,41,1,C:/Userdata/Michel/SpatProbMultiple3/beh/subject-19.csv,legacy,9,192,25,Kafkaesque Koffka,3.2.5,yes,598477b2b83f69022949e7e9,47,green,rectangular,red,rectangular,0,\,959,space,11202,11202,"(80, 80, 80)","(0, 123, 0)","(177, 0, 0)","(155, 155, 155)",2,legacy,experiment,"[2, 3, 4, 5, 6, 7, 0, 1]",\,2500,3000,0,8,252.7587515,1024,2,48000,-16,main,"[(0, -252), (178, -178), (252, 0), (178, 178), (0, 252), (-178, 178), (-252, 0), (-178, -178)]",[],43,odd,2,NA,540082,645192,645192,423111,422098,2126,458380,458380,2126,2126,434313,762287,2122,645192,761324,760357,760357,NA,957,study_X,0,11202,1,yes,1680
undefined,undefined,NA,NA,NA,11202,11202,black,no,legacy,legacy,legacy,0,green,"(0, 123, 0)",shape,present,highProb,rectangular,same,same,swap,swap,green,"(0, 123, 0)",lowProb,lowProb6,circular,uniform,1,undefined,0,0.21875,1,1,277.4791667,1,42,53276,0,0,0,0,0,0,0,0,68,0,1,0.21875,277.4791667,42,53276,67,67,67,11/28/2018 13:14,Default description,yes,<openexp._canvas.legacy.Legacy object at 0x054F18D0>,<openexp._canvas.legacy.Legacy object at 0x05509C90>,<openexp._canvas.legacy.Legacy object at 0x054FC650>,<openexp._canvas.legacy.Legacy object at 0x0538A910>,<openexp._canvas.legacy.Legacy object at 0x0537A190>,<openexp._canvas.legacy.Legacy object at 0x054E42B0>,<openexp._canvas.legacy.Legacy object at 0x0554D850>,<openexp._canvas.legacy.Legacy object at 0x054FC090>,75,SpatProbMultiple3.osexp,C:/Userdata/Michel/SpatProbMultiple3,no,mono,no,18,no,white,no,yes,0.09,98,1050,legacy,315,42,42,1,C:/Userdata/Michel/SpatProbMultiple3/beh/subject-19.csv,legacy,9,192,25,Kafkaesque Koffka,3.2.5,yes,598477b2b83f69022949e7e9,47,green,rectangular,green,circular,0,/,581,space,11202,11202,"(80, 80, 80)","(0, 123, 0)","(177, 0, 0)","(155, 155, 155)",2,legacy,experiment,"[2, 3, 4, 5, 6, 7, 0, 1]",/,2500,3000,0,8,252.7587515,1024,2,48000,-16,main,"[(0, -252), (178, -178), (252, 0), (178, 178), (0, 252), (-178, 178), (-252, 0), (-178, -178)]",[],43,odd,1,NA,540082,645192,645192,423111,422098,2126,458380,458380,2126,2126,434313,764271,2122,645192,763686,762719,762719,NA,957,study_X,0,11202,1,yes,1680
undefined,undefined,NA,NA,NA,11202,11202,black,no,legacy,legacy,legacy,0,green,"(0, 123, 0)",color,present,highProb,circular,same,swap,swap,same,red,"(177, 0, 0)",highProbShape,highProbShape,circular,uniform,1,undefined,0,0.223958333,1,1,281.6927083,1,43,54085,0,0,0,0,0,0,0,0,69,0,1,0.223958333,281.6927083,43,54085,68,68,68,11/28/2018 13:14,Default description,yes,<openexp._canvas.legacy.Legacy object at 0x054F18D0>,<openexp._canvas.legacy.Legacy object at 0x05509C90>,<openexp._canvas.legacy.Legacy object at 0x054FC650>,<openexp._canvas.legacy.Legacy object at 0x0538A910>,<openexp._canvas.legacy.Legacy object at 0x0537A190>,<openexp._canvas.legacy.Legacy object at 0x054E42B0>,<openexp._canvas.legacy.Legacy object at 0x05545EF0>,<openexp._canvas.legacy.Legacy object at 0x054FC090>,75,SpatProbMultiple3.osexp,C:/Userdata/Michel/SpatProbMultiple3,no,mono,no,18,no,white,no,yes,0.09,98,1050,legacy,45,43,43,1,C:/Userdata/Michel/SpatProbMultiple3/beh/subject-19.csv,legacy,9,192,25,Kafkaesque Koffka,3.2.5,yes,598477b2b83f69022949e7e9,47,green,circular,red,circular,0,\,809,space,11202,11202,"(80, 80, 80)","(0, 123, 0)","(177, 0, 0)","(155, 155, 155)",2,legacy,experiment,"[2, 3, 4, 5, 6, 7, 0, 1]",\,2500,3000,0,8,252.7587515,1024,2,48000,-16,main,"[(0, -252), (178, -178), (252, 0), (178, 178), (0, 252), (-178, 178), (-252, 0), (-178, -178)]",[],43,odd,6,NA,540082,645192,645192,423111,422098,2126,458380,458380,2126,2126,434313,766479,2122,645192,765666,764699,764699,NA,957,study_X,0,11202,1,yes,1680
undefined,undefined,NA,NA,NA,11202,11202,black,no,legacy,legacy,legacy,0,red,"(177, 0, 0)",color,present,lowProb6,rectangular,swap,swap,swap,swap,green,"(0, 123, 0)",highProbColor,highProbColor,rectangular,uniform,1,undefined,0,0.229166667,1,1,286.4791667,1,44,55004,0,0,0,0,0,0,0,0,70,0,1,0.229166667,286.4791667,44,55004,69,69,69,11/28/2018 13:14,Default description,yes,<openexp._canvas.legacy.Legacy object at 0x054F18D0>,<openexp._canvas.legacy.Legacy object at 0x05509C90>,<openexp._canvas.legacy.Legacy object at 0x054FC650>,<openexp._canvas.legacy.Legacy object at 0x0538A910>,<openexp._canvas.legacy.Legacy object at 0x0537A190>,<openexp._canvas.legacy.Legacy object at 0x054E42B0>,<openexp._canvas.legacy.Legacy object at 0x0550FB90>,<openexp._canvas.legacy.Legacy object at 0x054FC090>,75,SpatProbMultiple3.osexp,C:/Userdata/Michel/SpatProbMultiple3,no,mono,no,18,no,white,no,yes,0.09,98,1050,legacy,45,44,44,1,C:/Userdata/Michel/SpatProbMultiple3/beh/subject-19.csv,legacy,9,192,25,Kafkaesque Koffka,3.2.5,yes,598477b2b83f69022949e7e9,47,red,rectangular,green,rectangular,0,\,919,space,11202,11202,"(80, 80, 80)","(0, 123, 0)","(177, 0, 0)","(155, 155, 155)",2,legacy,experiment,"[2, 3, 4, 5, 6, 7, 0, 1]",\,2500,3000,0,8,252.7587515,1024,2,48000,-16,main,"[(0, -252), (178, -178), (252, 0), (178, 178), (0, 252), (-178, 178), (-252, 0), (-178, -178)]",[],43,odd,2,NA,540082,645192,645192,423111,422098,2126,458380,458380,2126,2126,434313,768798,2122,645192,767876,766909,766909,NA,957,study_X,0,11202,1,yes,1680
undefined,undefined,NA,NA,NA,11202,11202,black,no,legacy,legacy,legacy,0,red,"(177, 0, 0)",color,present,highProb,circular,same,swap,same,swap,green,"(0, 123, 0)",lowProb,lowProb5,circular,uniform,1,undefined,0,0.234375,1,1,291.90625,1,45,56046,0,0,0,0,0,0,0,0,71,0,1,0.234375,291.90625,45,56046,70,70,70,11/28/2018 13:14,Default description,yes,<openexp._canvas.legacy.Legacy object at 0x054F18D0>,<openexp._canvas.legacy.Legacy object at 0x05509C90>,<openexp._canvas.legacy.Legacy object at 0x054FC650>,<openexp._canvas.legacy.Legacy object at 0x0538A910>,<openexp._canvas.legacy.Legacy object at 0x0537A190>,<openexp._canvas.legacy.Legacy object at 0x054E42B0>,<openexp._canvas.legacy.Legacy object at 0x054F12F0>,<openexp._canvas.legacy.Legacy object at 0x054FC090>,75,SpatProbMultiple3.osexp,C:/Userdata/Michel/SpatProbMultiple3,no,mono,no,18,no,white,no,yes,0.09,98,1050,legacy,45,45,45,1,C:/Userdata/Michel/SpatProbMultiple3/beh/subject-19.csv,legacy,9,192,25,Kafkaesque Koffka,3.2.5,yes,598477b2b83f69022949e7e9,47,red,circular,green,circular,0,\,1042,space,11202,11202,"(80, 80, 80)","(0, 123, 0)","(177, 0, 0)","(155, 155, 155)",2,legacy,experiment,"[2, 3, 4, 5, 6, 7, 0, 1]",\,2500,3000,0,8,252.7587515,1024,2,48000,-16,main,"[(0, -252), (178, -178), (252, 0), (178, 178), (0, 252), (-178, 178), (-252, 0), (-178, -178)]",[],43,odd,0,NA,540082,645192,645192,423111,422098,2126,458380,458380,2126,2126,434313,771255,2122,645192,770210,769244,769244,NA,957,study_X,0,11202,1,yes,1680
undefined,undefined,NA,NA,NA,11202,11202,black,no,legacy,legacy,legacy,0,green,"(0, 123, 0)",shape,present,highProbOther,circular,swap,same,same,swap,green,"(0, 123, 0)",lowProb,lowProb2,rectangular,uniform,1,undefined,0,0.239583333,1,1,300.953125,1,46,57783,0,0,0,0,0,0,0,0,72,0,1,0.239583333,300.953125,46,57783,71,71,71,11/28/2018 13:14,Default description,yes,<openexp._canvas.legacy.Legacy object at 0x054F18D0>,<openexp._canvas.legacy.Legacy object at 0x05509C90>,<openexp._canvas.legacy.Legacy object at 0x054FC650>,<openexp._canvas.legacy.Legacy object at 0x0538A910>,<openexp._canvas.legacy.Legacy object at 0x0537A190>,<openexp._canvas.legacy.Legacy object at 0x054E42B0>,<openexp._canvas.legacy.Legacy object at 0x054F1E50>,<openexp._canvas.legacy.Legacy object at 0x054FC090>,75,SpatProbMultiple3.osexp,C:/Userdata/Michel/SpatProbMultiple3,no,mono,no,18,no,white,no,yes,0.09,98,1050,legacy,45,46,46,1,C:/Userdata/Michel/SpatProbMultiple3/beh/subject-19.csv,legacy,9,192,25,Kafkaesque Koffka,3.2.5,yes,598477b2b83f69022949e7e9,47,green,circular,green,rectangular,0,\,1737,space,11202,11202,"(80, 80, 80)","(0, 123, 0)","(177, 0, 0)","(155, 155, 155)",2,legacy,experiment,"[2, 3, 4, 5, 6, 7, 0, 1]",\,2500,3000,0,8,252.7587515,1024,2,48000,-16,main,"[(0, -252), (178, -178), (252, 0), (178, 178), (0, 252), (-178, 178), (-252, 0), (-178, -178)]",[],43,odd,4,NA,540082,645192,645192,423111,422098,2126,458380,458380,2126,2126,434313,774391,2122,645192,772651,771684,771684,NA,957,study_X,0,11202,1,yes,1680
undefined,undefined,NA,NA,NA,11202,11202,black,no,legacy,legacy,legacy,0,red,"(177, 0, 0)",shape,absent,highProb,circular,swap,same,swap,swap,red,"(177, 0, 0)",lowProb,lowProb6,circular,uniform,1,undefined,0,0.244791667,1,1,307.7864583,1,47,59095,0,0,0,0,0,0,0,0,73,0,1,0.244791667,307.7864583,47,59095,72,72,72,11/28/2018 13:14,Default description,yes,<openexp._canvas.legacy.Legacy object at 0x054F18D0>,<openexp._canvas.legacy.Legacy object at 0x05509C90>,<openexp._canvas.legacy.Legacy object at 0x054FC650>,<openexp._canvas.legacy.Legacy object at 0x0538A910>,<openexp._canvas.legacy.Legacy object at 0x0537A190>,<openexp._canvas.legacy.Legacy object at 0x054E42B0>,<openexp._canvas.legacy.Legacy object at 0x0554D3F0>,<openexp._canvas.legacy.Legacy object at 0x054FC090>,75,SpatProbMultiple3.osexp,C:/Userdata/Michel/SpatProbMultiple3,no,mono,no,18,no,white,no,yes,0.09,98,1050,legacy,315,47,47,1,C:/Userdata/Michel/SpatProbMultiple3/beh/subject-19.csv,legacy,9,192,25,Kafkaesque Koffka,3.2.5,yes,598477b2b83f69022949e7e9,47,red,circular,red,circular,0,/,1312,space,11202,11202,"(80, 80, 80)","(0, 123, 0)","(177, 0, 0)","(155, 155, 155)",2,legacy,experiment,"[2, 3, 4, 5, 6, 7, 0, 1]",/,2500,3000,0,8,252.7587515,1024,2,48000,-16,main,"[(0, -252), (178, -178), (252, 0), (178, 178), (0, 252), (-178, 178), (-252, 0), (-178, -178)]",[],43,odd,1,NA,540082,645192,645192,423111,422098,2126,458380,458380,2126,2126,434313,777143,2122,645192,775827,774860,774860,NA,957,study_X,0,11202,1,yes,1680
undefined,undefined,NA,NA,NA,11202,11202,black,no,legacy,legacy,legacy,0,red,"(177, 0, 0)",shape,present,highProb,rectangular,same,swap,same,same,red,"(177, 0, 0)",lowProb,lowProb1,circular,uniform,1,undefined,0,0.25,1,1,313.7135417,1,48,60233,0,0,0,0,0,0,0,0,74,0,1,0.25,313.7135417,48,60233,73,73,73,11/28/2018 13:14,Default description,yes,<openexp._canvas.legacy.Legacy object at 0x054F18D0>,<openexp._canvas.legacy.Legacy object at 0x05509C90>,<openexp._canvas.legacy.Legacy object at 0x054FC650>,<openexp._canvas.legacy.Legacy object at 0x0538A910>,<openexp._canvas.legacy.Legacy object at 0x0537A190>,<openexp._canvas.legacy.Legacy object at 0x054E42B0>,<openexp._canvas.legacy.Legacy object at 0x0554D510>,<openexp._canvas.legacy.Legacy object at 0x054FC090>,75,SpatProbMultiple3.osexp,C:/Userdata/Michel/SpatProbMultiple3,no,mono,no,18,no,white,no,yes,0.09,98,1050,legacy,315,48,48,1,C:/Userdata/Michel/SpatProbMultiple3/beh/subject-19.csv,legacy,9,192,25,Kafkaesque Koffka,3.2.5,yes,598477b2b83f69022949e7e9,47,red,rectangular,red,circular,0,/,1138,space,11202,11202,"(80, 80, 80)","(0, 123, 0)","(177, 0, 0)","(155, 155, 155)",2,legacy,experiment,"[2, 3, 4, 5, 6, 7, 0, 1]",/,2500,3000,0,8,252.7587515,1024,2,48000,-16,main,"[(0, -252), (178, -178), (252, 0), (178, 178), (0, 252), (-178, 178), (-252, 0), (-178, -178)]",[],43,odd,3,NA,540082,645192,645192,423111,422098,2126,458380,458380,2126,2126,434313,779679,2122,645192,778537,777570,777570,NA,957,study_X,0,11202,1,yes,1680
undefined,undefined,NA,NA,NA,11202,11202,black,no,legacy,legacy,legacy,0,green,"(0, 123, 0)",shape,present,lowProb2,circular,swap,swap,swap,swap,green,"(0, 123, 0)",lowProb,lowProb4,rectangular,uniform,1,undefined,0,0.255208333,1,1,322.0677083,1,49,61837,0,0,0,0,0,0,0,0,75,0,1,0.255208333,322.0677083,49,61837,74,74,74,11/28/2018 13:14,Default description,yes,<openexp._canvas.legacy.Legacy object at 0x054F18D0>,<openexp._canvas.legacy.Legacy object at 0x05509C90>,<openexp._canvas.legacy.Legacy object at 0x054FC650>,<openexp._canvas.legacy.Legacy object at 0x0538A910>,<openexp._canvas.legacy.Legacy object at 0x0537A190>,<openexp._canvas.legacy.Legacy object at 0x054E42B0>,<openexp._canvas.legacy.Legacy object at 0x05545B70>,<openexp._canvas.legacy.Legacy object at 0x054FC090>,75,SpatProbMultiple3.osexp,C:/Userdata/Michel/SpatProbMultiple3,no,mono,no,18,no,white,no,yes,0.09,98,1050,legacy,45,49,49,1,C:/Userdata/Michel/SpatProbMultiple3/beh/subject-19.csv,legacy,9,192,25,Kafkaesque Koffka,3.2.5,yes,598477b2b83f69022949e7e9,47,green,circular,green,rectangular,0,\,1604,space,11202,11202,"(80, 80, 80)","(0, 123, 0)","(177, 0, 0)","(155, 155, 155)",2,legacy,experiment,"[2, 3, 4, 5, 6, 7, 0, 1]",\,2500,3000,0,8,252.7587515,1024,2,48000,-16,main,"[(0, -252), (178, -178), (252, 0), (178, 178), (0, 252), (-178, 178), (-252, 0), (-178, -178)]",[],43,odd,7,NA,540082,645192,645192,423111,422098,2126,458380,458380,2126,2126,434313,782687,2122,645192,781079,780112,780112,NA,957,study_X,0,11202,1,yes,1680
undefined,undefined,NA,NA,NA,11202,11202,black,no,legacy,legacy,legacy,0,green,"(0, 123, 0)",shape,present,highProb,rectangular,same,swap,same,swap,green,"(0, 123, 0)",lowProb,lowProb1,circular,uniform,1,undefined,0,0.260416667,1,1,327.234375,1,50,62829,0,0,0,0,0,0,0,0,76,0,1,0.260416667,327.234375,50,62829,75,75,75,11/28/2018 13:14,Default description,yes,<openexp._canvas.legacy.Legacy object at 0x054F18D0>,<openexp._canvas.legacy.Legacy object at 0x05509C90>,<openexp._canvas.legacy.Legacy object at 0x054FC650>,<openexp._canvas.legacy.Legacy object at 0x0538A910>,<openexp._canvas.legacy.Legacy object at 0x0537A190>,<openexp._canvas.legacy.Legacy object at 0x054E42B0>,<openexp._canvas.legacy.Legacy object at 0x0538F070>,<openexp._canvas.legacy.Legacy object at 0x054FC090>,75,SpatProbMultiple3.osexp,C:/Userdata/Michel/SpatProbMultiple3,no,mono,no,18,no,white,no,yes,0.09,98,1050,legacy,315,50,50,1,C:/Userdata/Michel/SpatProbMultiple3/beh/subject-19.csv,legacy,9,192,25,Kafkaesque Koffka,3.2.5,yes,598477b2b83f69022949e7e9,47,green,rectangular,green,circular,0,/,992,space,11202,11202,"(80, 80, 80)","(0, 123, 0)","(177, 0, 0)","(155, 155, 155)",2,legacy,experiment,"[2, 3, 4, 5, 6, 7, 0, 1]",/,2500,3000,0,8,252.7587515,1024,2,48000,-16,main,"[(0, -252), (178, -178), (252, 0), (178, 178), (0, 252), (-178, 178), (-252, 0), (-178, -178)]",[],43,odd,3,NA,540082,645192,645192,423111,422098,2126,458380,458380,2126,2126,434313,785078,2122,645192,784083,783116,783116,NA,957,study_X,0,11202,1,yes,1680
undefined,undefined,NA,NA,NA,11202,11202,black,no,legacy,legacy,legacy,0,red,"(177, 0, 0)",shape,present,lowProb6,circular,swap,swap,swap,swap,red,"(177, 0, 0)",lowProb,lowProb5,rectangular,uniform,1,undefined,0,0.265625,1,1,333.4635417,1,51,64025,0,0,0,0,0,0,0,0,77,0,1,0.265625,333.4635417,51,64025,76,76,76,11/28/2018 13:14,Default description,yes,<openexp._canvas.legacy.Legacy object at 0x054F18D0>,<openexp._canvas.legacy.Legacy object at 0x05509C90>,<openexp._canvas.legacy.Legacy object at 0x054FC650>,<openexp._canvas.legacy.Legacy object at 0x0538A910>,<openexp._canvas.legacy.Legacy object at 0x0537A190>,<openexp._canvas.legacy.Legacy object at 0x054E42B0>,<openexp._canvas.legacy.Legacy object at 0x054FC750>,<openexp._canvas.legacy.Legacy object at 0x054FC090>,75,SpatProbMultiple3.osexp,C:/Userdata/Michel/SpatProbMultiple3,no,mono,no,18,no,white,no,yes,0.09,98,1050,legacy,45,51,51,1,C:/Userdata/Michel/SpatProbMultiple3/beh/subject-19.csv,legacy,9,192,25,Kafkaesque Koffka,3.2.5,yes,598477b2b83f69022949e7e9,47,red,circular,red,rectangular,0,\,1196,space,11202,11202,"(80, 80, 80)","(0, 123, 0)","(177, 0, 0)","(155, 155, 155)",2,legacy,experiment,"[2, 3, 4, 5, 6, 7, 0, 1]",\,2500,3000,0,8,252.7587515,1024,2,48000,-16,main,"[(0, -252), (178, -178), (252, 0), (178, 178), (0, 252), (-178, 178), (-252, 0), (-178, -178)]",[],43,odd,0,NA,540082,645192,645192,423111,422098,2126,458380,458380,2126,2126,434313,787695,2122,645192,786496,785529,785529,NA,957,study_X,0,11202,1,yes,1680
undefined,undefined,NA,NA,NA,11202,11202,black,no,legacy,legacy,legacy,0,red,"(177, 0, 0)",color,present,lowProb1,circular,same,same,swap,swap,green,"(0, 123, 0)",lowProb,lowProb6,circular,uniform,1,undefined,0,0.270833333,1,1,336.6354167,1,52,64634,0,0,0,0,0,0,0,0,78,0,1,0.270833333,336.6354167,52,64634,77,77,77,11/28/2018 13:14,Default description,yes,<openexp._canvas.legacy.Legacy object at 0x054F18D0>,<openexp._canvas.legacy.Legacy object at 0x05509C90>,<openexp._canvas.legacy.Legacy object at 0x054FC650>,<openexp._canvas.legacy.Legacy object at 0x0538A910>,<openexp._canvas.legacy.Legacy object at 0x0537A190>,<openexp._canvas.legacy.Legacy object at 0x054E42B0>,<openexp._canvas.legacy.Legacy object at 0x05519810>,<openexp._canvas.legacy.Legacy object at 0x054FC090>,75,SpatProbMultiple3.osexp,C:/Userdata/Michel/SpatProbMultiple3,no,mono,no,18,no,white,no,yes,0.09,98,1050,legacy,45,52,52,1,C:/Userdata/Michel/SpatProbMultiple3/beh/subject-19.csv,legacy,9,192,25,Kafkaesque Koffka,3.2.5,yes,598477b2b83f69022949e7e9,47,red,circular,green,circular,0,\,609,space,11202,11202,"(80, 80, 80)","(0, 123, 0)","(177, 0, 0)","(155, 155, 155)",2,legacy,experiment,"[2, 3, 4, 5, 6, 7, 0, 1]",\,2500,3000,0,8,252.7587515,1024,2,48000,-16,main,"[(0, -252), (178, -178), (252, 0), (178, 178), (0, 252), (-178, 178), (-252, 0), (-178, -178)]",[],43,odd,1,NA,540082,645192,645192,423111,422098,2126,458380,458380,2126,2126,434313,789711,2122,645192,789099,788131,788132,NA,957,study_X,0,11202,1,yes,1680
undefined,undefined,NA,NA,NA,11202,11202,black,no,legacy,legacy,legacy,0,red,"(177, 0, 0)",shape,present,lowProb1,circular,same,same,swap,swap,red,"(177, 0, 0)",lowProb,lowProb4,rectangular,uniform,1,undefined,0,0.276041667,1,1,341.8802083,1,53,65641,0,0,0,0,0,0,0,0,79,0,1,0.276041667,341.8802083,53,65641,78,78,78,11/28/2018 13:14,Default description,yes,<openexp._canvas.legacy.Legacy object at 0x054F18D0>,<openexp._canvas.legacy.Legacy object at 0x05509C90>,<openexp._canvas.legacy.Legacy object at 0x054FC650>,<openexp._canvas.legacy.Legacy object at 0x0538A910>,<openexp._canvas.legacy.Legacy object at 0x0537A190>,<openexp._canvas.legacy.Legacy object at 0x054E42B0>,<openexp._canvas.legacy.Legacy object at 0x054F15F0>,<openexp._canvas.legacy.Legacy object at 0x054FC090>,75,SpatProbMultiple3.osexp,C:/Userdata/Michel/SpatProbMultiple3,no,mono,no,18,no,white,no,yes,0.09,98,1050,legacy,45,53,53,1,C:/Userdata/Michel/SpatProbMultiple3/beh/subject-19.csv,legacy,9,192,25,Kafkaesque Koffka,3.2.5,yes,598477b2b83f69022949e7e9,47,red,circular,red,rectangular,0,\,1007,space,11202,11202,"(80, 80, 80)","(0, 123, 0)","(177, 0, 0)","(155, 155, 155)",2,legacy,experiment,"[2, 3, 4, 5, 6, 7, 0, 1]",\,2500,3000,0,8,252.7587515,1024,2,48000,-16,main,"[(0, -252), (178, -178), (252, 0), (178, 178), (0, 252), (-178, 178), (-252, 0), (-178, -178)]",[],43,odd,7,NA,540082,645192,645192,423111,422098,2126,458380,458380,2126,2126,434313,792183,2122,645192,791173,790206,790206,NA,957,study_X,0,11202,1,yes,1680
undefined,undefined,NA,NA,NA,11202,11202,black,no,legacy,legacy,legacy,0,red,"(177, 0, 0)",shape,present,lowProb4,circular,same,same,same,same,red,"(177, 0, 0)",lowProb,lowProb2,rectangular,uniform,1,undefined,0,0.28125,1,1,350.4270833,1,54,67282,0,0,0,0,0,0,0,0,80,0,1,0.28125,350.4270833,54,67282,79,79,79,11/28/2018 13:14,Default description,yes,<openexp._canvas.legacy.Legacy object at 0x054F18D0>,<openexp._canvas.legacy.Legacy object at 0x05509C90>,<openexp._canvas.legacy.Legacy object at 0x054FC650>,<openexp._canvas.legacy.Legacy object at 0x0538A910>,<openexp._canvas.legacy.Legacy object at 0x0537A190>,<openexp._canvas.legacy.Legacy object at 0x054E42B0>,<openexp._canvas.legacy.Legacy object at 0x0550FE30>,<openexp._canvas.legacy.Legacy object at 0x054FC090>,75,SpatProbMultiple3.osexp,C:/Userdata/Michel/SpatProbMultiple3,no,mono,no,18,no,white,no,yes,0.09,98,1050,legacy,45,54,54,1,C:/Userdata/Michel/SpatProbMultiple3/beh/subject-19.csv,legacy,9,192,25,Kafkaesque Koffka,3.2.5,yes,598477b2b83f69022949e7e9,47,red,circular,red,rectangular,0,\,1641,space,11202,11202,"(80, 80, 80)","(0, 123, 0)","(177, 0, 0)","(155, 155, 155)",2,legacy,experiment,"[2, 3, 4, 5, 6, 7, 0, 1]",\,2500,3000,0,8,252.7587515,1024,2,48000,-16,main,"[(0, -252), (178, -178), (252, 0), (178, 178), (0, 252), (-178, 178), (-252, 0), (-178, -178)]",[],43,odd,4,NA,540082,645192,645192,423111,422098,2126,458380,458380,2126,2126,434313,795223,2122,645192,793578,792612,792612,NA,957,study_X,0,11202,1,yes,1680
undefined,undefined,NA,NA,NA,11202,11202,black,no,legacy,legacy,legacy,0,green,"(0, 123, 0)",shape,absent,lowProb3,rectangular,swap,swap,swap,same,green,"(0, 123, 0)",lowProb,lowProb4,rectangular,uniform,1,undefined,0,0.286458333,1,1,354.6770833,1,55,68098,0,0,0,0,0,0,0,0,81,0,1,0.286458333,354.6770833,55,68098,80,80,80,11/28/2018 13:14,Default description,yes,<openexp._canvas.legacy.Legacy object at 0x054F18D0>,<openexp._canvas.legacy.Legacy object at 0x05509C90>,<openexp._canvas.legacy.Legacy object at 0x054FC650>,<openexp._canvas.legacy.Legacy object at 0x0538A910>,<openexp._canvas.legacy.Legacy object at 0x0537A190>,<openexp._canvas.legacy.Legacy object at 0x054E42B0>,<openexp._canvas.legacy.Legacy object at 0x054F10B0>,<openexp._canvas.legacy.Legacy object at 0x054FC090>,75,SpatProbMultiple3.osexp,C:/Userdata/Michel/SpatProbMultiple3,no,mono,no,18,no,white,no,yes,0.09,98,1050,legacy,315,55,55,1,C:/Userdata/Michel/SpatProbMultiple3/beh/subject-19.csv,legacy,9,192,25,Kafkaesque Koffka,3.2.5,yes,598477b2b83f69022949e7e9,47,green,rectangular,green,rectangular,0,/,816,space,11202,11202,"(80, 80, 80)","(0, 123, 0)","(177, 0, 0)","(155, 155, 155)",2,legacy,experiment,"[2, 3, 4, 5, 6, 7, 0, 1]",/,2500,3000,0,8,252.7587515,1024,2,48000,-16,main,"[(0, -252), (178, -178), (252, 0), (178, 178), (0, 252), (-178, 178), (-252, 0), (-178, -178)]",[],43,odd,7,NA,540082,645192,645192,423111,422098,2126,458380,458380,2126,2126,434313,797455,2122,645192,796635,795669,795669,NA,957,study_X,0,11202,1,yes,1680
undefined,undefined,NA,NA,NA,11202,11202,black,no,legacy,legacy,legacy,0,red,"(177, 0, 0)",shape,present,highProb,circular,swap,swap,swap,same,red,"(177, 0, 0)",lowProb,lowProb4,rectangular,uniform,1,undefined,0,0.291666667,1,1,365.2708333,1,56,70132,0,0,0,0,0,0,0,0,82,0,1,0.291666667,365.2708333,56,70132,81,81,81,11/28/2018 13:14,Default description,yes,<openexp._canvas.legacy.Legacy object at 0x054F18D0>,<openexp._canvas.legacy.Legacy object at 0x05509C90>,<openexp._canvas.legacy.Legacy object at 0x054FC650>,<openexp._canvas.legacy.Legacy object at 0x0538A910>,<openexp._canvas.legacy.Legacy object at 0x0537A190>,<openexp._canvas.legacy.Legacy object at 0x054E42B0>,<openexp._canvas.legacy.Legacy object at 0x054B2730>,<openexp._canvas.legacy.Legacy object at 0x054FC090>,75,SpatProbMultiple3.osexp,C:/Userdata/Michel/SpatProbMultiple3,no,mono,no,18,no,white,no,yes,0.09,98,1050,legacy,315,56,56,1,C:/Userdata/Michel/SpatProbMultiple3/beh/subject-19.csv,legacy,9,192,25,Kafkaesque Koffka,3.2.5,yes,598477b2b83f69022949e7e9,47,red,circular,red,rectangular,0,/,2034,space,11202,11202,"(80, 80, 80)","(0, 123, 0)","(177, 0, 0)","(155, 155, 155)",2,legacy,experiment,"[2, 3, 4, 5, 6, 7, 0, 1]",/,2500,3000,0,8,252.7587515,1024,2,48000,-16,main,"[(0, -252), (178, -178), (252, 0), (178, 178), (0, 252), (-178, 178), (-252, 0), (-178, -178)]",[],43,odd,7,NA,540082,645192,645192,423111,422098,2126,458380,458380,2126,2126,434313,800886,2122,645192,798849,797882,797882,NA,957,study_X,0,11202,1,yes,1680
undefined,undefined,NA,NA,NA,11202,11202,black,no,legacy,legacy,legacy,0,red,"(177, 0, 0)",color,present,lowProb5,rectangular,same,swap,swap,same,green,"(0, 123, 0)",highProbShape,highProbShape,rectangular,uniform,1,undefined,0,0.296875,1,1,371.125,1,57,71256,0,0,0,0,0,0,0,0,83,0,1,0.296875,371.125,57,71256,82,82,82,11/28/2018 13:14,Default description,yes,<openexp._canvas.legacy.Legacy object at 0x054F18D0>,<openexp._canvas.legacy.Legacy object at 0x05509C90>,<openexp._canvas.legacy.Legacy object at 0x054FC650>,<openexp._canvas.legacy.Legacy object at 0x0538A910>,<openexp._canvas.legacy.Legacy object at 0x0537A190>,<openexp._canvas.legacy.Legacy object at 0x054E42B0>,<openexp._canvas.legacy.Legacy object at 0x05545B30>,<openexp._canvas.legacy.Legacy object at 0x054FC090>,75,SpatProbMultiple3.osexp,C:/Userdata/Michel/SpatProbMultiple3,no,mono,no,18,no,white,no,yes,0.09,98,1050,legacy,315,57,57,1,C:/Userdata/Michel/SpatProbMultiple3/beh/subject-19.csv,legacy,9,192,25,Kafkaesque Koffka,3.2.5,yes,598477b2b83f69022949e7e9,47,red,rectangular,green,rectangular,0,/,1124,space,11202,11202,"(80, 80, 80)","(0, 123, 0)","(177, 0, 0)","(155, 155, 155)",2,legacy,experiment,"[2, 3, 4, 5, 6, 7, 0, 1]",/,2500,3000,0,8,252.7587515,1024,2,48000,-16,main,"[(0, -252), (178, -178), (252, 0), (178, 178), (0, 252), (-178, 178), (-252, 0), (-178, -178)]",[],43,odd,6,NA,540082,645192,645192,423111,422098,2126,458380,458380,2126,2126,434313,803430,2122,645192,802303,801336,801336,NA,957,study_X,0,11202,1,yes,1680
undefined,undefined,NA,NA,NA,11202,11202,black,no,legacy,legacy,legacy,0,red,"(177, 0, 0)",color,absent,lowProb1,rectangular,same,same,swap,same,red,"(177, 0, 0)",lowProb,lowProb5,rectangular,uniform,1,undefined,0,0.302083333,1,1,374.1822917,1,58,71843,0,0,0,0,0,0,0,0,84,0,1,0.302083333,374.1822917,58,71843,83,83,83,11/28/2018 13:14,Default description,yes,<openexp._canvas.legacy.Legacy object at 0x054F18D0>,<openexp._canvas.legacy.Legacy object at 0x05509C90>,<openexp._canvas.legacy.Legacy object at 0x054FC650>,<openexp._canvas.legacy.Legacy object at 0x0538A910>,<openexp._canvas.legacy.Legacy object at 0x0537A190>,<openexp._canvas.legacy.Legacy object at 0x054E42B0>,<openexp._canvas.legacy.Legacy object at 0x055096D0>,<openexp._canvas.legacy.Legacy object at 0x054FC090>,75,SpatProbMultiple3.osexp,C:/Userdata/Michel/SpatProbMultiple3,no,mono,no,18,no,white,no,yes,0.09,98,1050,legacy,45,58,58,1,C:/Userdata/Michel/SpatProbMultiple3/beh/subject-19.csv,legacy,9,192,25,Kafkaesque Koffka,3.2.5,yes,598477b2b83f69022949e7e9,47,red,rectangular,red,rectangular,0,\,587,space,11202,11202,"(80, 80, 80)","(0, 123, 0)","(177, 0, 0)","(155, 155, 155)",2,legacy,experiment,"[2, 3, 4, 5, 6, 7, 0, 1]",\,2500,3000,0,8,252.7587515,1024,2,48000,-16,main,"[(0, -252), (178, -178), (252, 0), (178, 178), (0, 252), (-178, 178), (-252, 0), (-178, -178)]",[],43,odd,0,NA,540082,645192,645192,423111,422098,2126,458380,458380,2126,2126,434313,805415,2122,645192,804825,803858,803858,NA,957,study_X,0,11202,1,yes,1680
undefined,undefined,NA,NA,NA,11202,11202,black,no,legacy,legacy,legacy,0,green,"(0, 123, 0)",color,present,highProb,circular,swap,swap,same,swap,red,"(177, 0, 0)",lowProb,lowProb1,circular,uniform,1,undefined,0,0.307291667,1,1,382.7447917,1,59,73487,0,0,0,0,0,0,0,0,85,0,1,0.307291667,382.7447917,59,73487,84,84,84,11/28/2018 13:14,Default description,yes,<openexp._canvas.legacy.Legacy object at 0x054F18D0>,<openexp._canvas.legacy.Legacy object at 0x05509C90>,<openexp._canvas.legacy.Legacy object at 0x054FC650>,<openexp._canvas.legacy.Legacy object at 0x0538A910>,<openexp._canvas.legacy.Legacy object at 0x0537A190>,<openexp._canvas.legacy.Legacy object at 0x054E42B0>,<openexp._canvas.legacy.Legacy object at 0x0554DA30>,<openexp._canvas.legacy.Legacy object at 0x054FC090>,75,SpatProbMultiple3.osexp,C:/Userdata/Michel/SpatProbMultiple3,no,mono,no,18,no,white,no,yes,0.09,98,1050,legacy,315,59,59,1,C:/Userdata/Michel/SpatProbMultiple3/beh/subject-19.csv,legacy,9,192,25,Kafkaesque Koffka,3.2.5,yes,598477b2b83f69022949e7e9,47,green,circular,red,circular,0,/,1644,space,11202,11202,"(80, 80, 80)","(0, 123, 0)","(177, 0, 0)","(155, 155, 155)",2,legacy,experiment,"[2, 3, 4, 5, 6, 7, 0, 1]",/,2500,3000,0,8,252.7587515,1024,2,48000,-16,main,"[(0, -252), (178, -178), (252, 0), (178, 178), (0, 252), (-178, 178), (-252, 0), (-178, -178)]",[],43,odd,3,NA,540082,645192,645192,423111,422098,2126,458380,458380,2126,2126,434313,808463,2122,645192,806815,805848,805848,NA,957,study_X,0,11202,1,yes,1680
undefined,undefined,NA,NA,NA,11202,11202,black,no,legacy,legacy,legacy,0,red,"(177, 0, 0)",shape,present,highProb,rectangular,swap,swap,same,same,red,"(177, 0, 0)",lowProb,lowProb2,circular,uniform,1,undefined,0,0.3125,1,1,388.140625,1,60,74523,0,0,0,0,0,0,0,0,86,0,1,0.3125,388.140625,60,74523,85,85,85,11/28/2018 13:14,Default description,yes,<openexp._canvas.legacy.Legacy object at 0x054F18D0>,<openexp._canvas.legacy.Legacy object at 0x05509C90>,<openexp._canvas.legacy.Legacy object at 0x054FC650>,<openexp._canvas.legacy.Legacy object at 0x0538A910>,<openexp._canvas.legacy.Legacy object at 0x0537A190>,<openexp._canvas.legacy.Legacy object at 0x054E42B0>,<openexp._canvas.legacy.Legacy object at 0x05516B10>,<openexp._canvas.legacy.Legacy object at 0x054FC090>,75,SpatProbMultiple3.osexp,C:/Userdata/Michel/SpatProbMultiple3,no,mono,no,18,no,white,no,yes,0.09,98,1050,legacy,315,60,60,1,C:/Userdata/Michel/SpatProbMultiple3/beh/subject-19.csv,legacy,9,192,25,Kafkaesque Koffka,3.2.5,yes,598477b2b83f69022949e7e9,47,red,rectangular,red,circular,0,/,1036,space,11202,11202,"(80, 80, 80)","(0, 123, 0)","(177, 0, 0)","(155, 155, 155)",2,legacy,experiment,"[2, 3, 4, 5, 6, 7, 0, 1]",/,2500,3000,0,8,252.7587515,1024,2,48000,-16,main,"[(0, -252), (178, -178), (252, 0), (178, 178), (0, 252), (-178, 178), (-252, 0), (-178, -178)]",[],43,odd,4,NA,540082,645192,645192,423111,422098,2126,458380,458380,2126,2126,434313,810903,2122,645192,809863,808896,808896,NA,957,study_X,0,11202,1,yes,1680
undefined,undefined,NA,NA,NA,11202,11202,black,no,legacy,legacy,legacy,0,green,"(0, 123, 0)",shape,absent,lowProb4,circular,swap,swap,swap,same,green,"(0, 123, 0)",highProbShape,highProbShape,circular,uniform,0,undefined,0,0.3125,1,1,392.28125,1,60,75318,0,0,0,0,0,0,0,0,87,0,1,0.3125,392.28125,60,75318,86,86,86,11/28/2018 13:14,Default description,yes,<openexp._canvas.legacy.Legacy object at 0x054F18D0>,<openexp._canvas.legacy.Legacy object at 0x05509C90>,<openexp._canvas.legacy.Legacy object at 0x054FC650>,<openexp._canvas.legacy.Legacy object at 0x0538A910>,<openexp._canvas.legacy.Legacy object at 0x0537A190>,<openexp._canvas.legacy.Legacy object at 0x054E42B0>,<openexp._canvas.legacy.Legacy object at 0x0552EA50>,<openexp._canvas.legacy.Legacy object at 0x054FC090>,75,SpatProbMultiple3.osexp,C:/Userdata/Michel/SpatProbMultiple3,no,mono,no,18,no,white,no,yes,0.09,98,1050,legacy,315,61,61,1,C:/Userdata/Michel/SpatProbMultiple3/beh/subject-19.csv,legacy,9,192,25,Kafkaesque Koffka,3.2.5,yes,598477b2b83f69022949e7e9,47,green,circular,green,circular,0,\,795,space,11202,11202,"(80, 80, 80)","(0, 123, 0)","(177, 0, 0)","(155, 155, 155)",2,legacy,experiment,"[2, 3, 4, 5, 6, 7, 0, 1]",/,2500,3000,0,8,252.7587515,1024,2,48000,-16,main,"[(0, -252), (178, -178), (252, 0), (178, 178), (0, 252), (-178, 178), (-252, 0), (-178, -178)]",[],43,odd,6,NA,540082,645192,645192,423111,422098,2126,458380,458380,2126,2126,434313,813127,2122,645192,812328,811361,811361,NA,957,study_X,0,11202,1,yes,1680
undefined,undefined,NA,NA,NA,11202,11202,black,no,legacy,legacy,legacy,0,red,"(177, 0, 0)",color,present,highProb,circular,swap,same,same,same,green,"(0, 123, 0)",lowProb,lowProb1,circular,uniform,1,undefined,0,0.317708333,1,1,397.2864583,1,61,76279,0,0,0,0,0,0,0,0,88,0,1,0.317708333,397.2864583,61,76279,87,87,87,11/28/2018 13:14,Default description,yes,<openexp._canvas.legacy.Legacy object at 0x054F18D0>,<openexp._canvas.legacy.Legacy object at 0x05509C90>,<openexp._canvas.legacy.Legacy object at 0x054FC650>,<openexp._canvas.legacy.Legacy object at 0x0538A910>,<openexp._canvas.legacy.Legacy object at 0x0537A190>,<openexp._canvas.legacy.Legacy object at 0x054E42B0>,<openexp._canvas.legacy.Legacy object at 0x05545870>,<openexp._canvas.legacy.Legacy object at 0x054FC090>,75,SpatProbMultiple3.osexp,C:/Userdata/Michel/SpatProbMultiple3,no,mono,no,18,no,white,no,yes,0.09,98,1050,legacy,315,62,62,1,C:/Userdata/Michel/SpatProbMultiple3/beh/subject-19.csv,legacy,9,192,25,Kafkaesque Koffka,3.2.5,yes,598477b2b83f69022949e7e9,47,red,circular,green,circular,0,/,961,space,11202,11202,"(80, 80, 80)","(0, 123, 0)","(177, 0, 0)","(155, 155, 155)",2,legacy,experiment,"[2, 3, 4, 5, 6, 7, 0, 1]",/,2500,3000,0,8,252.7587515,1024,2,48000,-16,main,"[(0, -252), (178, -178), (252, 0), (178, 178), (0, 252), (-178, 178), (-252, 0), (-178, -178)]",[],43,odd,3,NA,540082,645192,645192,423111,422098,2126,458380,458380,2126,2126,434313,815486,2122,645192,814522,813554,813555,NA,957,study_X,0,11202,1,yes,1680
undefined,undefined,NA,NA,NA,11202,11202,black,no,legacy,legacy,legacy,0,green,"(0, 123, 0)",color,present,highProb,rectangular,swap,swap,swap,swap,red,"(177, 0, 0)",highProbShape,highProbShape,rectangular,uniform,1,undefined,0,0.322916667,1,1,400.8229167,1,62,76958,0,0,0,0,0,0,0,0,89,0,1,0.322916667,400.8229167,62,76958,88,88,88,11/28/2018 13:14,Default description,yes,<openexp._canvas.legacy.Legacy object at 0x054F18D0>,<openexp._canvas.legacy.Legacy object at 0x05509C90>,<openexp._canvas.legacy.Legacy object at 0x054FC650>,<openexp._canvas.legacy.Legacy object at 0x0538A910>,<openexp._canvas.legacy.Legacy object at 0x0537A190>,<openexp._canvas.legacy.Legacy object at 0x054E42B0>,<openexp._canvas.legacy.Legacy object at 0x05509630>,<openexp._canvas.legacy.Legacy object at 0x054FC090>,75,SpatProbMultiple3.osexp,C:/Userdata/Michel/SpatProbMultiple3,no,mono,no,18,no,white,no,yes,0.09,98,1050,legacy,315,63,63,1,C:/Userdata/Michel/SpatProbMultiple3/beh/subject-19.csv,legacy,9,192,25,Kafkaesque Koffka,3.2.5,yes,598477b2b83f69022949e7e9,47,green,rectangular,red,rectangular,0,/,679,space,11202,11202,"(80, 80, 80)","(0, 123, 0)","(177, 0, 0)","(155, 155, 155)",2,legacy,experiment,"[2, 3, 4, 5, 6, 7, 0, 1]",/,2500,3000,0,8,252.7587515,1024,2,48000,-16,main,"[(0, -252), (178, -178), (252, 0), (178, 178), (0, 252), (-178, 178), (-252, 0), (-178, -178)]",[],43,odd,6,NA,540082,645192,645192,423111,422098,2126,458380,458380,2126,2126,434313,817574,2122,645192,816892,815925,815925,NA,957,study_X,0,11202,1,yes,1680
