"acc","accuracy","answerQ1","answerQ2","answerQ3","average_response_time","avg_rt","background","bidi","canvas_backend","clock_backend","color_backend","compensation","cond_disColor","cond_disColorRGB","cond_disFeature","cond_disPresent","cond_disProbability","cond_disShape","cond_primingDisColor","cond_primingDisShape","cond_primingTarColor","cond_primingTarShape","cond_tarColor","cond_tarColorRGB","cond_tarLocation","cond_tarLocationLong","cond_tarShape","coordinates","correct","correct_continuePress","count_Questions","count_blockAcc","count_blockFeed","count_blockLoop","count_blockRT","count_blockSeq","count_blockSumCorrect","count_blockSumRT","count_continuePress","count_example","count_expSettings","count_exp_mainLoop","count_experiment","count_instructions","count_instructions1","count_instructions2","count_log","count_main","count_prepCanvas","count_totalAcc","count_totalRT","count_totalSumCorrect","count_totalSumRT","count_trialResp","count_trialSeq","count_trialTask","datetime","description","disable_garbage_collection","dispBlank","dispBlockStart","dispFeedBlock","dispFix","dispInstructions","dispQuestions","dispSearch","dispStartScreen","distance2screen","experiment_file","experiment_path","font_bold","font_family","font_italic","font_size","font_underline","foreground","form_clicks","fullscreen","gaborFreq","gaborSize","height","keyboard_backend","lineOriTar","live_row","live_row_blockLoop","live_row_exp_mainLoop","logfile","mouse_backend","noExpBlocks","noExpTrials","noPracTrials","opensesame_codename","opensesame_version","osf_always_upload_experiment","osf_id","physical_screensize","previousDisColor","previousDisShape","previousTarColor","previousTarShape","repeat_cycle","response","responseTime","response_continuePress","response_time","response_time_continuePress","rgb_gray","rgb_green","rgb_red","rgb_white","round_decimals","sampler_backend","set_blockType","set_counterPositions","set_respCorrect","set_respTimeoutExp","set_respTimeoutPrac","set_rotation","set_setSize","sizeImaginary","sound_buf_size","sound_channels","sound_freq","sound_sample_size","start","stimPositions","stimuli","subject_nr","subject_parity","tarIdx","time_Questions","time_blockFeed","time_blockLoop","time_blockSeq","time_continuePress","time_example","time_expSettings","time_exp_mainLoop","time_experiment","time_instructions","time_instructions1","time_instructions2","time_log","time_main","time_prepCanvas","time_trialResp","time_trialSeq","time_trialTask","timing_EEGwait","timing_fix","title","total_correct","total_response_time","total_responses","uniform_coordinates","width"
"undefined","undefined","NA","NA","NA","14099","14099","black","no","legacy","legacy","legacy","0","red","(177, 0, 0)","color","present","highProb","circular","swap","swap","swap","swap","green","(0, 123, 0)","lowProb","lowProb3","circular","uniform","0","undefined","0","0","1","1","9.19791666667","1","0","1766","0","0","0","0","0","0","0","0","26","0","1","0","9.19791666667","0","1766","25","25","25","12/03/18 13:32:32","Default description","yes","<openexp._canvas.legacy.Legacy object at 0x054F07F0>","<openexp._canvas.legacy.Legacy object at 0x05544750>","<openexp._canvas.legacy.Legacy object at 0x054EC7D0>","<openexp._canvas.legacy.Legacy object at 0x054FB350>","<openexp._canvas.legacy.Legacy object at 0x05368190>","<openexp._canvas.legacy.Legacy object at 0x054E4270>","<openexp._canvas.legacy.Legacy object at 0x054FB7F0>","<openexp._canvas.legacy.Legacy object at 0x05378910>","75","SpatProbMultiple3.osexp","C:/Userdata/Michel/SpatProbMultiple3","no","mono","no","18","no","white","no","yes","0.09","98","1050","legacy","45","0","0","1","C:/Userdata/Michel/SpatProbMultiple3/beh/subject-47.csv","legacy","9","192","25","Kafkaesque Koffka","3.2.5","yes","598477b2b83f69022949e7e9","47","red","circular","green","circular","0","/","1766","space","14099","14099","(80, 80, 80)","(0, 123, 0)","(177, 0, 0)","(155, 155, 155)","2","legacy","experiment","[6, 7, 0, 1, 2, 3, 4, 5]","\","2500","3000","0","8","252.758751519","1024","2","48000","-16","main","[(0, -252), (178, -178), (252, 0), (178, 178), (0, 252), (-178, 178), (-252, 0), (-178, -178)]","[]","47","odd","1","NA","656148","782735","782735","432664","431652","2495","575350","575350","2495","2495","446764","790810","2495","782735","789041","783143","783143","NA","736","study_X","0","14099","1","yes","1680"
"undefined","undefined","NA","NA","NA","14099","14099","black","no","legacy","legacy","legacy","0","green","(0, 123, 0)","shape","present","lowProb3","rectangular","swap","swap","same","same","green","(0, 123, 0)","lowProb","lowProb5","circular","uniform","0","undefined","0","0","1","1","22.21875","1","0","4266","0","0","0","0","0","0","0","0","27","0","1","0","22.21875","0","4266","26","26","26","12/03/18 13:32:32","Default description","yes","<openexp._canvas.legacy.Legacy object at 0x054F07F0>","<openexp._canvas.legacy.Legacy object at 0x05544750>","<openexp._canvas.legacy.Legacy object at 0x054EC7D0>","<openexp._canvas.legacy.Legacy object at 0x054FB350>","<openexp._canvas.legacy.Legacy object at 0x05368190>","<openexp._canvas.legacy.Legacy object at 0x054E4270>","<openexp._canvas.legacy.Legacy object at 0x0551A1B0>","<openexp._canvas.legacy.Legacy object at 0x05378910>","75","SpatProbMultiple3.osexp","C:/Userdata/Michel/SpatProbMultiple3","no","mono","no","18","no","white","no","yes","0.09","98","1050","legacy","315","1","1","1","C:/Userdata/Michel/SpatProbMultiple3/beh/subject-47.csv","legacy","9","192","25","Kafkaesque Koffka","3.2.5","yes","598477b2b83f69022949e7e9","47","green","rectangular","green","circular","0","None","2500","space","14099","14099","(80, 80, 80)","(0, 123, 0)","(177, 0, 0)","(155, 155, 155)","2","legacy","experiment","[6, 7, 0, 1, 2, 3, 4, 5]","/","2500","3000","0","8","252.758751519","1024","2","48000","-16","main","[(0, -252), (178, -178), (252, 0), (178, 178), (0, 252), (-178, 178), (-252, 0), (-178, -178)]","[]","47","odd","4","NA","656148","782735","782735","432664","431652","2495","575350","575350","2495","2495","446764","794512","2495","782735","792010","791264","791264","NA","736","study_X","0","14099","1","yes","1680"
"undefined","undefined","NA","NA","NA","14099","14099","black","no","legacy","legacy","legacy","0","green","(0, 123, 0)","color","present","lowProb1","rectangular","same","same","swap","swap","red","(177, 0, 0)","highProbShape","highProbShape","rectangular","uniform","1","undefined","0","0.00520833333333","1","1","27.5885416667","1","1","5297","0","0","0","0","0","0","0","0","28","0","1","0.00520833333333","27.5885416667","1","5297","27","27","27","12/03/18 13:32:32","Default description","yes","<openexp._canvas.legacy.Legacy object at 0x054F07F0>","<openexp._canvas.legacy.Legacy object at 0x05544750>","<openexp._canvas.legacy.Legacy object at 0x054EC7D0>","<openexp._canvas.legacy.Legacy object at 0x054FB350>","<openexp._canvas.legacy.Legacy object at 0x05368190>","<openexp._canvas.legacy.Legacy object at 0x054E4270>","<openexp._canvas.legacy.Legacy object at 0x05507150>","<openexp._canvas.legacy.Legacy object at 0x05378910>","75","SpatProbMultiple3.osexp","C:/Userdata/Michel/SpatProbMultiple3","no","mono","no","18","no","white","no","yes","0.09","98","1050","legacy","45","2","2","1","C:/Userdata/Michel/SpatProbMultiple3/beh/subject-47.csv","legacy","9","192","25","Kafkaesque Koffka","3.2.5","yes","598477b2b83f69022949e7e9","47","green","rectangular","red","rectangular","0","\","1031","space","14099","14099","(80, 80, 80)","(0, 123, 0)","(177, 0, 0)","(155, 155, 155)","2","legacy","experiment","[6, 7, 0, 1, 2, 3, 4, 5]","\","2500","3000","0","8","252.758751519","1024","2","48000","-16","main","[(0, -252), (178, -178), (252, 0), (178, 178), (0, 252), (-178, 178), (-252, 0), (-178, -178)]","[]","47","odd","2","NA","656148","782735","782735","432664","431652","2495","575350","575350","2495","2495","446764","796721","2495","782735","795688","794943","794943","NA","736","study_X","0","14099","1","yes","1680"
"undefined","undefined","NA","NA","NA","14099","14099","black","no","legacy","legacy","legacy","0","red","(177, 0, 0)","color","present","highProb","circular","swap","swap","swap","swap","green","(0, 123, 0)","lowProb","lowProb4","circular","uniform","1","undefined","0","0.0104166666667","1","1","34.59375","1","2","6642","0","0","0","0","0","0","0","0","29","0","1","0.0104166666667","34.59375","2","6642","28","28","28","12/03/18 13:32:32","Default description","yes","<openexp._canvas.legacy.Legacy object at 0x054F07F0>","<openexp._canvas.legacy.Legacy object at 0x05544750>","<openexp._canvas.legacy.Legacy object at 0x054EC7D0>","<openexp._canvas.legacy.Legacy object at 0x054FB350>","<openexp._canvas.legacy.Legacy object at 0x05368190>","<openexp._canvas.legacy.Legacy object at 0x054E4270>","<openexp._canvas.legacy.Legacy object at 0x054F0F50>","<openexp._canvas.legacy.Legacy object at 0x05378910>","75","SpatProbMultiple3.osexp","C:/Userdata/Michel/SpatProbMultiple3","no","mono","no","18","no","white","no","yes","0.09","98","1050","legacy","315","3","3","1","C:/Userdata/Michel/SpatProbMultiple3/beh/subject-47.csv","legacy","9","192","25","Kafkaesque Koffka","3.2.5","yes","598477b2b83f69022949e7e9","47","red","circular","green","circular","0","/","1345","space","14099","14099","(80, 80, 80)","(0, 123, 0)","(177, 0, 0)","(155, 155, 155)","2","legacy","experiment","[6, 7, 0, 1, 2, 3, 4, 5]","/","2500","3000","0","8","252.758751519","1024","2","48000","-16","main","[(0, -252), (178, -178), (252, 0), (178, 178), (0, 252), (-178, 178), (-252, 0), (-178, -178)]","[]","47","odd","3","NA","656148","782735","782735","432664","431652","2495","575350","575350","2495","2495","446764","799241","2495","782735","797894","797148","797148","NA","736","study_X","0","14099","1","yes","1680"
"undefined","undefined","NA","NA","NA","14099","14099","black","no","legacy","legacy","legacy","0","red","(177, 0, 0)","color","present","highProb","circular","same","same","same","same","green","(0, 123, 0)","lowProb","lowProb2","circular","uniform","1","undefined","0","0.015625","1","1","47.2083333333","1","3","9064","0","0","0","0","0","0","0","0","30","0","1","0.015625","47.2083333333","3","9064","29","29","29","12/03/18 13:32:32","Default description","yes","<openexp._canvas.legacy.Legacy object at 0x054F07F0>","<openexp._canvas.legacy.Legacy object at 0x05544750>","<openexp._canvas.legacy.Legacy object at 0x054EC7D0>","<openexp._canvas.legacy.Legacy object at 0x054FB350>","<openexp._canvas.legacy.Legacy object at 0x05368190>","<openexp._canvas.legacy.Legacy object at 0x054E4270>","<openexp._canvas.legacy.Legacy object at 0x0551AA10>","<openexp._canvas.legacy.Legacy object at 0x05378910>","75","SpatProbMultiple3.osexp","C:/Userdata/Michel/SpatProbMultiple3","no","mono","no","18","no","white","no","yes","0.09","98","1050","legacy","315","4","4","1","C:/Userdata/Michel/SpatProbMultiple3/beh/subject-47.csv","legacy","9","192","25","Kafkaesque Koffka","3.2.5","yes","598477b2b83f69022949e7e9","47","red","circular","green","circular","0","/","2422","space","14099","14099","(80, 80, 80)","(0, 123, 0)","(177, 0, 0)","(155, 155, 155)","2","legacy","experiment","[6, 7, 0, 1, 2, 3, 4, 5]","/","2500","3000","0","8","252.758751519","1024","2","48000","-16","main","[(0, -252), (178, -178), (252, 0), (178, 178), (0, 252), (-178, 178), (-252, 0), (-178, -178)]","[]","47","odd","0","NA","656148","782735","782735","432664","431652","2495","575350","575350","2495","2495","446764","802865","2495","782735","800441","799695","799695","NA","736","study_X","0","14099","1","yes","1680"
"undefined","undefined","NA","NA","NA","14099","14099","black","no","legacy","legacy","legacy","0","green","(0, 123, 0)","shape","present","lowProb6","rectangular","swap","swap","same","same","green","(0, 123, 0)","highProbColor","highProbColor","circular","uniform","1","undefined","0","0.0208333333333","1","1","55.8385416667","1","4","10721","0","0","0","0","0","0","0","0","31","0","1","0.0208333333333","55.8385416667","4","10721","30","30","30","12/03/18 13:32:32","Default description","yes","<openexp._canvas.legacy.Legacy object at 0x054F07F0>","<openexp._canvas.legacy.Legacy object at 0x05544750>","<openexp._canvas.legacy.Legacy object at 0x054EC7D0>","<openexp._canvas.legacy.Legacy object at 0x054FB350>","<openexp._canvas.legacy.Legacy object at 0x05368190>","<openexp._canvas.legacy.Legacy object at 0x054E4270>","<openexp._canvas.legacy.Legacy object at 0x055077B0>","<openexp._canvas.legacy.Legacy object at 0x05378910>","75","SpatProbMultiple3.osexp","C:/Userdata/Michel/SpatProbMultiple3","no","mono","no","18","no","white","no","yes","0.09","98","1050","legacy","45","5","5","1","C:/Userdata/Michel/SpatProbMultiple3/beh/subject-47.csv","legacy","9","192","25","Kafkaesque Koffka","3.2.5","yes","598477b2b83f69022949e7e9","47","green","rectangular","green","circular","0","\","1657","space","14099","14099","(80, 80, 80)","(0, 123, 0)","(177, 0, 0)","(155, 155, 155)","2","legacy","experiment","[6, 7, 0, 1, 2, 3, 4, 5]","\","2500","3000","0","8","252.758751519","1024","2","48000","-16","main","[(0, -252), (178, -178), (252, 0), (178, 178), (0, 252), (-178, 178), (-252, 0), (-178, -178)]","[]","47","odd","6","NA","656148","782735","782735","432664","431652","2495","575350","575350","2495","2495","446764","805714","2495","782735","804054","803308","803308","NA","736","study_X","0","14099","1","yes","1680"
"undefined","undefined","NA","NA","NA","14099","14099","black","no","legacy","legacy","legacy","0","red","(177, 0, 0)","shape","present","lowProb4","rectangular","swap","same","swap","same","red","(177, 0, 0)","lowProb","lowProb3","circular","uniform","1","undefined","0","0.0260416666667","1","1","60.2447916667","1","5","11567","0","0","0","0","0","0","0","0","32","0","1","0.0260416666667","60.2447916667","5","11567","31","31","31","12/03/18 13:32:32","Default description","yes","<openexp._canvas.legacy.Legacy object at 0x054F07F0>","<openexp._canvas.legacy.Legacy object at 0x05544750>","<openexp._canvas.legacy.Legacy object at 0x054EC7D0>","<openexp._canvas.legacy.Legacy object at 0x054FB350>","<openexp._canvas.legacy.Legacy object at 0x05368190>","<openexp._canvas.legacy.Legacy object at 0x054E4270>","<openexp._canvas.legacy.Legacy object at 0x0537D890>","<openexp._canvas.legacy.Legacy object at 0x05378910>","75","SpatProbMultiple3.osexp","C:/Userdata/Michel/SpatProbMultiple3","no","mono","no","18","no","white","no","yes","0.09","98","1050","legacy","45","6","6","1","C:/Userdata/Michel/SpatProbMultiple3/beh/subject-47.csv","legacy","9","192","25","Kafkaesque Koffka","3.2.5","yes","598477b2b83f69022949e7e9","47","red","rectangular","red","circular","0","\","846","space","14099","14099","(80, 80, 80)","(0, 123, 0)","(177, 0, 0)","(155, 155, 155)","2","legacy","experiment","[6, 7, 0, 1, 2, 3, 4, 5]","\","2500","3000","0","8","252.758751519","1024","2","48000","-16","main","[(0, -252), (178, -178), (252, 0), (178, 178), (0, 252), (-178, 178), (-252, 0), (-178, -178)]","[]","47","odd","1","NA","656148","782735","782735","432664","431652","2495","575350","575350","2495","2495","446764","807746","2495","782735","806897","806151","806151","NA","736","study_X","0","14099","1","yes","1680"
"undefined","undefined","NA","NA","NA","14099","14099","black","no","legacy","legacy","legacy","0","green","(0, 123, 0)","color","present","highProbOther","rectangular","swap","same","same","swap","red","(177, 0, 0)","lowProb","lowProb5","rectangular","uniform","1","undefined","0","0.03125","1","1","66.9739583333","1","6","12859","0","0","0","0","0","0","0","0","33","0","1","0.03125","66.9739583333","6","12859","32","32","32","12/03/18 13:32:32","Default description","yes","<openexp._canvas.legacy.Legacy object at 0x054F07F0>","<openexp._canvas.legacy.Legacy object at 0x05544750>","<openexp._canvas.legacy.Legacy object at 0x054EC7D0>","<openexp._canvas.legacy.Legacy object at 0x054FB350>","<openexp._canvas.legacy.Legacy object at 0x05368190>","<openexp._canvas.legacy.Legacy object at 0x054E4270>","<openexp._canvas.legacy.Legacy object at 0x0551AA10>","<openexp._canvas.legacy.Legacy object at 0x05378910>","75","SpatProbMultiple3.osexp","C:/Userdata/Michel/SpatProbMultiple3","no","mono","no","18","no","white","no","yes","0.09","98","1050","legacy","315","7","7","1","C:/Userdata/Michel/SpatProbMultiple3/beh/subject-47.csv","legacy","9","192","25","Kafkaesque Koffka","3.2.5","yes","598477b2b83f69022949e7e9","47","green","rectangular","red","rectangular","0","/","1292","space","14099","14099","(80, 80, 80)","(0, 123, 0)","(177, 0, 0)","(155, 155, 155)","2","legacy","experiment","[6, 7, 0, 1, 2, 3, 4, 5]","/","2500","3000","0","8","252.758751519","1024","2","48000","-16","main","[(0, -252), (178, -178), (252, 0), (178, 178), (0, 252), (-178, 178), (-252, 0), (-178, -178)]","[]","47","odd","4","NA","656148","782735","782735","432664","431652","2495","575350","575350","2495","2495","446764","810234","2495","782735","808939","808194","808194","NA","736","study_X","0","14099","1","yes","1680"
"undefined","undefined","NA","NA","NA","14099","14099","black","no","legacy","legacy","legacy","0","green","(0, 123, 0)","shape","present","highProbOther","rectangular","same","same","swap","swap","green","(0, 123, 0)","lowProb","lowProb5","circular","uniform","1","undefined","0","0.0364583333333","1","1","77.1302083333","1","7","14809","0","0","0","0","0","0","0","0","34","0","1","0.0364583333333","77.1302083333","7","14809","33","33","33","12/03/18 13:32:32","Default description","yes","<openexp._canvas.legacy.Legacy object at 0x054F07F0>","<openexp._canvas.legacy.Legacy object at 0x05544750>","<openexp._canvas.legacy.Legacy object at 0x054EC7D0>","<openexp._canvas.legacy.Legacy object at 0x054FB350>","<openexp._canvas.legacy.Legacy object at 0x05368190>","<openexp._canvas.legacy.Legacy object at 0x054E4270>","<openexp._canvas.legacy.Legacy object at 0x05378C50>","<openexp._canvas.legacy.Legacy object at 0x05378910>","75","SpatProbMultiple3.osexp","C:/Userdata/Michel/SpatProbMultiple3","no","mono","no","18","no","white","no","yes","0.09","98","1050","legacy","45","8","8","1","C:/Userdata/Michel/SpatProbMultiple3/beh/subject-47.csv","legacy","9","192","25","Kafkaesque Koffka","3.2.5","yes","598477b2b83f69022949e7e9","47","green","rectangular","green","circular","0","\","1950","space","14099","14099","(80, 80, 80)","(0, 123, 0)","(177, 0, 0)","(155, 155, 155)","2","legacy","experiment","[6, 7, 0, 1, 2, 3, 4, 5]","\","2500","3000","0","8","252.758751519","1024","2","48000","-16","main","[(0, -252), (178, -178), (252, 0), (178, 178), (0, 252), (-178, 178), (-252, 0), (-178, -178)]","[]","47","odd","4","NA","656148","782735","782735","432664","431652","2495","575350","575350","2495","2495","446764","813369","2495","782735","811417","810672","810672","NA","736","study_X","0","14099","1","yes","1680"
"undefined","undefined","NA","NA","NA","14099","14099","black","no","legacy","legacy","legacy","0","green","(0, 123, 0)","shape","present","highProb","rectangular","same","same","same","same","green","(0, 123, 0)","lowProb","lowProb6","circular","uniform","1","undefined","0","0.0416666666667","1","1","89.09375","1","8","17106","0","0","0","0","0","0","0","0","35","0","1","0.0416666666667","89.09375","8","17106","34","34","34","12/03/18 13:32:32","Default description","yes","<openexp._canvas.legacy.Legacy object at 0x054F07F0>","<openexp._canvas.legacy.Legacy object at 0x05544750>","<openexp._canvas.legacy.Legacy object at 0x054EC7D0>","<openexp._canvas.legacy.Legacy object at 0x054FB350>","<openexp._canvas.legacy.Legacy object at 0x05368190>","<openexp._canvas.legacy.Legacy object at 0x054E4270>","<openexp._canvas.legacy.Legacy object at 0x05544E30>","<openexp._canvas.legacy.Legacy object at 0x05378910>","75","SpatProbMultiple3.osexp","C:/Userdata/Michel/SpatProbMultiple3","no","mono","no","18","no","white","no","yes","0.09","98","1050","legacy","315","9","9","1","C:/Userdata/Michel/SpatProbMultiple3/beh/subject-47.csv","legacy","9","192","25","Kafkaesque Koffka","3.2.5","yes","598477b2b83f69022949e7e9","47","green","rectangular","green","circular","0","/","2297","space","14099","14099","(80, 80, 80)","(0, 123, 0)","(177, 0, 0)","(155, 155, 155)","2","legacy","experiment","[6, 7, 0, 1, 2, 3, 4, 5]","/","2500","3000","0","8","252.758751519","1024","2","48000","-16","main","[(0, -252), (178, -178), (252, 0), (178, 178), (0, 252), (-178, 178), (-252, 0), (-178, -178)]","[]","47","odd","5","NA","656148","782735","782735","432664","431652","2495","575350","575350","2495","2495","446764","816849","2495","782735","814550","813805","813805","NA","736","study_X","0","14099","1","yes","1680"
"undefined","undefined","NA","NA","NA","14099","14099","black","no","legacy","legacy","legacy","0","red","(177, 0, 0)","color","present","highProb","rectangular","swap","same","same","swap","green","(0, 123, 0)","lowProb","lowProb4","rectangular","uniform","1","undefined","0","0.046875","1","1","94.4322916667","1","9","18131","0","0","0","0","0","0","0","0","36","0","1","0.046875","94.4322916667","9","18131","35","35","35","12/03/18 13:32:32","Default description","yes","<openexp._canvas.legacy.Legacy object at 0x054F07F0>","<openexp._canvas.legacy.Legacy object at 0x05544750>","<openexp._canvas.legacy.Legacy object at 0x054EC7D0>","<openexp._canvas.legacy.Legacy object at 0x054FB350>","<openexp._canvas.legacy.Legacy object at 0x05368190>","<openexp._canvas.legacy.Legacy object at 0x054E4270>","<openexp._canvas.legacy.Legacy object at 0x05516BD0>","<openexp._canvas.legacy.Legacy object at 0x05378910>","75","SpatProbMultiple3.osexp","C:/Userdata/Michel/SpatProbMultiple3","no","mono","no","18","no","white","no","yes","0.09","98","1050","legacy","45","10","10","1","C:/Userdata/Michel/SpatProbMultiple3/beh/subject-47.csv","legacy","9","192","25","Kafkaesque Koffka","3.2.5","yes","598477b2b83f69022949e7e9","47","red","rectangular","green","rectangular","0","\","1025","space","14099","14099","(80, 80, 80)","(0, 123, 0)","(177, 0, 0)","(155, 155, 155)","2","legacy","experiment","[6, 7, 0, 1, 2, 3, 4, 5]","\","2500","3000","0","8","252.758751519","1024","2","48000","-16","main","[(0, -252), (178, -178), (252, 0), (178, 178), (0, 252), (-178, 178), (-252, 0), (-178, -178)]","[]","47","odd","3","NA","656148","782735","782735","432664","431652","2495","575350","575350","2495","2495","446764","819049","2495","782735","818022","817276","817276","NA","736","study_X","0","14099","1","yes","1680"
"undefined","undefined","NA","NA","NA","14099","14099","black","no","legacy","legacy","legacy","0","red","(177, 0, 0)","color","present","highProb","rectangular","same","same","same","same","green","(0, 123, 0)","lowProb","lowProb1","rectangular","uniform","1","undefined","0","0.0520833333333","1","1","100.239583333","1","10","19246","0","0","0","0","0","0","0","0","37","0","1","0.0520833333333","100.239583333","10","19246","36","36","36","12/03/18 13:32:32","Default description","yes","<openexp._canvas.legacy.Legacy object at 0x054F07F0>","<openexp._canvas.legacy.Legacy object at 0x05544750>","<openexp._canvas.legacy.Legacy object at 0x054EC7D0>","<openexp._canvas.legacy.Legacy object at 0x054FB350>","<openexp._canvas.legacy.Legacy object at 0x05368190>","<openexp._canvas.legacy.Legacy object at 0x054E4270>","<openexp._canvas.legacy.Legacy object at 0x05521A50>","<openexp._canvas.legacy.Legacy object at 0x05378910>","75","SpatProbMultiple3.osexp","C:/Userdata/Michel/SpatProbMultiple3","no","mono","no","18","no","white","no","yes","0.09","98","1050","legacy","315","11","11","1","C:/Userdata/Michel/SpatProbMultiple3/beh/subject-47.csv","legacy","9","192","25","Kafkaesque Koffka","3.2.5","yes","598477b2b83f69022949e7e9","47","red","rectangular","green","rectangular","0","/","1115","space","14099","14099","(80, 80, 80)","(0, 123, 0)","(177, 0, 0)","(155, 155, 155)","2","legacy","experiment","[6, 7, 0, 1, 2, 3, 4, 5]","/","2500","3000","0","8","252.758751519","1024","2","48000","-16","main","[(0, -252), (178, -178), (252, 0), (178, 178), (0, 252), (-178, 178), (-252, 0), (-178, -178)]","[]","47","odd","7","NA","656148","782735","782735","432664","431652","2495","575350","575350","2495","2495","446764","821369","2495","782735","820251","819506","819506","NA","736","study_X","0","14099","1","yes","1680"
"undefined","undefined","NA","NA","NA","14099","14099","black","no","legacy","legacy","legacy","0","red","(177, 0, 0)","color","present","lowProb5","circular","same","swap","same","swap","green","(0, 123, 0)","lowProb","lowProb6","circular","uniform","1","undefined","0","0.0572916666667","1","1","108.453125","1","11","20823","0","0","0","0","0","0","0","0","38","0","1","0.0572916666667","108.453125","11","20823","37","37","37","12/03/18 13:32:32","Default description","yes","<openexp._canvas.legacy.Legacy object at 0x054F07F0>","<openexp._canvas.legacy.Legacy object at 0x05544750>","<openexp._canvas.legacy.Legacy object at 0x054EC7D0>","<openexp._canvas.legacy.Legacy object at 0x054FB350>","<openexp._canvas.legacy.Legacy object at 0x05368190>","<openexp._canvas.legacy.Legacy object at 0x054E4270>","<openexp._canvas.legacy.Legacy object at 0x05544390>","<openexp._canvas.legacy.Legacy object at 0x05378910>","75","SpatProbMultiple3.osexp","C:/Userdata/Michel/SpatProbMultiple3","no","mono","no","18","no","white","no","yes","0.09","98","1050","legacy","315","12","12","1","C:/Userdata/Michel/SpatProbMultiple3/beh/subject-47.csv","legacy","9","192","25","Kafkaesque Koffka","3.2.5","yes","598477b2b83f69022949e7e9","47","red","circular","green","circular","0","/","1577","space","14099","14099","(80, 80, 80)","(0, 123, 0)","(177, 0, 0)","(155, 155, 155)","2","legacy","experiment","[6, 7, 0, 1, 2, 3, 4, 5]","/","2500","3000","0","8","252.758751519","1024","2","48000","-16","main","[(0, -252), (178, -178), (252, 0), (178, 178), (0, 252), (-178, 178), (-252, 0), (-178, -178)]","[]","47","odd","5","NA","656148","782735","782735","432664","431652","2495","575350","575350","2495","2495","446764","824138","2495","782735","822558","821812","821812","NA","736","study_X","0","14099","1","yes","1680"
"undefined","undefined","NA","NA","NA","14099","14099","black","no","legacy","legacy","legacy","0","red","(177, 0, 0)","shape","present","lowProb5","rectangular","same","swap","swap","same","red","(177, 0, 0)","highProbColor","highProbColor","circular","uniform","1","undefined","0","0.0625","1","1","114.770833333","1","12","22036","0","0","0","0","0","0","0","0","39","0","1","0.0625","114.770833333","12","22036","38","38","38","12/03/18 13:32:32","Default description","yes","<openexp._canvas.legacy.Legacy object at 0x054F07F0>","<openexp._canvas.legacy.Legacy object at 0x05544750>","<openexp._canvas.legacy.Legacy object at 0x054EC7D0>","<openexp._canvas.legacy.Legacy object at 0x054FB350>","<openexp._canvas.legacy.Legacy object at 0x05368190>","<openexp._canvas.legacy.Legacy object at 0x054E4270>","<openexp._canvas.legacy.Legacy object at 0x0551A8F0>","<openexp._canvas.legacy.Legacy object at 0x05378910>","75","SpatProbMultiple3.osexp","C:/Userdata/Michel/SpatProbMultiple3","no","mono","no","18","no","white","no","yes","0.09","98","1050","legacy","315","13","13","1","C:/Userdata/Michel/SpatProbMultiple3/beh/subject-47.csv","legacy","9","192","25","Kafkaesque Koffka","3.2.5","yes","598477b2b83f69022949e7e9","47","red","rectangular","red","circular","0","/","1213","space","14099","14099","(80, 80, 80)","(0, 123, 0)","(177, 0, 0)","(155, 155, 155)","2","legacy","experiment","[6, 7, 0, 1, 2, 3, 4, 5]","/","2500","3000","0","8","252.758751519","1024","2","48000","-16","main","[(0, -252), (178, -178), (252, 0), (178, 178), (0, 252), (-178, 178), (-252, 0), (-178, -178)]","[]","47","odd","6","NA","656148","782735","782735","432664","431652","2495","575350","575350","2495","2495","446764","826538","2495","782735","825322","824577","824577","NA","736","study_X","0","14099","1","yes","1680"
"undefined","undefined","NA","NA","NA","14099","14099","black","no","legacy","legacy","legacy","0","green","(0, 123, 0)","color","present","lowProb3","rectangular","swap","same","same","swap","red","(177, 0, 0)","lowProb","lowProb1","rectangular","uniform","1","undefined","0","0.0677083333333","1","1","124.625","1","13","23928","0","0","0","0","0","0","0","0","40","0","1","0.0677083333333","124.625","13","23928","39","39","39","12/03/18 13:32:32","Default description","yes","<openexp._canvas.legacy.Legacy object at 0x054F07F0>","<openexp._canvas.legacy.Legacy object at 0x05544750>","<openexp._canvas.legacy.Legacy object at 0x054EC7D0>","<openexp._canvas.legacy.Legacy object at 0x054FB350>","<openexp._canvas.legacy.Legacy object at 0x05368190>","<openexp._canvas.legacy.Legacy object at 0x054E4270>","<openexp._canvas.legacy.Legacy object at 0x05378890>","<openexp._canvas.legacy.Legacy object at 0x05378910>","75","SpatProbMultiple3.osexp","C:/Userdata/Michel/SpatProbMultiple3","no","mono","no","18","no","white","no","yes","0.09","98","1050","legacy","45","14","14","1","C:/Userdata/Michel/SpatProbMultiple3/beh/subject-47.csv","legacy","9","192","25","Kafkaesque Koffka","3.2.5","yes","598477b2b83f69022949e7e9","47","green","rectangular","red","rectangular","0","\","1892","space","14099","14099","(80, 80, 80)","(0, 123, 0)","(177, 0, 0)","(155, 155, 155)","2","legacy","experiment","[6, 7, 0, 1, 2, 3, 4, 5]","\","2500","3000","0","8","252.758751519","1024","2","48000","-16","main","[(0, -252), (178, -178), (252, 0), (178, 178), (0, 252), (-178, 178), (-252, 0), (-178, -178)]","[]","47","odd","7","NA","656148","782735","782735","432664","431652","2495","575350","575350","2495","2495","446764","829593","2495","782735","827699","826955","826955","NA","736","study_X","0","14099","1","yes","1680"
"undefined","undefined","NA","NA","NA","14099","14099","black","no","legacy","legacy","legacy","0","red","(177, 0, 0)","shape","absent","highProbOther","circular","swap","swap","same","swap","red","(177, 0, 0)","highProbColor","highProbColor","circular","uniform","1","undefined","0","0.0729166666667","1","1","129.09375","1","14","24786","0","0","0","0","0","0","0","0","41","0","1","0.0729166666667","129.09375","14","24786","40","40","40","12/03/18 13:32:32","Default description","yes","<openexp._canvas.legacy.Legacy object at 0x054F07F0>","<openexp._canvas.legacy.Legacy object at 0x05544750>","<openexp._canvas.legacy.Legacy object at 0x054EC7D0>","<openexp._canvas.legacy.Legacy object at 0x054FB350>","<openexp._canvas.legacy.Legacy object at 0x05368190>","<openexp._canvas.legacy.Legacy object at 0x054E4270>","<openexp._canvas.legacy.Legacy object at 0x05544A50>","<openexp._canvas.legacy.Legacy object at 0x05378910>","75","SpatProbMultiple3.osexp","C:/Userdata/Michel/SpatProbMultiple3","no","mono","no","18","no","white","no","yes","0.09","98","1050","legacy","45","15","15","1","C:/Userdata/Michel/SpatProbMultiple3/beh/subject-47.csv","legacy","9","192","25","Kafkaesque Koffka","3.2.5","yes","598477b2b83f69022949e7e9","47","red","circular","red","circular","0","\","858","space","14099","14099","(80, 80, 80)","(0, 123, 0)","(177, 0, 0)","(155, 155, 155)","2","legacy","experiment","[6, 7, 0, 1, 2, 3, 4, 5]","\","2500","3000","0","8","252.758751519","1024","2","48000","-16","main","[(0, -252), (178, -178), (252, 0), (178, 178), (0, 252), (-178, 178), (-252, 0), (-178, -178)]","[]","47","odd","6","NA","656148","782735","782735","432664","431652","2495","575350","575350","2495","2495","446764","831641","2495","782735","830780","830034","830034","NA","736","study_X","0","14099","1","yes","1680"
"undefined","undefined","NA","NA","NA","14099","14099","black","no","legacy","legacy","legacy","0","green","(0, 123, 0)","shape","present","lowProb5","circular","swap","same","swap","swap","green","(0, 123, 0)","lowProb","lowProb6","rectangular","uniform","1","undefined","0","0.078125","1","1","133.364583333","1","15","25606","0","0","0","0","0","0","0","0","42","0","1","0.078125","133.364583333","15","25606","41","41","41","12/03/18 13:32:32","Default description","yes","<openexp._canvas.legacy.Legacy object at 0x054F07F0>","<openexp._canvas.legacy.Legacy object at 0x05544750>","<openexp._canvas.legacy.Legacy object at 0x054EC7D0>","<openexp._canvas.legacy.Legacy object at 0x054FB350>","<openexp._canvas.legacy.Legacy object at 0x05368190>","<openexp._canvas.legacy.Legacy object at 0x054E4270>","<openexp._canvas.legacy.Legacy object at 0x0551AD90>","<openexp._canvas.legacy.Legacy object at 0x05378910>","75","SpatProbMultiple3.osexp","C:/Userdata/Michel/SpatProbMultiple3","no","mono","no","18","no","white","no","yes","0.09","98","1050","legacy","315","16","16","1","C:/Userdata/Michel/SpatProbMultiple3/beh/subject-47.csv","legacy","9","192","25","Kafkaesque Koffka","3.2.5","yes","598477b2b83f69022949e7e9","47","green","circular","green","rectangular","0","/","820","space","14099","14099","(80, 80, 80)","(0, 123, 0)","(177, 0, 0)","(155, 155, 155)","2","legacy","experiment","[6, 7, 0, 1, 2, 3, 4, 5]","/","2500","3000","0","8","252.758751519","1024","2","48000","-16","main","[(0, -252), (178, -178), (252, 0), (178, 178), (0, 252), (-178, 178), (-252, 0), (-178, -178)]","[]","47","odd","5","NA","656148","782735","782735","432664","431652","2495","575350","575350","2495","2495","446764","833649","2495","782735","832826","832081","832082","NA","736","study_X","0","14099","1","yes","1680"
"undefined","undefined","NA","NA","NA","14099","14099","black","no","legacy","legacy","legacy","0","green","(0, 123, 0)","shape","absent","highProbOther","rectangular","same","swap","same","same","green","(0, 123, 0)","highProbColor","highProbColor","rectangular","uniform","1","undefined","0","0.0833333333333","1","1","137.375","1","16","26376","0","0","0","0","0","0","0","0","43","0","1","0.0833333333333","137.375","16","26376","42","42","42","12/03/18 13:32:32","Default description","yes","<openexp._canvas.legacy.Legacy object at 0x054F07F0>","<openexp._canvas.legacy.Legacy object at 0x05544750>","<openexp._canvas.legacy.Legacy object at 0x054EC7D0>","<openexp._canvas.legacy.Legacy object at 0x054FB350>","<openexp._canvas.legacy.Legacy object at 0x05368190>","<openexp._canvas.legacy.Legacy object at 0x054E4270>","<openexp._canvas.legacy.Legacy object at 0x054FB690>","<openexp._canvas.legacy.Legacy object at 0x05378910>","75","SpatProbMultiple3.osexp","C:/Userdata/Michel/SpatProbMultiple3","no","mono","no","18","no","white","no","yes","0.09","98","1050","legacy","315","17","17","1","C:/Userdata/Michel/SpatProbMultiple3/beh/subject-47.csv","legacy","9","192","25","Kafkaesque Koffka","3.2.5","yes","598477b2b83f69022949e7e9","47","green","rectangular","green","rectangular","0","/","770","space","14099","14099","(80, 80, 80)","(0, 123, 0)","(177, 0, 0)","(155, 155, 155)","2","legacy","experiment","[6, 7, 0, 1, 2, 3, 4, 5]","/","2500","3000","0","8","252.758751519","1024","2","48000","-16","main","[(0, -252), (178, -178), (252, 0), (178, 178), (0, 252), (-178, 178), (-252, 0), (-178, -178)]","[]","47","odd","6","NA","656148","782735","782735","432664","431652","2495","575350","575350","2495","2495","446764","835601","2495","782735","834827","834081","834081","NA","736","study_X","0","14099","1","yes","1680"
"undefined","undefined","NA","NA","NA","14099","14099","black","no","legacy","legacy","legacy","0","green","(0, 123, 0)","shape","absent","lowProb1","circular","same","swap","same","swap","green","(0, 123, 0)","highProbShape","highProbShape","circular","uniform","1","undefined","0","0.0885416666667","1","1","140.901041667","1","17","27053","0","0","0","0","0","0","0","0","44","0","1","0.0885416666667","140.901041667","17","27053","43","43","43","12/03/18 13:32:32","Default description","yes","<openexp._canvas.legacy.Legacy object at 0x054F07F0>","<openexp._canvas.legacy.Legacy object at 0x05544750>","<openexp._canvas.legacy.Legacy object at 0x054EC7D0>","<openexp._canvas.legacy.Legacy object at 0x054FB350>","<openexp._canvas.legacy.Legacy object at 0x05368190>","<openexp._canvas.legacy.Legacy object at 0x054E4270>","<openexp._canvas.legacy.Legacy object at 0x05544850>","<openexp._canvas.legacy.Legacy object at 0x05378910>","75","SpatProbMultiple3.osexp","C:/Userdata/Michel/SpatProbMultiple3","no","mono","no","18","no","white","no","yes","0.09","98","1050","legacy","315","18","18","1","C:/Userdata/Michel/SpatProbMultiple3/beh/subject-47.csv","legacy","9","192","25","Kafkaesque Koffka","3.2.5","yes","598477b2b83f69022949e7e9","47","green","circular","green","circular","0","/","677","space","14099","14099","(80, 80, 80)","(0, 123, 0)","(177, 0, 0)","(155, 155, 155)","2","legacy","experiment","[6, 7, 0, 1, 2, 3, 4, 5]","/","2500","3000","0","8","252.758751519","1024","2","48000","-16","main","[(0, -252), (178, -178), (252, 0), (178, 178), (0, 252), (-178, 178), (-252, 0), (-178, -178)]","[]","47","odd","2","NA","656148","782735","782735","432664","431652","2495","575350","575350","2495","2495","446764","837465","2495","782735","836785","836040","836040","NA","736","study_X","0","14099","1","yes","1680"
"undefined","undefined","NA","NA","NA","14099","14099","black","no","legacy","legacy","legacy","0","red","(177, 0, 0)","color","present","highProb","rectangular","swap","swap","same","swap","green","(0, 123, 0)","lowProb","lowProb2","rectangular","uniform","1","undefined","0","0.09375","1","1","148.369791667","1","18","28487","0","0","0","0","0","0","0","0","45","0","1","0.09375","148.369791667","18","28487","44","44","44","12/03/18 13:32:32","Default description","yes","<openexp._canvas.legacy.Legacy object at 0x054F07F0>","<openexp._canvas.legacy.Legacy object at 0x05544750>","<openexp._canvas.legacy.Legacy object at 0x054EC7D0>","<openexp._canvas.legacy.Legacy object at 0x054FB350>","<openexp._canvas.legacy.Legacy object at 0x05368190>","<openexp._canvas.legacy.Legacy object at 0x054E4270>","<openexp._canvas.legacy.Legacy object at 0x055169F0>","<openexp._canvas.legacy.Legacy object at 0x05378910>","75","SpatProbMultiple3.osexp","C:/Userdata/Michel/SpatProbMultiple3","no","mono","no","18","no","white","no","yes","0.09","98","1050","legacy","315","19","19","1","C:/Userdata/Michel/SpatProbMultiple3/beh/subject-47.csv","legacy","9","192","25","Kafkaesque Koffka","3.2.5","yes","598477b2b83f69022949e7e9","47","red","rectangular","green","rectangular","0","/","1434","space","14099","14099","(80, 80, 80)","(0, 123, 0)","(177, 0, 0)","(155, 155, 155)","2","legacy","experiment","[6, 7, 0, 1, 2, 3, 4, 5]","/","2500","3000","0","8","252.758751519","1024","2","48000","-16","main","[(0, -252), (178, -178), (252, 0), (178, 178), (0, 252), (-178, 178), (-252, 0), (-178, -178)]","[]","47","odd","0","NA","656148","782735","782735","432664","431652","2495","575350","575350","2495","2495","446764","840082","2495","782735","838645","837899","837899","NA","736","study_X","0","14099","1","yes","1680"
"undefined","undefined","NA","NA","NA","14099","14099","black","no","legacy","legacy","legacy","0","green","(0, 123, 0)","shape","present","highProb","circular","swap","swap","same","same","green","(0, 123, 0)","lowProb","lowProb6","rectangular","uniform","1","undefined","0","0.0989583333333","1","1","153.885416667","1","19","29546","0","0","0","0","0","0","0","0","46","0","1","0.0989583333333","153.885416667","19","29546","45","45","45","12/03/18 13:32:32","Default description","yes","<openexp._canvas.legacy.Legacy object at 0x054F07F0>","<openexp._canvas.legacy.Legacy object at 0x05544750>","<openexp._canvas.legacy.Legacy object at 0x054EC7D0>","<openexp._canvas.legacy.Legacy object at 0x054FB350>","<openexp._canvas.legacy.Legacy object at 0x05368190>","<openexp._canvas.legacy.Legacy object at 0x054E4270>","<openexp._canvas.legacy.Legacy object at 0x05544530>","<openexp._canvas.legacy.Legacy object at 0x05378910>","75","SpatProbMultiple3.osexp","C:/Userdata/Michel/SpatProbMultiple3","no","mono","no","18","no","white","no","yes","0.09","98","1050","legacy","45","20","20","1","C:/Userdata/Michel/SpatProbMultiple3/beh/subject-47.csv","legacy","9","192","25","Kafkaesque Koffka","3.2.5","yes","598477b2b83f69022949e7e9","47","green","circular","green","rectangular","0","\","1059","space","14099","14099","(80, 80, 80)","(0, 123, 0)","(177, 0, 0)","(155, 155, 155)","2","legacy","experiment","[6, 7, 0, 1, 2, 3, 4, 5]","\","2500","3000","0","8","252.758751519","1024","2","48000","-16","main","[(0, -252), (178, -178), (252, 0), (178, 178), (0, 252), (-178, 178), (-252, 0), (-178, -178)]","[]","47","odd","5","NA","656148","782735","782735","432664","431652","2495","575350","575350","2495","2495","446764","842313","2495","782735","841252","840507","840507","NA","736","study_X","0","14099","1","yes","1680"
"undefined","undefined","NA","NA","NA","14099","14099","black","no","legacy","legacy","legacy","0","green","(0, 123, 0)","color","present","highProb","rectangular","same","swap","swap","same","red","(177, 0, 0)","highProbShape","highProbShape","rectangular","uniform","1","undefined","0","0.104166666667","1","1","158.333333333","1","20","30400","0","0","0","0","0","0","0","0","47","0","1","0.104166666667","158.333333333","20","30400","46","46","46","12/03/18 13:32:32","Default description","yes","<openexp._canvas.legacy.Legacy object at 0x054F07F0>","<openexp._canvas.legacy.Legacy object at 0x05544750>","<openexp._canvas.legacy.Legacy object at 0x054EC7D0>","<openexp._canvas.legacy.Legacy object at 0x054FB350>","<openexp._canvas.legacy.Legacy object at 0x05368190>","<openexp._canvas.legacy.Legacy object at 0x054E4270>","<openexp._canvas.legacy.Legacy object at 0x05507B50>","<openexp._canvas.legacy.Legacy object at 0x05378910>","75","SpatProbMultiple3.osexp","C:/Userdata/Michel/SpatProbMultiple3","no","mono","no","18","no","white","no","yes","0.09","98","1050","legacy","45","21","21","1","C:/Userdata/Michel/SpatProbMultiple3/beh/subject-47.csv","legacy","9","192","25","Kafkaesque Koffka","3.2.5","yes","598477b2b83f69022949e7e9","47","green","rectangular","red","rectangular","0","\","854","space","14099","14099","(80, 80, 80)","(0, 123, 0)","(177, 0, 0)","(155, 155, 155)","2","legacy","experiment","[6, 7, 0, 1, 2, 3, 4, 5]","\","2500","3000","0","8","252.758751519","1024","2","48000","-16","main","[(0, -252), (178, -178), (252, 0), (178, 178), (0, 252), (-178, 178), (-252, 0), (-178, -178)]","[]","47","odd","2","NA","656148","782735","782735","432664","431652","2495","575350","575350","2495","2495","446764","844353","2495","782735","843497","842751","842751","NA","736","study_X","0","14099","1","yes","1680"
"undefined","undefined","NA","NA","NA","14099","14099","black","no","legacy","legacy","legacy","0","red","(177, 0, 0)","shape","absent","lowProb6","circular","swap","swap","same","swap","red","(177, 0, 0)","lowProb","lowProb6","circular","uniform","1","undefined","0","0.109375","1","1","162.619791667","1","21","31223","0","0","0","0","0","0","0","0","48","0","1","0.109375","162.619791667","21","31223","47","47","47","12/03/18 13:32:32","Default description","yes","<openexp._canvas.legacy.Legacy object at 0x054F07F0>","<openexp._canvas.legacy.Legacy object at 0x05544750>","<openexp._canvas.legacy.Legacy object at 0x054EC7D0>","<openexp._canvas.legacy.Legacy object at 0x054FB350>","<openexp._canvas.legacy.Legacy object at 0x05368190>","<openexp._canvas.legacy.Legacy object at 0x054E4270>","<openexp._canvas.legacy.Legacy object at 0x054FB7D0>","<openexp._canvas.legacy.Legacy object at 0x05378910>","75","SpatProbMultiple3.osexp","C:/Userdata/Michel/SpatProbMultiple3","no","mono","no","18","no","white","no","yes","0.09","98","1050","legacy","45","22","22","1","C:/Userdata/Michel/SpatProbMultiple3/beh/subject-47.csv","legacy","9","192","25","Kafkaesque Koffka","3.2.5","yes","598477b2b83f69022949e7e9","47","red","circular","red","circular","0","\","823","space","14099","14099","(80, 80, 80)","(0, 123, 0)","(177, 0, 0)","(155, 155, 155)","2","legacy","experiment","[6, 7, 0, 1, 2, 3, 4, 5]","\","2500","3000","0","8","252.758751519","1024","2","48000","-16","main","[(0, -252), (178, -178), (252, 0), (178, 178), (0, 252), (-178, 178), (-252, 0), (-178, -178)]","[]","47","odd","5","NA","656148","782735","782735","432664","431652","2495","575350","575350","2495","2495","446764","846385","2495","782735","845560","844814","844815","NA","736","study_X","0","14099","1","yes","1680"
"undefined","undefined","NA","NA","NA","14099","14099","black","no","legacy","legacy","legacy","0","red","(177, 0, 0)","color","present","highProb","circular","same","same","swap","same","green","(0, 123, 0)","lowProb","lowProb5","circular","uniform","1","undefined","0","0.114583333333","1","1","166.333333333","1","22","31936","0","0","0","0","0","0","0","0","49","0","1","0.114583333333","166.333333333","22","31936","48","48","48","12/03/18 13:32:32","Default description","yes","<openexp._canvas.legacy.Legacy object at 0x054F07F0>","<openexp._canvas.legacy.Legacy object at 0x05544750>","<openexp._canvas.legacy.Legacy object at 0x054EC7D0>","<openexp._canvas.legacy.Legacy object at 0x054FB350>","<openexp._canvas.legacy.Legacy object at 0x05368190>","<openexp._canvas.legacy.Legacy object at 0x054E4270>","<openexp._canvas.legacy.Legacy object at 0x054F0ED0>","<openexp._canvas.legacy.Legacy object at 0x05378910>","75","SpatProbMultiple3.osexp","C:/Userdata/Michel/SpatProbMultiple3","no","mono","no","18","no","white","no","yes","0.09","98","1050","legacy","45","23","23","1","C:/Userdata/Michel/SpatProbMultiple3/beh/subject-47.csv","legacy","9","192","25","Kafkaesque Koffka","3.2.5","yes","598477b2b83f69022949e7e9","47","red","circular","green","circular","0","\","713","space","14099","14099","(80, 80, 80)","(0, 123, 0)","(177, 0, 0)","(155, 155, 155)","2","legacy","experiment","[6, 7, 0, 1, 2, 3, 4, 5]","\","2500","3000","0","8","252.758751519","1024","2","48000","-16","main","[(0, -252), (178, -178), (252, 0), (178, 178), (0, 252), (-178, 178), (-252, 0), (-178, -178)]","[]","47","odd","4","NA","656148","782735","782735","432664","431652","2495","575350","575350","2495","2495","446764","848273","2495","782735","847558","846815","846815","NA","736","study_X","0","14099","1","yes","1680"
"undefined","undefined","NA","NA","NA","14099","14099","black","no","legacy","legacy","legacy","0","green","(0, 123, 0)","shape","present","lowProb4","rectangular","swap","swap","same","same","green","(0, 123, 0)","lowProb","lowProb6","circular","uniform","1","undefined","0","0.119791666667","1","1","172.208333333","1","23","33064","0","0","0","0","0","0","0","0","50","0","1","0.119791666667","172.208333333","23","33064","49","49","49","12/03/18 13:32:32","Default description","yes","<openexp._canvas.legacy.Legacy object at 0x054F07F0>","<openexp._canvas.legacy.Legacy object at 0x05544750>","<openexp._canvas.legacy.Legacy object at 0x054EC7D0>","<openexp._canvas.legacy.Legacy object at 0x054FB350>","<openexp._canvas.legacy.Legacy object at 0x05368190>","<openexp._canvas.legacy.Legacy object at 0x054E4270>","<openexp._canvas.legacy.Legacy object at 0x05516950>","<openexp._canvas.legacy.Legacy object at 0x05378910>","75","SpatProbMultiple3.osexp","C:/Userdata/Michel/SpatProbMultiple3","no","mono","no","18","no","white","no","yes","0.09","98","1050","legacy","315","24","24","1","C:/Userdata/Michel/SpatProbMultiple3/beh/subject-47.csv","legacy","9","192","25","Kafkaesque Koffka","3.2.5","yes","598477b2b83f69022949e7e9","47","green","rectangular","green","circular","0","/","1128","space","14099","14099","(80, 80, 80)","(0, 123, 0)","(177, 0, 0)","(155, 155, 155)","2","legacy","experiment","[6, 7, 0, 1, 2, 3, 4, 5]","/","2500","3000","0","8","252.758751519","1024","2","48000","-16","main","[(0, -252), (178, -178), (252, 0), (178, 178), (0, 252), (-178, 178), (-252, 0), (-178, -178)]","[]","47","odd","5","NA","656148","782735","782735","432664","431652","2495","575350","575350","2495","2495","446764","850585","2495","782735","849455","848710","848710","NA","736","study_X","0","14099","1","yes","1680"
"undefined","undefined","NA","NA","NA","14099","14099","black","no","legacy","legacy","legacy","0","green","(0, 123, 0)","color","present","highProb","circular","same","swap","swap","same","red","(177, 0, 0)","highProbShape","highProbShape","circular","uniform","1","undefined","0","0.125","1","1","177.90625","1","24","34158","0","0","0","0","0","0","0","0","51","0","1","0.125","177.90625","24","34158","50","50","50","12/03/18 13:32:32","Default description","yes","<openexp._canvas.legacy.Legacy object at 0x054F07F0>","<openexp._canvas.legacy.Legacy object at 0x05544750>","<openexp._canvas.legacy.Legacy object at 0x054EC7D0>","<openexp._canvas.legacy.Legacy object at 0x054FB350>","<openexp._canvas.legacy.Legacy object at 0x05368190>","<openexp._canvas.legacy.Legacy object at 0x054E4270>","<openexp._canvas.legacy.Legacy object at 0x054FBC90>","<openexp._canvas.legacy.Legacy object at 0x05378910>","75","SpatProbMultiple3.osexp","C:/Userdata/Michel/SpatProbMultiple3","no","mono","no","18","no","white","no","yes","0.09","98","1050","legacy","45","25","25","1","C:/Userdata/Michel/SpatProbMultiple3/beh/subject-47.csv","legacy","9","192","25","Kafkaesque Koffka","3.2.5","yes","598477b2b83f69022949e7e9","47","green","circular","red","circular","0","\","1094","space","14099","14099","(80, 80, 80)","(0, 123, 0)","(177, 0, 0)","(155, 155, 155)","2","legacy","experiment","[6, 7, 0, 1, 2, 3, 4, 5]","\","2500","3000","0","8","252.758751519","1024","2","48000","-16","main","[(0, -252), (178, -178), (252, 0), (178, 178), (0, 252), (-178, 178), (-252, 0), (-178, -178)]","[]","47","odd","2","NA","656148","782735","782735","432664","431652","2495","575350","575350","2495","2495","446764","852889","2495","782735","851792","851046","851046","NA","736","study_X","0","14099","1","yes","1680"
"undefined","undefined","NA","NA","NA","14099","14099","black","no","legacy","legacy","legacy","0","green","(0, 123, 0)","color","present","highProb","circular","same","same","same","same","red","(177, 0, 0)","lowProb","lowProb2","circular","uniform","1","undefined","0","0.130208333333","1","1","184.479166667","1","25","35420","0","0","0","0","0","0","0","0","52","0","1","0.130208333333","184.479166667","25","35420","51","51","51","12/03/18 13:32:32","Default description","yes","<openexp._canvas.legacy.Legacy object at 0x054F07F0>","<openexp._canvas.legacy.Legacy object at 0x05544750>","<openexp._canvas.legacy.Legacy object at 0x054EC7D0>","<openexp._canvas.legacy.Legacy object at 0x054FB350>","<openexp._canvas.legacy.Legacy object at 0x05368190>","<openexp._canvas.legacy.Legacy object at 0x054E4270>","<openexp._canvas.legacy.Legacy object at 0x05544710>","<openexp._canvas.legacy.Legacy object at 0x05378910>","75","SpatProbMultiple3.osexp","C:/Userdata/Michel/SpatProbMultiple3","no","mono","no","18","no","white","no","yes","0.09","98","1050","legacy","315","26","26","1","C:/Userdata/Michel/SpatProbMultiple3/beh/subject-47.csv","legacy","9","192","25","Kafkaesque Koffka","3.2.5","yes","598477b2b83f69022949e7e9","47","green","circular","red","circular","0","/","1262","space","14099","14099","(80, 80, 80)","(0, 123, 0)","(177, 0, 0)","(155, 155, 155)","2","legacy","experiment","[6, 7, 0, 1, 2, 3, 4, 5]","/","2500","3000","0","8","252.758751519","1024","2","48000","-16","main","[(0, -252), (178, -178), (252, 0), (178, 178), (0, 252), (-178, 178), (-252, 0), (-178, -178)]","[]","47","odd","0","NA","656148","782735","782735","432664","431652","2495","575350","575350","2495","2495","446764","855361","2495","782735","854096","853351","853351","NA","736","study_X","0","14099","1","yes","1680"
"undefined","undefined","NA","NA","NA","14099","14099","black","no","legacy","legacy","legacy","0","green","(0, 123, 0)","shape","present","highProb","circular","same","same","swap","swap","green","(0, 123, 0)","lowProb","lowProb4","rectangular","uniform","1","undefined","0","0.135416666667","1","1","189.666666667","1","26","36416","0","0","0","0","0","0","0","0","53","0","1","0.135416666667","189.666666667","26","36416","52","52","52","12/03/18 13:32:32","Default description","yes","<openexp._canvas.legacy.Legacy object at 0x054F07F0>","<openexp._canvas.legacy.Legacy object at 0x05544750>","<openexp._canvas.legacy.Legacy object at 0x054EC7D0>","<openexp._canvas.legacy.Legacy object at 0x054FB350>","<openexp._canvas.legacy.Legacy object at 0x05368190>","<openexp._canvas.legacy.Legacy object at 0x054E4270>","<openexp._canvas.legacy.Legacy object at 0x0551B9F0>","<openexp._canvas.legacy.Legacy object at 0x05378910>","75","SpatProbMultiple3.osexp","C:/Userdata/Michel/SpatProbMultiple3","no","mono","no","18","no","white","no","yes","0.09","98","1050","legacy","45","27","27","1","C:/Userdata/Michel/SpatProbMultiple3/beh/subject-47.csv","legacy","9","192","25","Kafkaesque Koffka","3.2.5","yes","598477b2b83f69022949e7e9","47","green","circular","green","rectangular","0","\","996","space","14099","14099","(80, 80, 80)","(0, 123, 0)","(177, 0, 0)","(155, 155, 155)","2","legacy","experiment","[6, 7, 0, 1, 2, 3, 4, 5]","\","2500","3000","0","8","252.758751519","1024","2","48000","-16","main","[(0, -252), (178, -178), (252, 0), (178, 178), (0, 252), (-178, 178), (-252, 0), (-178, -178)]","[]","47","odd","3","NA","656148","782735","782735","432664","431652","2495","575350","575350","2495","2495","446764","857529","2495","782735","856531","855785","855785","NA","736","study_X","0","14099","1","yes","1680"
"undefined","undefined","NA","NA","NA","14099","14099","black","no","legacy","legacy","legacy","0","green","(0, 123, 0)","color","present","highProb","circular","same","same","swap","swap","red","(177, 0, 0)","lowProb","lowProb4","circular","uniform","1","undefined","0","0.140625","1","1","195.515625","1","27","37539","0","0","0","0","0","0","0","0","54","0","1","0.140625","195.515625","27","37539","53","53","53","12/03/18 13:32:32","Default description","yes","<openexp._canvas.legacy.Legacy object at 0x054F07F0>","<openexp._canvas.legacy.Legacy object at 0x05544750>","<openexp._canvas.legacy.Legacy object at 0x054EC7D0>","<openexp._canvas.legacy.Legacy object at 0x054FB350>","<openexp._canvas.legacy.Legacy object at 0x05368190>","<openexp._canvas.legacy.Legacy object at 0x054E4270>","<openexp._canvas.legacy.Legacy object at 0x0537DC70>","<openexp._canvas.legacy.Legacy object at 0x05378910>","75","SpatProbMultiple3.osexp","C:/Userdata/Michel/SpatProbMultiple3","no","mono","no","18","no","white","no","yes","0.09","98","1050","legacy","315","28","28","1","C:/Userdata/Michel/SpatProbMultiple3/beh/subject-47.csv","legacy","9","192","25","Kafkaesque Koffka","3.2.5","yes","598477b2b83f69022949e7e9","47","green","circular","red","circular","0","/","1123","space","14099","14099","(80, 80, 80)","(0, 123, 0)","(177, 0, 0)","(155, 155, 155)","2","legacy","experiment","[6, 7, 0, 1, 2, 3, 4, 5]","/","2500","3000","0","8","252.758751519","1024","2","48000","-16","main","[(0, -252), (178, -178), (252, 0), (178, 178), (0, 252), (-178, 178), (-252, 0), (-178, -178)]","[]","47","odd","3","NA","656148","782735","782735","432664","431652","2495","575350","575350","2495","2495","446764","859841","2495","782735","858716","857971","857971","NA","736","study_X","0","14099","1","yes","1680"
"undefined","undefined","NA","NA","NA","14099","14099","black","no","legacy","legacy","legacy","0","green","(0, 123, 0)","color","present","highProbOther","rectangular","same","swap","same","swap","red","(177, 0, 0)","lowProb","lowProb1","rectangular","uniform","1","undefined","0","0.145833333333","1","1","200.541666667","1","28","38504","0","0","0","0","0","0","0","0","55","0","1","0.145833333333","200.541666667","28","38504","54","54","54","12/03/18 13:32:32","Default description","yes","<openexp._canvas.legacy.Legacy object at 0x054F07F0>","<openexp._canvas.legacy.Legacy object at 0x05544750>","<openexp._canvas.legacy.Legacy object at 0x054EC7D0>","<openexp._canvas.legacy.Legacy object at 0x054FB350>","<openexp._canvas.legacy.Legacy object at 0x05368190>","<openexp._canvas.legacy.Legacy object at 0x054E4270>","<openexp._canvas.legacy.Legacy object at 0x05507290>","<openexp._canvas.legacy.Legacy object at 0x05378910>","75","SpatProbMultiple3.osexp","C:/Userdata/Michel/SpatProbMultiple3","no","mono","no","18","no","white","no","yes","0.09","98","1050","legacy","45","29","29","1","C:/Userdata/Michel/SpatProbMultiple3/beh/subject-47.csv","legacy","9","192","25","Kafkaesque Koffka","3.2.5","yes","598477b2b83f69022949e7e9","47","green","rectangular","red","rectangular","0","\","965","space","14099","14099","(80, 80, 80)","(0, 123, 0)","(177, 0, 0)","(155, 155, 155)","2","legacy","experiment","[6, 7, 0, 1, 2, 3, 4, 5]","\","2500","3000","0","8","252.758751519","1024","2","48000","-16","main","[(0, -252), (178, -178), (252, 0), (178, 178), (0, 252), (-178, 178), (-252, 0), (-178, -178)]","[]","47","odd","7","NA","656148","782735","782735","432664","431652","2495","575350","575350","2495","2495","446764","862001","2495","782735","861033","860287","860287","NA","736","study_X","0","14099","1","yes","1680"
"undefined","undefined","NA","NA","NA","14099","14099","black","no","legacy","legacy","legacy","0","green","(0, 123, 0)","shape","present","highProbOther","circular","same","swap","swap","same","green","(0, 123, 0)","lowProb","lowProb5","rectangular","uniform","1","undefined","0","0.151041666667","1","1","203.994791667","1","29","39167","0","0","0","0","0","0","0","0","56","0","1","0.151041666667","203.994791667","29","39167","55","55","55","12/03/18 13:32:32","Default description","yes","<openexp._canvas.legacy.Legacy object at 0x054F07F0>","<openexp._canvas.legacy.Legacy object at 0x05544750>","<openexp._canvas.legacy.Legacy object at 0x054EC7D0>","<openexp._canvas.legacy.Legacy object at 0x054FB350>","<openexp._canvas.legacy.Legacy object at 0x05368190>","<openexp._canvas.legacy.Legacy object at 0x054E4270>","<openexp._canvas.legacy.Legacy object at 0x055160F0>","<openexp._canvas.legacy.Legacy object at 0x05378910>","75","SpatProbMultiple3.osexp","C:/Userdata/Michel/SpatProbMultiple3","no","mono","no","18","no","white","no","yes","0.09","98","1050","legacy","315","30","30","1","C:/Userdata/Michel/SpatProbMultiple3/beh/subject-47.csv","legacy","9","192","25","Kafkaesque Koffka","3.2.5","yes","598477b2b83f69022949e7e9","47","green","circular","green","rectangular","0","/","663","space","14099","14099","(80, 80, 80)","(0, 123, 0)","(177, 0, 0)","(155, 155, 155)","2","legacy","experiment","[6, 7, 0, 1, 2, 3, 4, 5]","/","2500","3000","0","8","252.758751519","1024","2","48000","-16","main","[(0, -252), (178, -178), (252, 0), (178, 178), (0, 252), (-178, 178), (-252, 0), (-178, -178)]","[]","47","odd","4","NA","656148","782735","782735","432664","431652","2495","575350","575350","2495","2495","446764","863841","2495","782735","863175","862430","862430","NA","736","study_X","0","14099","1","yes","1680"
"undefined","undefined","NA","NA","NA","14099","14099","black","no","legacy","legacy","legacy","0","red","(177, 0, 0)","color","absent","highProbOther","rectangular","swap","swap","swap","same","red","(177, 0, 0)","lowProb","lowProb6","rectangular","uniform","1","undefined","0","0.15625","1","1","209.354166667","1","30","40196","0","0","0","0","0","0","0","0","57","0","1","0.15625","209.354166667","30","40196","56","56","56","12/03/18 13:32:32","Default description","yes","<openexp._canvas.legacy.Legacy object at 0x054F07F0>","<openexp._canvas.legacy.Legacy object at 0x05544750>","<openexp._canvas.legacy.Legacy object at 0x054EC7D0>","<openexp._canvas.legacy.Legacy object at 0x054FB350>","<openexp._canvas.legacy.Legacy object at 0x05368190>","<openexp._canvas.legacy.Legacy object at 0x054E4270>","<openexp._canvas.legacy.Legacy object at 0x05544A50>","<openexp._canvas.legacy.Legacy object at 0x05378910>","75","SpatProbMultiple3.osexp","C:/Userdata/Michel/SpatProbMultiple3","no","mono","no","18","no","white","no","yes","0.09","98","1050","legacy","315","31","31","1","C:/Userdata/Michel/SpatProbMultiple3/beh/subject-47.csv","legacy","9","192","25","Kafkaesque Koffka","3.2.5","yes","598477b2b83f69022949e7e9","47","red","rectangular","red","rectangular","0","/","1029","space","14099","14099","(80, 80, 80)","(0, 123, 0)","(177, 0, 0)","(155, 155, 155)","2","legacy","experiment","[6, 7, 0, 1, 2, 3, 4, 5]","/","2500","3000","0","8","252.758751519","1024","2","48000","-16","main","[(0, -252), (178, -178), (252, 0), (178, 178), (0, 252), (-178, 178), (-252, 0), (-178, -178)]","[]","47","odd","5","NA","656148","782735","782735","432664","431652","2495","575350","575350","2495","2495","446764","866049","2495","782735","865016","864271","864271","NA","736","study_X","0","14099","1","yes","1680"
"undefined","undefined","NA","NA","NA","14099","14099","black","no","legacy","legacy","legacy","0","green","(0, 123, 0)","color","present","lowProb2","circular","swap","swap","same","swap","red","(177, 0, 0)","lowProb","lowProb5","circular","uniform","1","undefined","0","0.161458333333","1","1","221.697916667","1","31","42566","0","0","0","0","0","0","0","0","58","0","1","0.161458333333","221.697916667","31","42566","57","57","57","12/03/18 13:32:32","Default description","yes","<openexp._canvas.legacy.Legacy object at 0x054F07F0>","<openexp._canvas.legacy.Legacy object at 0x05544750>","<openexp._canvas.legacy.Legacy object at 0x054EC7D0>","<openexp._canvas.legacy.Legacy object at 0x054FB350>","<openexp._canvas.legacy.Legacy object at 0x05368190>","<openexp._canvas.legacy.Legacy object at 0x054E4270>","<openexp._canvas.legacy.Legacy object at 0x055212F0>","<openexp._canvas.legacy.Legacy object at 0x05378910>","75","SpatProbMultiple3.osexp","C:/Userdata/Michel/SpatProbMultiple3","no","mono","no","18","no","white","no","yes","0.09","98","1050","legacy","315","32","32","1","C:/Userdata/Michel/SpatProbMultiple3/beh/subject-47.csv","legacy","9","192","25","Kafkaesque Koffka","3.2.5","yes","598477b2b83f69022949e7e9","47","green","circular","red","circular","0","/","2370","space","14099","14099","(80, 80, 80)","(0, 123, 0)","(177, 0, 0)","(155, 155, 155)","2","legacy","experiment","[6, 7, 0, 1, 2, 3, 4, 5]","/","2500","3000","0","8","252.758751519","1024","2","48000","-16","main","[(0, -252), (178, -178), (252, 0), (178, 178), (0, 252), (-178, 178), (-252, 0), (-178, -178)]","[]","47","odd","4","NA","656148","782735","782735","432664","431652","2495","575350","575350","2495","2495","446764","869617","2495","782735","867243","866497","866497","NA","736","study_X","0","14099","1","yes","1680"
"undefined","undefined","NA","NA","NA","14099","14099","black","no","legacy","legacy","legacy","0","red","(177, 0, 0)","shape","present","highProb","circular","swap","same","same","swap","red","(177, 0, 0)","lowProb","lowProb1","rectangular","uniform","1","undefined","0","0.166666666667","1","1","228.041666667","1","32","43784","0","0","0","0","0","0","0","0","59","0","1","0.166666666667","228.041666667","32","43784","58","58","58","12/03/18 13:32:32","Default description","yes","<openexp._canvas.legacy.Legacy object at 0x054F07F0>","<openexp._canvas.legacy.Legacy object at 0x05544750>","<openexp._canvas.legacy.Legacy object at 0x054EC7D0>","<openexp._canvas.legacy.Legacy object at 0x054FB350>","<openexp._canvas.legacy.Legacy object at 0x05368190>","<openexp._canvas.legacy.Legacy object at 0x054E4270>","<openexp._canvas.legacy.Legacy object at 0x055078B0>","<openexp._canvas.legacy.Legacy object at 0x05378910>","75","SpatProbMultiple3.osexp","C:/Userdata/Michel/SpatProbMultiple3","no","mono","no","18","no","white","no","yes","0.09","98","1050","legacy","45","33","33","1","C:/Userdata/Michel/SpatProbMultiple3/beh/subject-47.csv","legacy","9","192","25","Kafkaesque Koffka","3.2.5","yes","598477b2b83f69022949e7e9","47","red","circular","red","rectangular","0","\","1218","space","14099","14099","(80, 80, 80)","(0, 123, 0)","(177, 0, 0)","(155, 155, 155)","2","legacy","experiment","[6, 7, 0, 1, 2, 3, 4, 5]","\","2500","3000","0","8","252.758751519","1024","2","48000","-16","main","[(0, -252), (178, -178), (252, 0), (178, 178), (0, 252), (-178, 178), (-252, 0), (-178, -178)]","[]","47","odd","7","NA","656148","782735","782735","432664","431652","2495","575350","575350","2495","2495","446764","872017","2495","782735","870796","870050","870050","NA","736","study_X","0","14099","1","yes","1680"
"undefined","undefined","NA","NA","NA","14099","14099","black","no","legacy","legacy","legacy","0","red","(177, 0, 0)","shape","present","highProb","rectangular","same","swap","same","swap","red","(177, 0, 0)","lowProb","lowProb6","circular","uniform","1","undefined","0","0.171875","1","1","232.307291667","1","33","44603","0","0","0","0","0","0","0","0","60","0","1","0.171875","232.307291667","33","44603","59","59","59","12/03/18 13:32:32","Default description","yes","<openexp._canvas.legacy.Legacy object at 0x054F07F0>","<openexp._canvas.legacy.Legacy object at 0x05544750>","<openexp._canvas.legacy.Legacy object at 0x054EC7D0>","<openexp._canvas.legacy.Legacy object at 0x054FB350>","<openexp._canvas.legacy.Legacy object at 0x05368190>","<openexp._canvas.legacy.Legacy object at 0x054E4270>","<openexp._canvas.legacy.Legacy object at 0x05544E30>","<openexp._canvas.legacy.Legacy object at 0x05378910>","75","SpatProbMultiple3.osexp","C:/Userdata/Michel/SpatProbMultiple3","no","mono","no","18","no","white","no","yes","0.09","98","1050","legacy","45","34","34","1","C:/Userdata/Michel/SpatProbMultiple3/beh/subject-47.csv","legacy","9","192","25","Kafkaesque Koffka","3.2.5","yes","598477b2b83f69022949e7e9","47","red","rectangular","red","circular","0","\","819","space","14099","14099","(80, 80, 80)","(0, 123, 0)","(177, 0, 0)","(155, 155, 155)","2","legacy","experiment","[6, 7, 0, 1, 2, 3, 4, 5]","\","2500","3000","0","8","252.758751519","1024","2","48000","-16","main","[(0, -252), (178, -178), (252, 0), (178, 178), (0, 252), (-178, 178), (-252, 0), (-178, -178)]","[]","47","odd","5","NA","656148","782735","782735","432664","431652","2495","575350","575350","2495","2495","446764","874024","2495","782735","873202","872456","872456","NA","736","study_X","0","14099","1","yes","1680"
"undefined","undefined","NA","NA","NA","14099","14099","black","no","legacy","legacy","legacy","0","red","(177, 0, 0)","color","present","highProb","circular","same","swap","swap","same","green","(0, 123, 0)","lowProb","lowProb2","circular","uniform","1","undefined","0","0.177083333333","1","1","238.984375","1","34","45885","0","0","0","0","0","0","0","0","61","0","1","0.177083333333","238.984375","34","45885","60","60","60","12/03/18 13:32:32","Default description","yes","<openexp._canvas.legacy.Legacy object at 0x054F07F0>","<openexp._canvas.legacy.Legacy object at 0x05544750>","<openexp._canvas.legacy.Legacy object at 0x054EC7D0>","<openexp._canvas.legacy.Legacy object at 0x054FB350>","<openexp._canvas.legacy.Legacy object at 0x05368190>","<openexp._canvas.legacy.Legacy object at 0x054E4270>","<openexp._canvas.legacy.Legacy object at 0x054FB8F0>","<openexp._canvas.legacy.Legacy object at 0x05378910>","75","SpatProbMultiple3.osexp","C:/Userdata/Michel/SpatProbMultiple3","no","mono","no","18","no","white","no","yes","0.09","98","1050","legacy","315","35","35","1","C:/Userdata/Michel/SpatProbMultiple3/beh/subject-47.csv","legacy","9","192","25","Kafkaesque Koffka","3.2.5","yes","598477b2b83f69022949e7e9","47","red","circular","green","circular","0","/","1282","space","14099","14099","(80, 80, 80)","(0, 123, 0)","(177, 0, 0)","(155, 155, 155)","2","legacy","experiment","[6, 7, 0, 1, 2, 3, 4, 5]","/","2500","3000","0","8","252.758751519","1024","2","48000","-16","main","[(0, -252), (178, -178), (252, 0), (178, 178), (0, 252), (-178, 178), (-252, 0), (-178, -178)]","[]","47","odd","0","NA","656148","782735","782735","432664","431652","2495","575350","575350","2495","2495","446764","876489","2495","782735","875205","874460","874460","NA","736","study_X","0","14099","1","yes","1680"
"undefined","undefined","NA","NA","NA","14099","14099","black","no","legacy","legacy","legacy","0","green","(0, 123, 0)","color","present","highProb","rectangular","swap","swap","swap","swap","red","(177, 0, 0)","lowProb","lowProb1","rectangular","uniform","1","undefined","0","0.182291666667","1","1","244.614583333","1","35","46966","0","0","0","0","0","0","0","0","62","0","1","0.182291666667","244.614583333","35","46966","61","61","61","12/03/18 13:32:32","Default description","yes","<openexp._canvas.legacy.Legacy object at 0x054F07F0>","<openexp._canvas.legacy.Legacy object at 0x05544750>","<openexp._canvas.legacy.Legacy object at 0x054EC7D0>","<openexp._canvas.legacy.Legacy object at 0x054FB350>","<openexp._canvas.legacy.Legacy object at 0x05368190>","<openexp._canvas.legacy.Legacy object at 0x054E4270>","<openexp._canvas.legacy.Legacy object at 0x0552F510>","<openexp._canvas.legacy.Legacy object at 0x05378910>","75","SpatProbMultiple3.osexp","C:/Userdata/Michel/SpatProbMultiple3","no","mono","no","18","no","white","no","yes","0.09","98","1050","legacy","45","36","36","1","C:/Userdata/Michel/SpatProbMultiple3/beh/subject-47.csv","legacy","9","192","25","Kafkaesque Koffka","3.2.5","yes","598477b2b83f69022949e7e9","47","green","rectangular","red","rectangular","0","\","1081","space","14099","14099","(80, 80, 80)","(0, 123, 0)","(177, 0, 0)","(155, 155, 155)","2","legacy","experiment","[6, 7, 0, 1, 2, 3, 4, 5]","\","2500","3000","0","8","252.758751519","1024","2","48000","-16","main","[(0, -252), (178, -178), (252, 0), (178, 178), (0, 252), (-178, 178), (-252, 0), (-178, -178)]","[]","47","odd","7","NA","656148","782735","782735","432664","431652","2495","575350","575350","2495","2495","446764","878753","2495","782735","877670","876924","876924","NA","736","study_X","0","14099","1","yes","1680"
"undefined","undefined","NA","NA","NA","14099","14099","black","no","legacy","legacy","legacy","0","green","(0, 123, 0)","color","present","highProb","circular","same","swap","same","swap","red","(177, 0, 0)","lowProb","lowProb4","circular","uniform","1","undefined","0","0.1875","1","1","251.713541667","1","36","48329","0","0","0","0","0","0","0","0","63","0","1","0.1875","251.713541667","36","48329","62","62","62","12/03/18 13:32:32","Default description","yes","<openexp._canvas.legacy.Legacy object at 0x054F07F0>","<openexp._canvas.legacy.Legacy object at 0x05544750>","<openexp._canvas.legacy.Legacy object at 0x054EC7D0>","<openexp._canvas.legacy.Legacy object at 0x054FB350>","<openexp._canvas.legacy.Legacy object at 0x05368190>","<openexp._canvas.legacy.Legacy object at 0x054E4270>","<openexp._canvas.legacy.Legacy object at 0x054FB410>","<openexp._canvas.legacy.Legacy object at 0x05378910>","75","SpatProbMultiple3.osexp","C:/Userdata/Michel/SpatProbMultiple3","no","mono","no","18","no","white","no","yes","0.09","98","1050","legacy","315","37","37","1","C:/Userdata/Michel/SpatProbMultiple3/beh/subject-47.csv","legacy","9","192","25","Kafkaesque Koffka","3.2.5","yes","598477b2b83f69022949e7e9","47","green","circular","red","circular","0","/","1363","space","14099","14099","(80, 80, 80)","(0, 123, 0)","(177, 0, 0)","(155, 155, 155)","2","legacy","experiment","[6, 7, 0, 1, 2, 3, 4, 5]","/","2500","3000","0","8","252.758751519","1024","2","48000","-16","main","[(0, -252), (178, -178), (252, 0), (178, 178), (0, 252), (-178, 178), (-252, 0), (-178, -178)]","[]","47","odd","3","NA","656148","782735","782735","432664","431652","2495","575350","575350","2495","2495","446764","881289","2495","782735","879924","879179","879179","NA","736","study_X","0","14099","1","yes","1680"
"undefined","undefined","NA","NA","NA","14099","14099","black","no","legacy","legacy","legacy","0","green","(0, 123, 0)","shape","present","lowProb3","rectangular","same","swap","swap","same","green","(0, 123, 0)","lowProb","lowProb5","circular","uniform","1","undefined","0","0.192708333333","1","1","255.255208333","1","37","49009","0","0","0","0","0","0","0","0","64","0","1","0.192708333333","255.255208333","37","49009","63","63","63","12/03/18 13:32:32","Default description","yes","<openexp._canvas.legacy.Legacy object at 0x054F07F0>","<openexp._canvas.legacy.Legacy object at 0x05544750>","<openexp._canvas.legacy.Legacy object at 0x054EC7D0>","<openexp._canvas.legacy.Legacy object at 0x054FB350>","<openexp._canvas.legacy.Legacy object at 0x05368190>","<openexp._canvas.legacy.Legacy object at 0x054E4270>","<openexp._canvas.legacy.Legacy object at 0x055168F0>","<openexp._canvas.legacy.Legacy object at 0x05378910>","75","SpatProbMultiple3.osexp","C:/Userdata/Michel/SpatProbMultiple3","no","mono","no","18","no","white","no","yes","0.09","98","1050","legacy","45","38","38","1","C:/Userdata/Michel/SpatProbMultiple3/beh/subject-47.csv","legacy","9","192","25","Kafkaesque Koffka","3.2.5","yes","598477b2b83f69022949e7e9","47","green","rectangular","green","circular","0","\","680","space","14099","14099","(80, 80, 80)","(0, 123, 0)","(177, 0, 0)","(155, 155, 155)","2","legacy","experiment","[6, 7, 0, 1, 2, 3, 4, 5]","\","2500","3000","0","8","252.758751519","1024","2","48000","-16","main","[(0, -252), (178, -178), (252, 0), (178, 178), (0, 252), (-178, 178), (-252, 0), (-178, -178)]","[]","47","odd","4","NA","656148","782735","782735","432664","431652","2495","575350","575350","2495","2495","446764","883169","2495","782735","882486","881740","881740","NA","736","study_X","0","14099","1","yes","1680"
"undefined","undefined","NA","NA","NA","14099","14099","black","no","legacy","legacy","legacy","0","red","(177, 0, 0)","color","absent","lowProb1","rectangular","swap","same","swap","swap","red","(177, 0, 0)","lowProb","lowProb1","rectangular","uniform","1","undefined","0","0.197916666667","1","1","260.010416667","1","38","49922","0","0","0","0","0","0","0","0","65","0","1","0.197916666667","260.010416667","38","49922","64","64","64","12/03/18 13:32:32","Default description","yes","<openexp._canvas.legacy.Legacy object at 0x054F07F0>","<openexp._canvas.legacy.Legacy object at 0x05544750>","<openexp._canvas.legacy.Legacy object at 0x054EC7D0>","<openexp._canvas.legacy.Legacy object at 0x054FB350>","<openexp._canvas.legacy.Legacy object at 0x05368190>","<openexp._canvas.legacy.Legacy object at 0x054E4270>","<openexp._canvas.legacy.Legacy object at 0x05507E90>","<openexp._canvas.legacy.Legacy object at 0x05378910>","75","SpatProbMultiple3.osexp","C:/Userdata/Michel/SpatProbMultiple3","no","mono","no","18","no","white","no","yes","0.09","98","1050","legacy","315","39","39","1","C:/Userdata/Michel/SpatProbMultiple3/beh/subject-47.csv","legacy","9","192","25","Kafkaesque Koffka","3.2.5","yes","598477b2b83f69022949e7e9","47","red","rectangular","red","rectangular","0","/","913","space","14099","14099","(80, 80, 80)","(0, 123, 0)","(177, 0, 0)","(155, 155, 155)","2","legacy","experiment","[6, 7, 0, 1, 2, 3, 4, 5]","/","2500","3000","0","8","252.758751519","1024","2","48000","-16","main","[(0, -252), (178, -178), (252, 0), (178, 178), (0, 252), (-178, 178), (-252, 0), (-178, -178)]","[]","47","odd","7","NA","656148","782735","782735","432664","431652","2495","575350","575350","2495","2495","446764","885265","2495","782735","884348","883603","883603","NA","736","study_X","0","14099","1","yes","1680"
"undefined","undefined","NA","NA","NA","14099","14099","black","no","legacy","legacy","legacy","0","green","(0, 123, 0)","shape","present","highProb","rectangular","swap","same","swap","swap","green","(0, 123, 0)","lowProb","lowProb6","circular","uniform","1","undefined","0","0.203125","1","1","264.96875","1","39","50874","0","0","0","0","0","0","0","0","66","0","1","0.203125","264.96875","39","50874","65","65","65","12/03/18 13:32:32","Default description","yes","<openexp._canvas.legacy.Legacy object at 0x054F07F0>","<openexp._canvas.legacy.Legacy object at 0x05544750>","<openexp._canvas.legacy.Legacy object at 0x054EC7D0>","<openexp._canvas.legacy.Legacy object at 0x054FB350>","<openexp._canvas.legacy.Legacy object at 0x05368190>","<openexp._canvas.legacy.Legacy object at 0x054E4270>","<openexp._canvas.legacy.Legacy object at 0x0554C170>","<openexp._canvas.legacy.Legacy object at 0x05378910>","75","SpatProbMultiple3.osexp","C:/Userdata/Michel/SpatProbMultiple3","no","mono","no","18","no","white","no","yes","0.09","98","1050","legacy","315","40","40","1","C:/Userdata/Michel/SpatProbMultiple3/beh/subject-47.csv","legacy","9","192","25","Kafkaesque Koffka","3.2.5","yes","598477b2b83f69022949e7e9","47","green","rectangular","green","circular","0","/","952","space","14099","14099","(80, 80, 80)","(0, 123, 0)","(177, 0, 0)","(155, 155, 155)","2","legacy","experiment","[6, 7, 0, 1, 2, 3, 4, 5]","/","2500","3000","0","8","252.758751519","1024","2","48000","-16","main","[(0, -252), (178, -178), (252, 0), (178, 178), (0, 252), (-178, 178), (-252, 0), (-178, -178)]","[]","47","odd","5","NA","656148","782735","782735","432664","431652","2495","575350","575350","2495","2495","446764","887393","2495","782735","886437","885692","885692","NA","736","study_X","0","14099","1","yes","1680"
"undefined","undefined","NA","NA","NA","14099","14099","black","no","legacy","legacy","legacy","0","red","(177, 0, 0)","shape","present","highProb","circular","swap","swap","swap","swap","red","(177, 0, 0)","lowProb","lowProb2","rectangular","uniform","1","undefined","0","0.208333333333","1","1","270.40625","1","40","51918","0","0","0","0","0","0","0","0","67","0","1","0.208333333333","270.40625","40","51918","66","66","66","12/03/18 13:32:32","Default description","yes","<openexp._canvas.legacy.Legacy object at 0x054F07F0>","<openexp._canvas.legacy.Legacy object at 0x05544750>","<openexp._canvas.legacy.Legacy object at 0x054EC7D0>","<openexp._canvas.legacy.Legacy object at 0x054FB350>","<openexp._canvas.legacy.Legacy object at 0x05368190>","<openexp._canvas.legacy.Legacy object at 0x054E4270>","<openexp._canvas.legacy.Legacy object at 0x054F0570>","<openexp._canvas.legacy.Legacy object at 0x05378910>","75","SpatProbMultiple3.osexp","C:/Userdata/Michel/SpatProbMultiple3","no","mono","no","18","no","white","no","yes","0.09","98","1050","legacy","45","41","41","1","C:/Userdata/Michel/SpatProbMultiple3/beh/subject-47.csv","legacy","9","192","25","Kafkaesque Koffka","3.2.5","yes","598477b2b83f69022949e7e9","47","red","circular","red","rectangular","0","\","1044","space","14099","14099","(80, 80, 80)","(0, 123, 0)","(177, 0, 0)","(155, 155, 155)","2","legacy","experiment","[6, 7, 0, 1, 2, 3, 4, 5]","\","2500","3000","0","8","252.758751519","1024","2","48000","-16","main","[(0, -252), (178, -178), (252, 0), (178, 178), (0, 252), (-178, 178), (-252, 0), (-178, -178)]","[]","47","odd","0","NA","656148","782735","782735","432664","431652","2495","575350","575350","2495","2495","446764","889616","2495","782735","888570","887824","887824","NA","736","study_X","0","14099","1","yes","1680"
"undefined","undefined","NA","NA","NA","14099","14099","black","no","legacy","legacy","legacy","0","red","(177, 0, 0)","color","absent","lowProb5","circular","same","same","same","swap","red","(177, 0, 0)","lowProb","lowProb5","circular","uniform","1","undefined","0","0.213541666667","1","1","274.322916667","1","41","52670","0","0","0","0","0","0","0","0","68","0","1","0.213541666667","274.322916667","41","52670","67","67","67","12/03/18 13:32:32","Default description","yes","<openexp._canvas.legacy.Legacy object at 0x054F07F0>","<openexp._canvas.legacy.Legacy object at 0x05544750>","<openexp._canvas.legacy.Legacy object at 0x054EC7D0>","<openexp._canvas.legacy.Legacy object at 0x054FB350>","<openexp._canvas.legacy.Legacy object at 0x05368190>","<openexp._canvas.legacy.Legacy object at 0x054E4270>","<openexp._canvas.legacy.Legacy object at 0x05544470>","<openexp._canvas.legacy.Legacy object at 0x05378910>","75","SpatProbMultiple3.osexp","C:/Userdata/Michel/SpatProbMultiple3","no","mono","no","18","no","white","no","yes","0.09","98","1050","legacy","45","42","42","1","C:/Userdata/Michel/SpatProbMultiple3/beh/subject-47.csv","legacy","9","192","25","Kafkaesque Koffka","3.2.5","yes","598477b2b83f69022949e7e9","47","red","circular","red","circular","0","\","752","space","14099","14099","(80, 80, 80)","(0, 123, 0)","(177, 0, 0)","(155, 155, 155)","2","legacy","experiment","[6, 7, 0, 1, 2, 3, 4, 5]","\","2500","3000","0","8","252.758751519","1024","2","48000","-16","main","[(0, -252), (178, -178), (252, 0), (178, 178), (0, 252), (-178, 178), (-252, 0), (-178, -178)]","[]","47","odd","4","NA","656148","782735","782735","432664","431652","2495","575350","575350","2495","2495","446764","891576","2495","782735","890821","890076","890076","NA","736","study_X","0","14099","1","yes","1680"
"undefined","undefined","NA","NA","NA","14099","14099","black","no","legacy","legacy","legacy","0","green","(0, 123, 0)","color","absent","lowProb1","circular","swap","same","swap","same","green","(0, 123, 0)","lowProb","lowProb3","circular","uniform","1","undefined","0","0.21875","1","1","281.432291667","1","42","54035","0","0","0","0","0","0","0","0","69","0","1","0.21875","281.432291667","42","54035","68","68","68","12/03/18 13:32:32","Default description","yes","<openexp._canvas.legacy.Legacy object at 0x054F07F0>","<openexp._canvas.legacy.Legacy object at 0x05544750>","<openexp._canvas.legacy.Legacy object at 0x054EC7D0>","<openexp._canvas.legacy.Legacy object at 0x054FB350>","<openexp._canvas.legacy.Legacy object at 0x05368190>","<openexp._canvas.legacy.Legacy object at 0x054E4270>","<openexp._canvas.legacy.Legacy object at 0x054F0ED0>","<openexp._canvas.legacy.Legacy object at 0x05378910>","75","SpatProbMultiple3.osexp","C:/Userdata/Michel/SpatProbMultiple3","no","mono","no","18","no","white","no","yes","0.09","98","1050","legacy","45","43","43","1","C:/Userdata/Michel/SpatProbMultiple3/beh/subject-47.csv","legacy","9","192","25","Kafkaesque Koffka","3.2.5","yes","598477b2b83f69022949e7e9","47","green","circular","green","circular","0","\","1365","space","14099","14099","(80, 80, 80)","(0, 123, 0)","(177, 0, 0)","(155, 155, 155)","2","legacy","experiment","[6, 7, 0, 1, 2, 3, 4, 5]","\","2500","3000","0","8","252.758751519","1024","2","48000","-16","main","[(0, -252), (178, -178), (252, 0), (178, 178), (0, 252), (-178, 178), (-252, 0), (-178, -178)]","[]","47","odd","1","NA","656148","782735","782735","432664","431652","2495","575350","575350","2495","2495","446764","894137","2495","782735","892769","892025","892025","NA","736","study_X","0","14099","1","yes","1680"
"undefined","undefined","NA","NA","NA","14099","14099","black","no","legacy","legacy","legacy","0","green","(0, 123, 0)","shape","present","lowProb4","rectangular","same","swap","same","same","green","(0, 123, 0)","lowProb","lowProb5","circular","uniform","1","undefined","0","0.223958333333","1","1","287.119791667","1","43","55127","0","0","0","0","0","0","0","0","70","0","1","0.223958333333","287.119791667","43","55127","69","69","69","12/03/18 13:32:32","Default description","yes","<openexp._canvas.legacy.Legacy object at 0x054F07F0>","<openexp._canvas.legacy.Legacy object at 0x05544750>","<openexp._canvas.legacy.Legacy object at 0x054EC7D0>","<openexp._canvas.legacy.Legacy object at 0x054FB350>","<openexp._canvas.legacy.Legacy object at 0x05368190>","<openexp._canvas.legacy.Legacy object at 0x054E4270>","<openexp._canvas.legacy.Legacy object at 0x054FB9B0>","<openexp._canvas.legacy.Legacy object at 0x05378910>","75","SpatProbMultiple3.osexp","C:/Userdata/Michel/SpatProbMultiple3","no","mono","no","18","no","white","no","yes","0.09","98","1050","legacy","315","44","44","1","C:/Userdata/Michel/SpatProbMultiple3/beh/subject-47.csv","legacy","9","192","25","Kafkaesque Koffka","3.2.5","yes","598477b2b83f69022949e7e9","47","green","rectangular","green","circular","0","/","1092","space","14099","14099","(80, 80, 80)","(0, 123, 0)","(177, 0, 0)","(155, 155, 155)","2","legacy","experiment","[6, 7, 0, 1, 2, 3, 4, 5]","/","2500","3000","0","8","252.758751519","1024","2","48000","-16","main","[(0, -252), (178, -178), (252, 0), (178, 178), (0, 252), (-178, 178), (-252, 0), (-178, -178)]","[]","47","odd","4","NA","656148","782735","782735","432664","431652","2495","575350","575350","2495","2495","446764","896441","2495","782735","895346","894601","894601","NA","736","study_X","0","14099","1","yes","1680"
"undefined","undefined","NA","NA","NA","14099","14099","black","no","legacy","legacy","legacy","0","red","(177, 0, 0)","shape","present","highProb","circular","swap","swap","swap","swap","red","(177, 0, 0)","lowProb","lowProb5","rectangular","uniform","1","undefined","0","0.229166666667","1","1","290.776041667","1","44","55829","0","0","0","0","0","0","0","0","71","0","1","0.229166666667","290.776041667","44","55829","70","70","70","12/03/18 13:32:32","Default description","yes","<openexp._canvas.legacy.Legacy object at 0x054F07F0>","<openexp._canvas.legacy.Legacy object at 0x05544750>","<openexp._canvas.legacy.Legacy object at 0x054EC7D0>","<openexp._canvas.legacy.Legacy object at 0x054FB350>","<openexp._canvas.legacy.Legacy object at 0x05368190>","<openexp._canvas.legacy.Legacy object at 0x054E4270>","<openexp._canvas.legacy.Legacy object at 0x05507530>","<openexp._canvas.legacy.Legacy object at 0x05378910>","75","SpatProbMultiple3.osexp","C:/Userdata/Michel/SpatProbMultiple3","no","mono","no","18","no","white","no","yes","0.09","98","1050","legacy","315","45","45","1","C:/Userdata/Michel/SpatProbMultiple3/beh/subject-47.csv","legacy","9","192","25","Kafkaesque Koffka","3.2.5","yes","598477b2b83f69022949e7e9","47","red","circular","red","rectangular","0","/","702","space","14099","14099","(80, 80, 80)","(0, 123, 0)","(177, 0, 0)","(155, 155, 155)","2","legacy","experiment","[6, 7, 0, 1, 2, 3, 4, 5]","/","2500","3000","0","8","252.758751519","1024","2","48000","-16","main","[(0, -252), (178, -178), (252, 0), (178, 178), (0, 252), (-178, 178), (-252, 0), (-178, -178)]","[]","47","odd","4","NA","656148","782735","782735","432664","431652","2495","575350","575350","2495","2495","446764","898313","2495","782735","897608","896862","896862","NA","736","study_X","0","14099","1","yes","1680"
"undefined","undefined","NA","NA","NA","14099","14099","black","no","legacy","legacy","legacy","0","red","(177, 0, 0)","shape","present","highProb","rectangular","same","swap","same","swap","red","(177, 0, 0)","lowProb","lowProb2","circular","uniform","1","undefined","0","0.234375","1","1","295.630208333","1","45","56761","0","0","0","0","0","0","0","0","72","0","1","0.234375","295.630208333","45","56761","71","71","71","12/03/18 13:32:32","Default description","yes","<openexp._canvas.legacy.Legacy object at 0x054F07F0>","<openexp._canvas.legacy.Legacy object at 0x05544750>","<openexp._canvas.legacy.Legacy object at 0x054EC7D0>","<openexp._canvas.legacy.Legacy object at 0x054FB350>","<openexp._canvas.legacy.Legacy object at 0x05368190>","<openexp._canvas.legacy.Legacy object at 0x054E4270>","<openexp._canvas.legacy.Legacy object at 0x055077B0>","<openexp._canvas.legacy.Legacy object at 0x05378910>","75","SpatProbMultiple3.osexp","C:/Userdata/Michel/SpatProbMultiple3","no","mono","no","18","no","white","no","yes","0.09","98","1050","legacy","315","46","46","1","C:/Userdata/Michel/SpatProbMultiple3/beh/subject-47.csv","legacy","9","192","25","Kafkaesque Koffka","3.2.5","yes","598477b2b83f69022949e7e9","47","red","rectangular","red","circular","0","/","932","space","14099","14099","(80, 80, 80)","(0, 123, 0)","(177, 0, 0)","(155, 155, 155)","2","legacy","experiment","[6, 7, 0, 1, 2, 3, 4, 5]","/","2500","3000","0","8","252.758751519","1024","2","48000","-16","main","[(0, -252), (178, -178), (252, 0), (178, 178), (0, 252), (-178, 178), (-252, 0), (-178, -178)]","[]","47","odd","0","NA","656148","782735","782735","432664","431652","2495","575350","575350","2495","2495","446764","900449","2495","782735","899513","898768","898768","NA","736","study_X","0","14099","1","yes","1680"
"undefined","undefined","NA","NA","NA","14099","14099","black","no","legacy","legacy","legacy","0","red","(177, 0, 0)","color","absent","lowProb4","rectangular","same","same","same","swap","red","(177, 0, 0)","lowProb","lowProb2","rectangular","uniform","1","undefined","0","0.239583333333","1","1","298.4375","1","46","57300","0","0","0","0","0","0","0","0","73","0","1","0.239583333333","298.4375","46","57300","72","72","72","12/03/18 13:32:32","Default description","yes","<openexp._canvas.legacy.Legacy object at 0x054F07F0>","<openexp._canvas.legacy.Legacy object at 0x05544750>","<openexp._canvas.legacy.Legacy object at 0x054EC7D0>","<openexp._canvas.legacy.Legacy object at 0x054FB350>","<openexp._canvas.legacy.Legacy object at 0x05368190>","<openexp._canvas.legacy.Legacy object at 0x054E4270>","<openexp._canvas.legacy.Legacy object at 0x0551BCD0>","<openexp._canvas.legacy.Legacy object at 0x05378910>","75","SpatProbMultiple3.osexp","C:/Userdata/Michel/SpatProbMultiple3","no","mono","no","18","no","white","no","yes","0.09","98","1050","legacy","45","47","47","1","C:/Userdata/Michel/SpatProbMultiple3/beh/subject-47.csv","legacy","9","192","25","Kafkaesque Koffka","3.2.5","yes","598477b2b83f69022949e7e9","47","red","rectangular","red","rectangular","0","\","539","space","14099","14099","(80, 80, 80)","(0, 123, 0)","(177, 0, 0)","(155, 155, 155)","2","legacy","experiment","[6, 7, 0, 1, 2, 3, 4, 5]","\","2500","3000","0","8","252.758751519","1024","2","48000","-16","main","[(0, -252), (178, -178), (252, 0), (178, 178), (0, 252), (-178, 178), (-252, 0), (-178, -178)]","[]","47","odd","0","NA","656148","782735","782735","432664","431652","2495","575350","575350","2495","2495","446764","902161","2495","782735","901619","900875","900875","NA","736","study_X","0","14099","1","yes","1680"
"undefined","undefined","NA","NA","NA","14099","14099","black","no","legacy","legacy","legacy","0","green","(0, 123, 0)","color","absent","lowProb2","rectangular","swap","same","swap","same","green","(0, 123, 0)","lowProb","lowProb6","rectangular","uniform","1","undefined","0","0.244791666667","1","1","301.671875","1","47","57921","0","0","0","0","0","0","0","0","74","0","1","0.244791666667","301.671875","47","57921","73","73","73","12/03/18 13:32:32","Default description","yes","<openexp._canvas.legacy.Legacy object at 0x054F07F0>","<openexp._canvas.legacy.Legacy object at 0x05544750>","<openexp._canvas.legacy.Legacy object at 0x054EC7D0>","<openexp._canvas.legacy.Legacy object at 0x054FB350>","<openexp._canvas.legacy.Legacy object at 0x05368190>","<openexp._canvas.legacy.Legacy object at 0x054E4270>","<openexp._canvas.legacy.Legacy object at 0x054F03B0>","<openexp._canvas.legacy.Legacy object at 0x05378910>","75","SpatProbMultiple3.osexp","C:/Userdata/Michel/SpatProbMultiple3","no","mono","no","18","no","white","no","yes","0.09","98","1050","legacy","45","48","48","1","C:/Userdata/Michel/SpatProbMultiple3/beh/subject-47.csv","legacy","9","192","25","Kafkaesque Koffka","3.2.5","yes","598477b2b83f69022949e7e9","47","green","rectangular","green","rectangular","0","\","621","space","14099","14099","(80, 80, 80)","(0, 123, 0)","(177, 0, 0)","(155, 155, 155)","2","legacy","experiment","[6, 7, 0, 1, 2, 3, 4, 5]","\","2500","3000","0","8","252.758751519","1024","2","48000","-16","main","[(0, -252), (178, -178), (252, 0), (178, 178), (0, 252), (-178, 178), (-252, 0), (-178, -178)]","[]","47","odd","5","NA","656148","782735","782735","432664","431652","2495","575350","575350","2495","2495","446764","903976","2495","782735","903352","902606","902606","NA","736","study_X","0","14099","1","yes","1680"
"undefined","undefined","NA","NA","NA","14099","14099","black","no","legacy","legacy","legacy","0","green","(0, 123, 0)","shape","present","highProb","circular","same","swap","same","same","green","(0, 123, 0)","lowProb","lowProb5","rectangular","uniform","1","undefined","0","0.25","1","1","304.875","1","48","58536","0","0","0","0","0","0","0","0","75","0","1","0.25","304.875","48","58536","74","74","74","12/03/18 13:32:32","Default description","yes","<openexp._canvas.legacy.Legacy object at 0x054F07F0>","<openexp._canvas.legacy.Legacy object at 0x05544750>","<openexp._canvas.legacy.Legacy object at 0x054EC7D0>","<openexp._canvas.legacy.Legacy object at 0x054FB350>","<openexp._canvas.legacy.Legacy object at 0x05368190>","<openexp._canvas.legacy.Legacy object at 0x054E4270>","<openexp._canvas.legacy.Legacy object at 0x0551A5F0>","<openexp._canvas.legacy.Legacy object at 0x05378910>","75","SpatProbMultiple3.osexp","C:/Userdata/Michel/SpatProbMultiple3","no","mono","no","18","no","white","no","yes","0.09","98","1050","legacy","315","49","49","1","C:/Userdata/Michel/SpatProbMultiple3/beh/subject-47.csv","legacy","9","192","25","Kafkaesque Koffka","3.2.5","yes","598477b2b83f69022949e7e9","47","green","circular","green","rectangular","0","/","615","space","14099","14099","(80, 80, 80)","(0, 123, 0)","(177, 0, 0)","(155, 155, 155)","2","legacy","experiment","[6, 7, 0, 1, 2, 3, 4, 5]","/","2500","3000","0","8","252.758751519","1024","2","48000","-16","main","[(0, -252), (178, -178), (252, 0), (178, 178), (0, 252), (-178, 178), (-252, 0), (-178, -178)]","[]","47","odd","4","NA","656148","782735","782735","432664","431652","2495","575350","575350","2495","2495","446764","905776","2495","782735","905158","904413","904413","NA","736","study_X","0","14099","1","yes","1680"
"undefined","undefined","NA","NA","NA","14099","14099","black","no","legacy","legacy","legacy","0","green","(0, 123, 0)","shape","present","highProb","circular","same","same","same","same","green","(0, 123, 0)","lowProb","lowProb3","rectangular","uniform","1","undefined","0","0.255208333333","1","1","313.875","1","49","60264","0","0","0","0","0","0","0","0","76","0","1","0.255208333333","313.875","49","60264","75","75","75","12/03/18 13:32:32","Default description","yes","<openexp._canvas.legacy.Legacy object at 0x054F07F0>","<openexp._canvas.legacy.Legacy object at 0x05544750>","<openexp._canvas.legacy.Legacy object at 0x054EC7D0>","<openexp._canvas.legacy.Legacy object at 0x054FB350>","<openexp._canvas.legacy.Legacy object at 0x05368190>","<openexp._canvas.legacy.Legacy object at 0x054E4270>","<openexp._canvas.legacy.Legacy object at 0x05521C50>","<openexp._canvas.legacy.Legacy object at 0x05378910>","75","SpatProbMultiple3.osexp","C:/Userdata/Michel/SpatProbMultiple3","no","mono","no","18","no","white","no","yes","0.09","98","1050","legacy","315","50","50","1","C:/Userdata/Michel/SpatProbMultiple3/beh/subject-47.csv","legacy","9","192","25","Kafkaesque Koffka","3.2.5","yes","598477b2b83f69022949e7e9","47","green","circular","green","rectangular","0","/","1728","space","14099","14099","(80, 80, 80)","(0, 123, 0)","(177, 0, 0)","(155, 155, 155)","2","legacy","experiment","[6, 7, 0, 1, 2, 3, 4, 5]","/","2500","3000","0","8","252.758751519","1024","2","48000","-16","main","[(0, -252), (178, -178), (252, 0), (178, 178), (0, 252), (-178, 178), (-252, 0), (-178, -178)]","[]","47","odd","1","NA","656148","782735","782735","432664","431652","2495","575350","575350","2495","2495","446764","908688","2495","782735","906958","906213","906213","NA","736","study_X","0","14099","1","yes","1680"
"undefined","undefined","NA","NA","NA","14099","14099","black","no","legacy","legacy","legacy","0","green","(0, 123, 0)","color","absent","lowProb3","circular","same","same","same","swap","green","(0, 123, 0)","lowProb","lowProb6","circular","uniform","1","undefined","0","0.260416666667","1","1","321.354166667","1","50","61700","0","0","0","0","0","0","0","0","77","0","1","0.260416666667","321.354166667","50","61700","76","76","76","12/03/18 13:32:32","Default description","yes","<openexp._canvas.legacy.Legacy object at 0x054F07F0>","<openexp._canvas.legacy.Legacy object at 0x05544750>","<openexp._canvas.legacy.Legacy object at 0x054EC7D0>","<openexp._canvas.legacy.Legacy object at 0x054FB350>","<openexp._canvas.legacy.Legacy object at 0x05368190>","<openexp._canvas.legacy.Legacy object at 0x054E4270>","<openexp._canvas.legacy.Legacy object at 0x05507230>","<openexp._canvas.legacy.Legacy object at 0x05378910>","75","SpatProbMultiple3.osexp","C:/Userdata/Michel/SpatProbMultiple3","no","mono","no","18","no","white","no","yes","0.09","98","1050","legacy","315","51","51","1","C:/Userdata/Michel/SpatProbMultiple3/beh/subject-47.csv","legacy","9","192","25","Kafkaesque Koffka","3.2.5","yes","598477b2b83f69022949e7e9","47","green","circular","green","circular","0","/","1436","space","14099","14099","(80, 80, 80)","(0, 123, 0)","(177, 0, 0)","(155, 155, 155)","2","legacy","experiment","[6, 7, 0, 1, 2, 3, 4, 5]","/","2500","3000","0","8","252.758751519","1024","2","48000","-16","main","[(0, -252), (178, -178), (252, 0), (178, 178), (0, 252), (-178, 178), (-252, 0), (-178, -178)]","[]","47","odd","5","NA","656148","782735","782735","432664","431652","2495","575350","575350","2495","2495","446764","911297","2495","782735","909859","909114","909114","NA","736","study_X","0","14099","1","yes","1680"
"undefined","undefined","NA","NA","NA","14099","14099","black","no","legacy","legacy","legacy","0","green","(0, 123, 0)","color","present","highProb","rectangular","same","swap","swap","swap","red","(177, 0, 0)","lowProb","lowProb4","rectangular","uniform","1","undefined","0","0.265625","1","1","329.942708333","1","51","63349","0","0","0","0","0","0","0","0","78","0","1","0.265625","329.942708333","51","63349","77","77","77","12/03/18 13:32:32","Default description","yes","<openexp._canvas.legacy.Legacy object at 0x054F07F0>","<openexp._canvas.legacy.Legacy object at 0x05544750>","<openexp._canvas.legacy.Legacy object at 0x054EC7D0>","<openexp._canvas.legacy.Legacy object at 0x054FB350>","<openexp._canvas.legacy.Legacy object at 0x05368190>","<openexp._canvas.legacy.Legacy object at 0x054E4270>","<openexp._canvas.legacy.Legacy object at 0x054FB370>","<openexp._canvas.legacy.Legacy object at 0x05378910>","75","SpatProbMultiple3.osexp","C:/Userdata/Michel/SpatProbMultiple3","no","mono","no","18","no","white","no","yes","0.09","98","1050","legacy","45","52","52","1","C:/Userdata/Michel/SpatProbMultiple3/beh/subject-47.csv","legacy","9","192","25","Kafkaesque Koffka","3.2.5","yes","598477b2b83f69022949e7e9","47","green","rectangular","red","rectangular","0","\","1649","space","14099","14099","(80, 80, 80)","(0, 123, 0)","(177, 0, 0)","(155, 155, 155)","2","legacy","experiment","[6, 7, 0, 1, 2, 3, 4, 5]","\","2500","3000","0","8","252.758751519","1024","2","48000","-16","main","[(0, -252), (178, -178), (252, 0), (178, 178), (0, 252), (-178, 178), (-252, 0), (-178, -178)]","[]","47","odd","3","NA","656148","782735","782735","432664","431652","2495","575350","575350","2495","2495","446764","914129","2495","782735","912477","911733","911733","NA","736","study_X","0","14099","1","yes","1680"
