"acc","accuracy","average_response_time","avg_rt","background","bidi","canvas_backend","clock_backend","color_backend","compensation","cond_disColor","cond_disColorRGB","cond_disFeature","cond_disPresent","cond_disProbability","cond_disShape","cond_primingDisColor","cond_primingDisShape","cond_primingTarColor","cond_primingTarShape","cond_tarColor","cond_tarColorRGB","cond_tarLocation","cond_tarLocationLong","cond_tarShape","coordinates","correct","correct_continuePress","count_blockAcc","count_blockFeed","count_blockLoop","count_blockRT","count_blockSeq","count_blockSumCorrect","count_blockSumRT","count_continuePress","count_example","count_expSettings","count_exp_mainLoop","count_experiment","count_instructions","count_instructions1","count_instructions2","count_log","count_main","count_prepCanvas","count_totalAcc","count_totalRT","count_totalSumCorrect","count_totalSumRT","count_trialResp","count_trialSeq","count_trialTask","datetime","description","disable_garbage_collection","dispBlank","dispBlockStart","dispFeedBlock","dispFix","dispInstructions","dispSearch","dispStartScreen","distance2screen","experiment_file","experiment_path","font_bold","font_family","font_italic","font_size","font_underline","foreground","form_clicks","fullscreen","gaborFreq","gaborSize","height","keyboard_backend","lineOriTar","live_row","live_row_blockLoop","live_row_exp_mainLoop","logfile","mouse_backend","noExpBlocks","noExpTrials","noPracTrials","opensesame_codename","opensesame_version","osf_always_upload_experiment","osf_id","physical_screensize","previousDisColor","previousDisShape","previousTarColor","previousTarShape","repeat_cycle","response","responseTime","response_continuePress","response_time","response_time_continuePress","rgb_gray","rgb_green","rgb_red","rgb_white","round_decimals","sampler_backend","set_blockType","set_counterPositions","set_respCorrect","set_respTimeoutExp","set_respTimeoutPrac","set_rotation","set_setSize","sizeImaginary","sound_buf_size","sound_channels","sound_freq","sound_sample_size","start","stimPositions","stimuli","subject_nr","subject_parity","tarIdx","time_blockFeed","time_blockLoop","time_blockSeq","time_continuePress","time_example","time_expSettings","time_exp_mainLoop","time_experiment","time_instructions","time_instructions1","time_instructions2","time_log","time_main","time_prepCanvas","time_trialResp","time_trialSeq","time_trialTask","timing_EEGwait","timing_fix","title","total_correct","total_response_time","total_responses","uniform_coordinates","width"
"undefined","undefined","2239","2239","black","no","legacy","legacy","legacy","0","green","(0, 122, 0)","shape","present","highProb","rectangular","swap","same","same","swap","green","(0, 122, 0)","lowProb","lowProb2","circular","uniform","1","undefined","0.00520833333333","1","1","4.484375","1","1","861","0","0","0","0","0","0","0","0","25","0","1","0.00520833333333","4.484375","1","861","25","25","25","08/24/17 10:08:16","Default description","yes","<openexp._canvas.legacy.legacy object at 0x04A527F0>","<openexp._canvas.legacy.legacy object at 0x04A5D7B0>","<openexp._canvas.legacy.legacy object at 0x04A47370>","<openexp._canvas.legacy.legacy object at 0x04B3F9D0>","<openexp._canvas.legacy.legacy object at 0x04B114B0>","<openexp._canvas.legacy.legacy object at 0x04A4E550>","<openexp._canvas.legacy.legacy object at 0x04B12C10>","75","IndividualPriorityWithDis_v1.osexp","C:/Userdata/Michel/SpatialProb/IndividualPriorityMaps/Experiment2","no","mono","no","18","no","white","no","yes","0.09","98","1050","legacy","45","0","0","1","C:/Userdata/Michel/SpatialProb/IndividualPriorityMaps/Experiment2/data/subject-19.csv","legacy","9","192","25","Jazzy James","3.1.3","yes","598477b2b83f69022949e7e9","47","green","rectangular","green","circular","0","\","861","space","2239","2239","(80, 80, 80)","(0, 122, 0)","(179, 0, 0)","(155, 155, 155)","2","legacy","experiment","[2, 3, 4, 5, 6, 7, 0, 1]","\","2500","3000","0","8","252.758751519","1024","2","48000","-16","main","[(0, -252), (178, -178), (252, 0), (178, 178), (0, 252), (-178, 178), (-252, 0), (-178, -178)]","[]","19","odd","4","66789","71461","71461","12835","11829","1737","16977","16977","1737","1737","15075","78506","1736","71461","77641","71850","71850","NA","714","study_X","0","2239","1","yes","1680"
"undefined","undefined","2239","2239","black","no","legacy","legacy","legacy","0","red","(179, 0, 0)","color","present","lowProb5","rectangular","swap","same","same","swap","green","(0, 122, 0)","lowProb","lowProb2","rectangular","uniform","1","undefined","0.0104166666667","1","1","7.22916666667","1","2","1388","0","0","0","0","0","0","0","0","26","0","1","0.0104166666667","7.22916666667","2","1388","26","26","26","08/24/17 10:08:16","Default description","yes","<openexp._canvas.legacy.legacy object at 0x04A527F0>","<openexp._canvas.legacy.legacy object at 0x04A5D7B0>","<openexp._canvas.legacy.legacy object at 0x04A47370>","<openexp._canvas.legacy.legacy object at 0x04B3F9D0>","<openexp._canvas.legacy.legacy object at 0x04B114B0>","<openexp._canvas.legacy.legacy object at 0x04A5DFB0>","<openexp._canvas.legacy.legacy object at 0x04B12C10>","75","IndividualPriorityWithDis_v1.osexp","C:/Userdata/Michel/SpatialProb/IndividualPriorityMaps/Experiment2","no","mono","no","18","no","white","no","yes","0.09","98","1050","legacy","45","1","1","1","C:/Userdata/Michel/SpatialProb/IndividualPriorityMaps/Experiment2/data/subject-19.csv","legacy","9","192","25","Jazzy James","3.1.3","yes","598477b2b83f69022949e7e9","47","red","rectangular","green","rectangular","0","\","527","space","2239","2239","(80, 80, 80)","(0, 122, 0)","(179, 0, 0)","(155, 155, 155)","2","legacy","experiment","[2, 3, 4, 5, 6, 7, 0, 1]","\","2500","3000","0","8","252.758751519","1024","2","48000","-16","main","[(0, -252), (178, -178), (252, 0), (178, 178), (0, 252), (-178, 178), (-252, 0), (-178, -178)]","[]","19","odd","4","66789","71461","71461","12835","11829","1737","16977","16977","1737","1737","15075","80178","1736","71461","79647","78927","78927","NA","714","study_X","0","2239","1","yes","1680"
"undefined","undefined","2239","2239","black","no","legacy","legacy","legacy","0","red","(179, 0, 0)","shape","present","lowProb4","circular","same","swap","swap","same","red","(179, 0, 0)","highProbColor","highProbColor","rectangular","uniform","1","undefined","0.015625","1","1","11.0052083333","1","3","2113","0","0","0","0","0","0","0","0","27","0","1","0.015625","11.0052083333","3","2113","27","27","27","08/24/17 10:08:16","Default description","yes","<openexp._canvas.legacy.legacy object at 0x04A527F0>","<openexp._canvas.legacy.legacy object at 0x04A5D7B0>","<openexp._canvas.legacy.legacy object at 0x04A47370>","<openexp._canvas.legacy.legacy object at 0x04B3F9D0>","<openexp._canvas.legacy.legacy object at 0x04B114B0>","<openexp._canvas.legacy.legacy object at 0x04A4F950>","<openexp._canvas.legacy.legacy object at 0x04B12C10>","75","IndividualPriorityWithDis_v1.osexp","C:/Userdata/Michel/SpatialProb/IndividualPriorityMaps/Experiment2","no","mono","no","18","no","white","no","yes","0.09","98","1050","legacy","45","2","2","1","C:/Userdata/Michel/SpatialProb/IndividualPriorityMaps/Experiment2/data/subject-19.csv","legacy","9","192","25","Jazzy James","3.1.3","yes","598477b2b83f69022949e7e9","47","red","circular","red","rectangular","0","\","725","space","2239","2239","(80, 80, 80)","(0, 122, 0)","(179, 0, 0)","(155, 155, 155)","2","legacy","experiment","[2, 3, 4, 5, 6, 7, 0, 1]","\","2500","3000","0","8","252.758751519","1024","2","48000","-16","main","[(0, -252), (178, -178), (252, 0), (178, 178), (0, 252), (-178, 178), (-252, 0), (-178, -178)]","[]","19","odd","2","66789","71461","71461","12835","11829","1737","16977","16977","1737","1737","15075","82033","1736","71461","81305","80585","80585","NA","714","study_X","0","2239","1","yes","1680"
"undefined","undefined","2239","2239","black","no","legacy","legacy","legacy","0","green","(0, 122, 0)","shape","present","highProb","rectangular","swap","swap","swap","swap","green","(0, 122, 0)","highProbColor","highProbColor","circular","uniform","1","undefined","0.0208333333333","1","1","13.8802083333","1","4","2665","0","0","0","0","0","0","0","0","28","0","1","0.0208333333333","13.8802083333","4","2665","28","28","28","08/24/17 10:08:16","Default description","yes","<openexp._canvas.legacy.legacy object at 0x04A527F0>","<openexp._canvas.legacy.legacy object at 0x04A5D7B0>","<openexp._canvas.legacy.legacy object at 0x04A47370>","<openexp._canvas.legacy.legacy object at 0x04B3F9D0>","<openexp._canvas.legacy.legacy object at 0x04B114B0>","<openexp._canvas.legacy.legacy object at 0x04A474D0>","<openexp._canvas.legacy.legacy object at 0x04B12C10>","75","IndividualPriorityWithDis_v1.osexp","C:/Userdata/Michel/SpatialProb/IndividualPriorityMaps/Experiment2","no","mono","no","18","no","white","no","yes","0.09","98","1050","legacy","45","3","3","1","C:/Userdata/Michel/SpatialProb/IndividualPriorityMaps/Experiment2/data/subject-19.csv","legacy","9","192","25","Jazzy James","3.1.3","yes","598477b2b83f69022949e7e9","47","green","rectangular","green","circular","0","\","552","space","2239","2239","(80, 80, 80)","(0, 122, 0)","(179, 0, 0)","(155, 155, 155)","2","legacy","experiment","[2, 3, 4, 5, 6, 7, 0, 1]","\","2500","3000","0","8","252.758751519","1024","2","48000","-16","main","[(0, -252), (178, -178), (252, 0), (178, 178), (0, 252), (-178, 178), (-252, 0), (-178, -178)]","[]","19","odd","2","66789","71461","71461","12835","11829","1737","16977","16977","1737","1737","15075","83721","1736","71461","83166","82446","82446","NA","714","study_X","0","2239","1","yes","1680"
"undefined","undefined","2239","2239","black","no","legacy","legacy","legacy","0","green","(0, 122, 0)","shape","present","highProb","circular","same","swap","same","swap","green","(0, 122, 0)","lowProb","lowProb5","rectangular","uniform","1","undefined","0.0260416666667","1","1","16.96875","1","5","3258","0","0","0","0","0","0","0","0","29","0","1","0.0260416666667","16.96875","5","3258","29","29","29","08/24/17 10:08:16","Default description","yes","<openexp._canvas.legacy.legacy object at 0x04A527F0>","<openexp._canvas.legacy.legacy object at 0x04A5D7B0>","<openexp._canvas.legacy.legacy object at 0x04A47370>","<openexp._canvas.legacy.legacy object at 0x04B3F9D0>","<openexp._canvas.legacy.legacy object at 0x04B114B0>","<openexp._canvas.legacy.legacy object at 0x04B3FF70>","<openexp._canvas.legacy.legacy object at 0x04B12C10>","75","IndividualPriorityWithDis_v1.osexp","C:/Userdata/Michel/SpatialProb/IndividualPriorityMaps/Experiment2","no","mono","no","18","no","white","no","yes","0.09","98","1050","legacy","45","4","4","1","C:/Userdata/Michel/SpatialProb/IndividualPriorityMaps/Experiment2/data/subject-19.csv","legacy","9","192","25","Jazzy James","3.1.3","yes","598477b2b83f69022949e7e9","47","green","circular","green","rectangular","0","\","593","space","2239","2239","(80, 80, 80)","(0, 122, 0)","(179, 0, 0)","(155, 155, 155)","2","legacy","experiment","[2, 3, 4, 5, 6, 7, 0, 1]","\","2500","3000","0","8","252.758751519","1024","2","48000","-16","main","[(0, -252), (178, -178), (252, 0), (178, 178), (0, 252), (-178, 178), (-252, 0), (-178, -178)]","[]","19","odd","0","66789","71461","71461","12835","11829","1737","16977","16977","1737","1737","15075","85442","1736","71461","84846","84126","84126","NA","714","study_X","0","2239","1","yes","1680"
"undefined","undefined","2239","2239","black","no","legacy","legacy","legacy","0","red","(179, 0, 0)","color","absent","lowProb3","circular","swap","same","swap","swap","red","(179, 0, 0)","lowProb","lowProb5","circular","uniform","1","undefined","0.03125","1","1","19.5729166667","1","6","3758","0","0","0","0","0","0","0","0","30","0","1","0.03125","19.5729166667","6","3758","30","30","30","08/24/17 10:08:16","Default description","yes","<openexp._canvas.legacy.legacy object at 0x04A527F0>","<openexp._canvas.legacy.legacy object at 0x04A5D7B0>","<openexp._canvas.legacy.legacy object at 0x04A47370>","<openexp._canvas.legacy.legacy object at 0x04B3F9D0>","<openexp._canvas.legacy.legacy object at 0x04B114B0>","<openexp._canvas.legacy.legacy object at 0x04A4E610>","<openexp._canvas.legacy.legacy object at 0x04B12C10>","75","IndividualPriorityWithDis_v1.osexp","C:/Userdata/Michel/SpatialProb/IndividualPriorityMaps/Experiment2","no","mono","no","18","no","white","no","yes","0.09","98","1050","legacy","45","5","5","1","C:/Userdata/Michel/SpatialProb/IndividualPriorityMaps/Experiment2/data/subject-19.csv","legacy","9","192","25","Jazzy James","3.1.3","yes","598477b2b83f69022949e7e9","47","red","circular","red","circular","0","\","500","space","2239","2239","(80, 80, 80)","(0, 122, 0)","(179, 0, 0)","(155, 155, 155)","2","legacy","experiment","[2, 3, 4, 5, 6, 7, 0, 1]","\","2500","3000","0","8","252.758751519","1024","2","48000","-16","main","[(0, -252), (178, -178), (252, 0), (178, 178), (0, 252), (-178, 178), (-252, 0), (-178, -178)]","[]","19","odd","0","66789","71461","71461","12835","11829","1737","16977","16977","1737","1737","15075","87074","1736","71461","86571","85851","85851","NA","714","study_X","0","2239","1","yes","1680"
"undefined","undefined","2239","2239","black","no","legacy","legacy","legacy","0","red","(179, 0, 0)","color","present","highProb","circular","same","same","swap","same","green","(0, 122, 0)","lowProb","lowProb6","circular","uniform","1","undefined","0.0364583333333","1","1","23.4010416667","1","7","4493","0","0","0","0","0","0","0","0","31","0","1","0.0364583333333","23.4010416667","7","4493","31","31","31","08/24/17 10:08:16","Default description","yes","<openexp._canvas.legacy.legacy object at 0x04A527F0>","<openexp._canvas.legacy.legacy object at 0x04A5D7B0>","<openexp._canvas.legacy.legacy object at 0x04A47370>","<openexp._canvas.legacy.legacy object at 0x04B3F9D0>","<openexp._canvas.legacy.legacy object at 0x04B114B0>","<openexp._canvas.legacy.legacy object at 0x04A4F930>","<openexp._canvas.legacy.legacy object at 0x04B12C10>","75","IndividualPriorityWithDis_v1.osexp","C:/Userdata/Michel/SpatialProb/IndividualPriorityMaps/Experiment2","no","mono","no","18","no","white","no","yes","0.09","98","1050","legacy","315","6","6","1","C:/Userdata/Michel/SpatialProb/IndividualPriorityMaps/Experiment2/data/subject-19.csv","legacy","9","192","25","Jazzy James","3.1.3","yes","598477b2b83f69022949e7e9","47","red","circular","green","circular","0","/","735","space","2239","2239","(80, 80, 80)","(0, 122, 0)","(179, 0, 0)","(155, 155, 155)","2","legacy","experiment","[2, 3, 4, 5, 6, 7, 0, 1]","/","2500","3000","0","8","252.758751519","1024","2","48000","-16","main","[(0, -252), (178, -178), (252, 0), (178, 178), (0, 252), (-178, 178), (-252, 0), (-178, -178)]","[]","19","odd","1","66789","71461","71461","12835","11829","1737","16977","16977","1737","1737","15075","88946","1736","71461","88208","87488","87488","NA","714","study_X","0","2239","1","yes","1680"
"undefined","undefined","2239","2239","black","no","legacy","legacy","legacy","0","red","(179, 0, 0)","color","present","highProb","rectangular","same","swap","same","swap","green","(0, 122, 0)","lowProb","lowProb6","rectangular","uniform","1","undefined","0.0416666666667","1","1","26.703125","1","8","5127","0","0","0","0","0","0","0","0","32","0","1","0.0416666666667","26.703125","8","5127","32","32","32","08/24/17 10:08:16","Default description","yes","<openexp._canvas.legacy.legacy object at 0x04A527F0>","<openexp._canvas.legacy.legacy object at 0x04A5D7B0>","<openexp._canvas.legacy.legacy object at 0x04A47370>","<openexp._canvas.legacy.legacy object at 0x04B3F9D0>","<openexp._canvas.legacy.legacy object at 0x04B114B0>","<openexp._canvas.legacy.legacy object at 0x04A4E070>","<openexp._canvas.legacy.legacy object at 0x04B12C10>","75","IndividualPriorityWithDis_v1.osexp","C:/Userdata/Michel/SpatialProb/IndividualPriorityMaps/Experiment2","no","mono","no","18","no","white","no","yes","0.09","98","1050","legacy","45","7","7","1","C:/Userdata/Michel/SpatialProb/IndividualPriorityMaps/Experiment2/data/subject-19.csv","legacy","9","192","25","Jazzy James","3.1.3","yes","598477b2b83f69022949e7e9","47","red","rectangular","green","rectangular","0","\","634","space","2239","2239","(80, 80, 80)","(0, 122, 0)","(179, 0, 0)","(155, 155, 155)","2","legacy","experiment","[2, 3, 4, 5, 6, 7, 0, 1]","\","2500","3000","0","8","252.758751519","1024","2","48000","-16","main","[(0, -252), (178, -178), (252, 0), (178, 178), (0, 252), (-178, 178), (-252, 0), (-178, -178)]","[]","19","odd","1","66789","71461","71461","12835","11829","1737","16977","16977","1737","1737","15075","90722","1736","71461","90084","89365","89365","NA","714","study_X","0","2239","1","yes","1680"
"undefined","undefined","2239","2239","black","no","legacy","legacy","legacy","0","green","(0, 122, 0)","color","present","highProb","rectangular","swap","same","swap","same","red","(179, 0, 0)","lowProb","lowProb5","rectangular","uniform","1","undefined","0.046875","1","1","29.8020833333","1","9","5722","0","0","0","0","0","0","0","0","33","0","1","0.046875","29.8020833333","9","5722","33","33","33","08/24/17 10:08:16","Default description","yes","<openexp._canvas.legacy.legacy object at 0x04A527F0>","<openexp._canvas.legacy.legacy object at 0x04A5D7B0>","<openexp._canvas.legacy.legacy object at 0x04A47370>","<openexp._canvas.legacy.legacy object at 0x04B3F9D0>","<openexp._canvas.legacy.legacy object at 0x04B114B0>","<openexp._canvas.legacy.legacy object at 0x04A4F3B0>","<openexp._canvas.legacy.legacy object at 0x04B12C10>","75","IndividualPriorityWithDis_v1.osexp","C:/Userdata/Michel/SpatialProb/IndividualPriorityMaps/Experiment2","no","mono","no","18","no","white","no","yes","0.09","98","1050","legacy","45","8","8","1","C:/Userdata/Michel/SpatialProb/IndividualPriorityMaps/Experiment2/data/subject-19.csv","legacy","9","192","25","Jazzy James","3.1.3","yes","598477b2b83f69022949e7e9","47","green","rectangular","red","rectangular","0","\","595","space","2239","2239","(80, 80, 80)","(0, 122, 0)","(179, 0, 0)","(155, 155, 155)","2","legacy","experiment","[2, 3, 4, 5, 6, 7, 0, 1]","\","2500","3000","0","8","252.758751519","1024","2","48000","-16","main","[(0, -252), (178, -178), (252, 0), (178, 178), (0, 252), (-178, 178), (-252, 0), (-178, -178)]","[]","19","odd","0","66789","71461","71461","12835","11829","1737","16977","16977","1737","1737","15075","92442","1736","71461","91843","91123","91123","NA","714","study_X","0","2239","1","yes","1680"
"undefined","undefined","2239","2239","black","no","legacy","legacy","legacy","0","green","(0, 122, 0)","color","present","highProb","rectangular","same","same","same","same","red","(179, 0, 0)","lowProb","lowProb4","rectangular","uniform","1","undefined","0.0520833333333","1","1","32.6614583333","1","10","6271","0","0","0","0","0","0","0","0","34","0","1","0.0520833333333","32.6614583333","10","6271","34","34","34","08/24/17 10:08:16","Default description","yes","<openexp._canvas.legacy.legacy object at 0x04A527F0>","<openexp._canvas.legacy.legacy object at 0x04A5D7B0>","<openexp._canvas.legacy.legacy object at 0x04A47370>","<openexp._canvas.legacy.legacy object at 0x04B3F9D0>","<openexp._canvas.legacy.legacy object at 0x04B114B0>","<openexp._canvas.legacy.legacy object at 0x04B3F0F0>","<openexp._canvas.legacy.legacy object at 0x04B12C10>","75","IndividualPriorityWithDis_v1.osexp","C:/Userdata/Michel/SpatialProb/IndividualPriorityMaps/Experiment2","no","mono","no","18","no","white","no","yes","0.09","98","1050","legacy","45","9","9","1","C:/Userdata/Michel/SpatialProb/IndividualPriorityMaps/Experiment2/data/subject-19.csv","legacy","9","192","25","Jazzy James","3.1.3","yes","598477b2b83f69022949e7e9","47","green","rectangular","red","rectangular","0","\","549","space","2239","2239","(80, 80, 80)","(0, 122, 0)","(179, 0, 0)","(155, 155, 155)","2","legacy","experiment","[2, 3, 4, 5, 6, 7, 0, 1]","\","2500","3000","0","8","252.758751519","1024","2","48000","-16","main","[(0, -252), (178, -178), (252, 0), (178, 178), (0, 252), (-178, 178), (-252, 0), (-178, -178)]","[]","19","odd","7","66789","71461","71461","12835","11829","1737","16977","16977","1737","1737","15075","94114","1736","71461","93562","92843","92843","NA","714","study_X","0","2239","1","yes","1680"
"undefined","undefined","2239","2239","black","no","legacy","legacy","legacy","0","green","(0, 122, 0)","color","present","highProb","circular","same","swap","same","swap","red","(179, 0, 0)","lowProb","lowProb3","circular","uniform","1","undefined","0.0572916666667","1","1","35.8489583333","1","11","6883","0","0","0","0","0","0","0","0","35","0","1","0.0572916666667","35.8489583333","11","6883","35","35","35","08/24/17 10:08:16","Default description","yes","<openexp._canvas.legacy.legacy object at 0x04A527F0>","<openexp._canvas.legacy.legacy object at 0x04A5D7B0>","<openexp._canvas.legacy.legacy object at 0x04A47370>","<openexp._canvas.legacy.legacy object at 0x04B3F9D0>","<openexp._canvas.legacy.legacy object at 0x04B114B0>","<openexp._canvas.legacy.legacy object at 0x04A59110>","<openexp._canvas.legacy.legacy object at 0x04B12C10>","75","IndividualPriorityWithDis_v1.osexp","C:/Userdata/Michel/SpatialProb/IndividualPriorityMaps/Experiment2","no","mono","no","18","no","white","no","yes","0.09","98","1050","legacy","315","10","10","1","C:/Userdata/Michel/SpatialProb/IndividualPriorityMaps/Experiment2/data/subject-19.csv","legacy","9","192","25","Jazzy James","3.1.3","yes","598477b2b83f69022949e7e9","47","green","circular","red","circular","0","/","612","space","2239","2239","(80, 80, 80)","(0, 122, 0)","(179, 0, 0)","(155, 155, 155)","2","legacy","experiment","[2, 3, 4, 5, 6, 7, 0, 1]","/","2500","3000","0","8","252.758751519","1024","2","48000","-16","main","[(0, -252), (178, -178), (252, 0), (178, 178), (0, 252), (-178, 178), (-252, 0), (-178, -178)]","[]","19","odd","5","66789","71461","71461","12835","11829","1737","16977","16977","1737","1737","15075","95866","1736","71461","95250","94530","94530","NA","714","study_X","0","2239","1","yes","1680"
"undefined","undefined","2239","2239","black","no","legacy","legacy","legacy","0","green","(0, 122, 0)","color","present","lowProb3","rectangular","same","swap","same","swap","red","(179, 0, 0)","lowProb","lowProb5","rectangular","uniform","1","undefined","0.0625","1","1","39.2135416667","1","12","7529","0","0","0","0","0","0","0","0","36","0","1","0.0625","39.2135416667","12","7529","36","36","36","08/24/17 10:08:16","Default description","yes","<openexp._canvas.legacy.legacy object at 0x04A527F0>","<openexp._canvas.legacy.legacy object at 0x04A5D7B0>","<openexp._canvas.legacy.legacy object at 0x04A47370>","<openexp._canvas.legacy.legacy object at 0x04B3F9D0>","<openexp._canvas.legacy.legacy object at 0x04B114B0>","<openexp._canvas.legacy.legacy object at 0x04A4FEB0>","<openexp._canvas.legacy.legacy object at 0x04B12C10>","75","IndividualPriorityWithDis_v1.osexp","C:/Userdata/Michel/SpatialProb/IndividualPriorityMaps/Experiment2","no","mono","no","18","no","white","no","yes","0.09","98","1050","legacy","315","11","11","1","C:/Userdata/Michel/SpatialProb/IndividualPriorityMaps/Experiment2/data/subject-19.csv","legacy","9","192","25","Jazzy James","3.1.3","yes","598477b2b83f69022949e7e9","47","green","rectangular","red","rectangular","0","/","646","space","2239","2239","(80, 80, 80)","(0, 122, 0)","(179, 0, 0)","(155, 155, 155)","2","legacy","experiment","[2, 3, 4, 5, 6, 7, 0, 1]","/","2500","3000","0","8","252.758751519","1024","2","48000","-16","main","[(0, -252), (178, -178), (252, 0), (178, 178), (0, 252), (-178, 178), (-252, 0), (-178, -178)]","[]","19","odd","0","66789","71461","71461","12835","11829","1737","16977","16977","1737","1737","15075","97633","1736","71461","96984","96264","96264","NA","714","study_X","0","2239","1","yes","1680"
"undefined","undefined","2239","2239","black","no","legacy","legacy","legacy","0","red","(179, 0, 0)","shape","present","highProb","circular","swap","swap","same","same","red","(179, 0, 0)","highProbColor","highProbColor","rectangular","uniform","1","undefined","0.0677083333333","1","1","42.6510416667","1","13","8189","0","0","0","0","0","0","0","0","37","0","1","0.0677083333333","42.6510416667","13","8189","37","37","37","08/24/17 10:08:16","Default description","yes","<openexp._canvas.legacy.legacy object at 0x04A527F0>","<openexp._canvas.legacy.legacy object at 0x04A5D7B0>","<openexp._canvas.legacy.legacy object at 0x04A47370>","<openexp._canvas.legacy.legacy object at 0x04B3F9D0>","<openexp._canvas.legacy.legacy object at 0x04B114B0>","<openexp._canvas.legacy.legacy object at 0x04A62710>","<openexp._canvas.legacy.legacy object at 0x04B12C10>","75","IndividualPriorityWithDis_v1.osexp","C:/Userdata/Michel/SpatialProb/IndividualPriorityMaps/Experiment2","no","mono","no","18","no","white","no","yes","0.09","98","1050","legacy","315","12","12","1","C:/Userdata/Michel/SpatialProb/IndividualPriorityMaps/Experiment2/data/subject-19.csv","legacy","9","192","25","Jazzy James","3.1.3","yes","598477b2b83f69022949e7e9","47","red","circular","red","rectangular","0","/","660","space","2239","2239","(80, 80, 80)","(0, 122, 0)","(179, 0, 0)","(155, 155, 155)","2","legacy","experiment","[2, 3, 4, 5, 6, 7, 0, 1]","/","2500","3000","0","8","252.758751519","1024","2","48000","-16","main","[(0, -252), (178, -178), (252, 0), (178, 178), (0, 252), (-178, 178), (-252, 0), (-178, -178)]","[]","19","odd","2","66789","71461","71461","12835","11829","1737","16977","16977","1737","1737","15075","99417","1736","71461","98755","98035","98035","NA","714","study_X","0","2239","1","yes","1680"
"undefined","undefined","2239","2239","black","no","legacy","legacy","legacy","0","red","(179, 0, 0)","shape","present","highProb","rectangular","same","swap","same","swap","red","(179, 0, 0)","lowProb","lowProb5","circular","uniform","1","undefined","0.0729166666667","1","1","47.3854166667","1","14","9098","0","0","0","0","0","0","0","0","38","0","1","0.0729166666667","47.3854166667","14","9098","38","38","38","08/24/17 10:08:16","Default description","yes","<openexp._canvas.legacy.legacy object at 0x04A527F0>","<openexp._canvas.legacy.legacy object at 0x04A5D7B0>","<openexp._canvas.legacy.legacy object at 0x04A47370>","<openexp._canvas.legacy.legacy object at 0x04B3F9D0>","<openexp._canvas.legacy.legacy object at 0x04B114B0>","<openexp._canvas.legacy.legacy object at 0x04A4F8D0>","<openexp._canvas.legacy.legacy object at 0x04B12C10>","75","IndividualPriorityWithDis_v1.osexp","C:/Userdata/Michel/SpatialProb/IndividualPriorityMaps/Experiment2","no","mono","no","18","no","white","no","yes","0.09","98","1050","legacy","45","13","13","1","C:/Userdata/Michel/SpatialProb/IndividualPriorityMaps/Experiment2/data/subject-19.csv","legacy","9","192","25","Jazzy James","3.1.3","yes","598477b2b83f69022949e7e9","47","red","rectangular","red","circular","0","\","909","space","2239","2239","(80, 80, 80)","(0, 122, 0)","(179, 0, 0)","(155, 155, 155)","2","legacy","experiment","[2, 3, 4, 5, 6, 7, 0, 1]","\","2500","3000","0","8","252.758751519","1024","2","48000","-16","main","[(0, -252), (178, -178), (252, 0), (178, 178), (0, 252), (-178, 178), (-252, 0), (-178, -178)]","[]","19","odd","0","66789","71461","71461","12835","11829","1737","16977","16977","1737","1737","15075","101450","1736","71461","100539","99819","99819","NA","714","study_X","0","2239","1","yes","1680"
"undefined","undefined","2239","2239","black","no","legacy","legacy","legacy","0","green","(0, 122, 0)","shape","present","highProb","circular","swap","swap","swap","swap","green","(0, 122, 0)","lowProb","lowProb4","rectangular","uniform","1","undefined","0.078125","1","1","50.6145833333","1","15","9718","0","0","0","0","0","0","0","0","39","0","1","0.078125","50.6145833333","15","9718","39","39","39","08/24/17 10:08:16","Default description","yes","<openexp._canvas.legacy.legacy object at 0x04A527F0>","<openexp._canvas.legacy.legacy object at 0x04A5D7B0>","<openexp._canvas.legacy.legacy object at 0x04A47370>","<openexp._canvas.legacy.legacy object at 0x04B3F9D0>","<openexp._canvas.legacy.legacy object at 0x04B114B0>","<openexp._canvas.legacy.legacy object at 0x04A4F910>","<openexp._canvas.legacy.legacy object at 0x04B12C10>","75","IndividualPriorityWithDis_v1.osexp","C:/Userdata/Michel/SpatialProb/IndividualPriorityMaps/Experiment2","no","mono","no","18","no","white","no","yes","0.09","98","1050","legacy","315","14","14","1","C:/Userdata/Michel/SpatialProb/IndividualPriorityMaps/Experiment2/data/subject-19.csv","legacy","9","192","25","Jazzy James","3.1.3","yes","598477b2b83f69022949e7e9","47","green","circular","green","rectangular","0","/","620","space","2239","2239","(80, 80, 80)","(0, 122, 0)","(179, 0, 0)","(155, 155, 155)","2","legacy","experiment","[2, 3, 4, 5, 6, 7, 0, 1]","/","2500","3000","0","8","252.758751519","1024","2","48000","-16","main","[(0, -252), (178, -178), (252, 0), (178, 178), (0, 252), (-178, 178), (-252, 0), (-178, -178)]","[]","19","odd","7","66789","71461","71461","12835","11829","1737","16977","16977","1737","1737","15075","103194","1736","71461","102571","101851","101851","NA","714","study_X","0","2239","1","yes","1680"
"undefined","undefined","2239","2239","black","no","legacy","legacy","legacy","0","red","(179, 0, 0)","shape","present","lowProb2","rectangular","swap","swap","swap","swap","red","(179, 0, 0)","lowProb","lowProb3","circular","uniform","1","undefined","0.0833333333333","1","1","54.4166666667","1","16","10448","0","0","0","0","0","0","0","0","40","0","1","0.0833333333333","54.4166666667","16","10448","40","40","40","08/24/17 10:08:16","Default description","yes","<openexp._canvas.legacy.legacy object at 0x04A527F0>","<openexp._canvas.legacy.legacy object at 0x04A5D7B0>","<openexp._canvas.legacy.legacy object at 0x04A47370>","<openexp._canvas.legacy.legacy object at 0x04B3F9D0>","<openexp._canvas.legacy.legacy object at 0x04B114B0>","<openexp._canvas.legacy.legacy object at 0x04A4E850>","<openexp._canvas.legacy.legacy object at 0x04B12C10>","75","IndividualPriorityWithDis_v1.osexp","C:/Userdata/Michel/SpatialProb/IndividualPriorityMaps/Experiment2","no","mono","no","18","no","white","no","yes","0.09","98","1050","legacy","315","15","15","1","C:/Userdata/Michel/SpatialProb/IndividualPriorityMaps/Experiment2/data/subject-19.csv","legacy","9","192","25","Jazzy James","3.1.3","yes","598477b2b83f69022949e7e9","47","red","rectangular","red","circular","0","/","730","space","2239","2239","(80, 80, 80)","(0, 122, 0)","(179, 0, 0)","(155, 155, 155)","2","legacy","experiment","[2, 3, 4, 5, 6, 7, 0, 1]","/","2500","3000","0","8","252.758751519","1024","2","48000","-16","main","[(0, -252), (178, -178), (252, 0), (178, 178), (0, 252), (-178, 178), (-252, 0), (-178, -178)]","[]","19","odd","5","66789","71461","71461","12835","11829","1737","16977","16977","1737","1737","15075","105050","1736","71461","104318","103598","103598","NA","714","study_X","0","2239","1","yes","1680"
"undefined","undefined","2239","2239","black","no","legacy","legacy","legacy","0","red","(179, 0, 0)","color","present","lowProb4","rectangular","same","same","swap","swap","green","(0, 122, 0)","lowProb","lowProb2","rectangular","uniform","1","undefined","0.0885416666667","1","1","57.1302083333","1","17","10969","0","0","0","0","0","0","0","0","41","0","1","0.0885416666667","57.1302083333","17","10969","41","41","41","08/24/17 10:08:16","Default description","yes","<openexp._canvas.legacy.legacy object at 0x04A527F0>","<openexp._canvas.legacy.legacy object at 0x04A5D7B0>","<openexp._canvas.legacy.legacy object at 0x04A47370>","<openexp._canvas.legacy.legacy object at 0x04B3F9D0>","<openexp._canvas.legacy.legacy object at 0x04B114B0>","<openexp._canvas.legacy.legacy object at 0x04A5D950>","<openexp._canvas.legacy.legacy object at 0x04B12C10>","75","IndividualPriorityWithDis_v1.osexp","C:/Userdata/Michel/SpatialProb/IndividualPriorityMaps/Experiment2","no","mono","no","18","no","white","no","yes","0.09","98","1050","legacy","45","16","16","1","C:/Userdata/Michel/SpatialProb/IndividualPriorityMaps/Experiment2/data/subject-19.csv","legacy","9","192","25","Jazzy James","3.1.3","yes","598477b2b83f69022949e7e9","47","red","rectangular","green","rectangular","0","\","521","space","2239","2239","(80, 80, 80)","(0, 122, 0)","(179, 0, 0)","(155, 155, 155)","2","legacy","experiment","[2, 3, 4, 5, 6, 7, 0, 1]","\","2500","3000","0","8","252.758751519","1024","2","48000","-16","main","[(0, -252), (178, -178), (252, 0), (178, 178), (0, 252), (-178, 178), (-252, 0), (-178, -178)]","[]","19","odd","4","66789","71461","71461","12835","11829","1737","16977","16977","1737","1737","15075","106698","1736","71461","106173","105453","105453","NA","714","study_X","0","2239","1","yes","1680"
"undefined","undefined","2239","2239","black","no","legacy","legacy","legacy","0","red","(179, 0, 0)","shape","present","highProb","circular","same","swap","swap","same","red","(179, 0, 0)","lowProb","lowProb5","rectangular","uniform","1","undefined","0.09375","1","1","59.78125","1","18","11478","0","0","0","0","0","0","0","0","42","0","1","0.09375","59.78125","18","11478","42","42","42","08/24/17 10:08:16","Default description","yes","<openexp._canvas.legacy.legacy object at 0x04A527F0>","<openexp._canvas.legacy.legacy object at 0x04A5D7B0>","<openexp._canvas.legacy.legacy object at 0x04A47370>","<openexp._canvas.legacy.legacy object at 0x04B3F9D0>","<openexp._canvas.legacy.legacy object at 0x04B114B0>","<openexp._canvas.legacy.legacy object at 0x04A4FBF0>","<openexp._canvas.legacy.legacy object at 0x04B12C10>","75","IndividualPriorityWithDis_v1.osexp","C:/Userdata/Michel/SpatialProb/IndividualPriorityMaps/Experiment2","no","mono","no","18","no","white","no","yes","0.09","98","1050","legacy","315","17","17","1","C:/Userdata/Michel/SpatialProb/IndividualPriorityMaps/Experiment2/data/subject-19.csv","legacy","9","192","25","Jazzy James","3.1.3","yes","598477b2b83f69022949e7e9","47","red","circular","red","rectangular","0","/","509","space","2239","2239","(80, 80, 80)","(0, 122, 0)","(179, 0, 0)","(155, 155, 155)","2","legacy","experiment","[2, 3, 4, 5, 6, 7, 0, 1]","/","2500","3000","0","8","252.758751519","1024","2","48000","-16","main","[(0, -252), (178, -178), (252, 0), (178, 178), (0, 252), (-178, 178), (-252, 0), (-178, -178)]","[]","19","odd","0","66789","71461","71461","12835","11829","1737","16977","16977","1737","1737","15075","108330","1736","71461","107817","107097","107097","NA","714","study_X","0","2239","1","yes","1680"
"undefined","undefined","2239","2239","black","no","legacy","legacy","legacy","0","green","(0, 122, 0)","color","absent","lowProb1","rectangular","swap","swap","swap","same","green","(0, 122, 0)","lowProb","lowProb3","rectangular","uniform","1","undefined","0.0989583333333","1","1","64.0833333333","1","19","12304","0","0","0","0","0","0","0","0","43","0","1","0.0989583333333","64.0833333333","19","12304","43","43","43","08/24/17 10:08:16","Default description","yes","<openexp._canvas.legacy.legacy object at 0x04A527F0>","<openexp._canvas.legacy.legacy object at 0x04A5D7B0>","<openexp._canvas.legacy.legacy object at 0x04A47370>","<openexp._canvas.legacy.legacy object at 0x04B3F9D0>","<openexp._canvas.legacy.legacy object at 0x04B114B0>","<openexp._canvas.legacy.legacy object at 0x04B3F430>","<openexp._canvas.legacy.legacy object at 0x04B12C10>","75","IndividualPriorityWithDis_v1.osexp","C:/Userdata/Michel/SpatialProb/IndividualPriorityMaps/Experiment2","no","mono","no","18","no","white","no","yes","0.09","98","1050","legacy","45","18","18","1","C:/Userdata/Michel/SpatialProb/IndividualPriorityMaps/Experiment2/data/subject-19.csv","legacy","9","192","25","Jazzy James","3.1.3","yes","598477b2b83f69022949e7e9","47","green","rectangular","green","rectangular","0","\","826","space","2239","2239","(80, 80, 80)","(0, 122, 0)","(179, 0, 0)","(155, 155, 155)","2","legacy","experiment","[2, 3, 4, 5, 6, 7, 0, 1]","\","2500","3000","0","8","252.758751519","1024","2","48000","-16","main","[(0, -252), (178, -178), (252, 0), (178, 178), (0, 252), (-178, 178), (-252, 0), (-178, -178)]","[]","19","odd","5","66789","71461","71461","12835","11829","1737","16977","16977","1737","1737","15075","110282","1736","71461","109452","108732","108732","NA","714","study_X","0","2239","1","yes","1680"
"undefined","undefined","2239","2239","black","no","legacy","legacy","legacy","0","red","(179, 0, 0)","color","absent","lowProb4","circular","swap","swap","swap","swap","red","(179, 0, 0)","lowProb","lowProb6","circular","uniform","1","undefined","0.104166666667","1","1","67.6875","1","20","12996","0","0","0","0","0","0","0","0","44","0","1","0.104166666667","67.6875","20","12996","44","44","44","08/24/17 10:08:16","Default description","yes","<openexp._canvas.legacy.legacy object at 0x04A527F0>","<openexp._canvas.legacy.legacy object at 0x04A5D7B0>","<openexp._canvas.legacy.legacy object at 0x04A47370>","<openexp._canvas.legacy.legacy object at 0x04B3F9D0>","<openexp._canvas.legacy.legacy object at 0x04B114B0>","<openexp._canvas.legacy.legacy object at 0x04A4E310>","<openexp._canvas.legacy.legacy object at 0x04B12C10>","75","IndividualPriorityWithDis_v1.osexp","C:/Userdata/Michel/SpatialProb/IndividualPriorityMaps/Experiment2","no","mono","no","18","no","white","no","yes","0.09","98","1050","legacy","315","19","19","1","C:/Userdata/Michel/SpatialProb/IndividualPriorityMaps/Experiment2/data/subject-19.csv","legacy","9","192","25","Jazzy James","3.1.3","yes","598477b2b83f69022949e7e9","47","red","circular","red","circular","0","/","692","space","2239","2239","(80, 80, 80)","(0, 122, 0)","(179, 0, 0)","(155, 155, 155)","2","legacy","experiment","[2, 3, 4, 5, 6, 7, 0, 1]","/","2500","3000","0","8","252.758751519","1024","2","48000","-16","main","[(0, -252), (178, -178), (252, 0), (178, 178), (0, 252), (-178, 178), (-252, 0), (-178, -178)]","[]","19","odd","1","66789","71461","71461","12835","11829","1737","16977","16977","1737","1737","15075","112105","1736","71461","111411","110691","110691","NA","714","study_X","0","2239","1","yes","1680"
"undefined","undefined","2239","2239","black","no","legacy","legacy","legacy","0","red","(179, 0, 0)","color","present","highProb","circular","same","same","swap","same","green","(0, 122, 0)","lowProb","lowProb3","circular","uniform","1","undefined","0.109375","1","1","70.9739583333","1","21","13627","0","0","0","0","0","0","0","0","45","0","1","0.109375","70.9739583333","21","13627","45","45","45","08/24/17 10:08:16","Default description","yes","<openexp._canvas.legacy.legacy object at 0x04A527F0>","<openexp._canvas.legacy.legacy object at 0x04A5D7B0>","<openexp._canvas.legacy.legacy object at 0x04A47370>","<openexp._canvas.legacy.legacy object at 0x04B3F9D0>","<openexp._canvas.legacy.legacy object at 0x04B114B0>","<openexp._canvas.legacy.legacy object at 0x04A59590>","<openexp._canvas.legacy.legacy object at 0x04B12C10>","75","IndividualPriorityWithDis_v1.osexp","C:/Userdata/Michel/SpatialProb/IndividualPriorityMaps/Experiment2","no","mono","no","18","no","white","no","yes","0.09","98","1050","legacy","315","20","20","1","C:/Userdata/Michel/SpatialProb/IndividualPriorityMaps/Experiment2/data/subject-19.csv","legacy","9","192","25","Jazzy James","3.1.3","yes","598477b2b83f69022949e7e9","47","red","circular","green","circular","0","/","631","space","2239","2239","(80, 80, 80)","(0, 122, 0)","(179, 0, 0)","(155, 155, 155)","2","legacy","experiment","[2, 3, 4, 5, 6, 7, 0, 1]","/","2500","3000","0","8","252.758751519","1024","2","48000","-16","main","[(0, -252), (178, -178), (252, 0), (178, 178), (0, 252), (-178, 178), (-252, 0), (-178, -178)]","[]","19","odd","5","66789","71461","71461","12835","11829","1737","16977","16977","1737","1737","15075","113865","1736","71461","113232","112513","112513","NA","714","study_X","0","2239","1","yes","1680"
"undefined","undefined","2239","2239","black","no","legacy","legacy","legacy","0","red","(179, 0, 0)","shape","absent","lowProb2","circular","same","same","swap","same","red","(179, 0, 0)","lowProb","lowProb2","circular","uniform","1","undefined","0.114583333333","1","1","73.7135416667","1","22","14153","0","0","0","0","0","0","0","0","46","0","1","0.114583333333","73.7135416667","22","14153","46","46","46","08/24/17 10:08:16","Default description","yes","<openexp._canvas.legacy.legacy object at 0x04A527F0>","<openexp._canvas.legacy.legacy object at 0x04A5D7B0>","<openexp._canvas.legacy.legacy object at 0x04A47370>","<openexp._canvas.legacy.legacy object at 0x04B3F9D0>","<openexp._canvas.legacy.legacy object at 0x04B114B0>","<openexp._canvas.legacy.legacy object at 0x04A4E810>","<openexp._canvas.legacy.legacy object at 0x04B12C10>","75","IndividualPriorityWithDis_v1.osexp","C:/Userdata/Michel/SpatialProb/IndividualPriorityMaps/Experiment2","no","mono","no","18","no","white","no","yes","0.09","98","1050","legacy","45","21","21","1","C:/Userdata/Michel/SpatialProb/IndividualPriorityMaps/Experiment2/data/subject-19.csv","legacy","9","192","25","Jazzy James","3.1.3","yes","598477b2b83f69022949e7e9","47","red","circular","red","circular","0","\","526","space","2239","2239","(80, 80, 80)","(0, 122, 0)","(179, 0, 0)","(155, 155, 155)","2","legacy","experiment","[2, 3, 4, 5, 6, 7, 0, 1]","\","2500","3000","0","8","252.758751519","1024","2","48000","-16","main","[(0, -252), (178, -178), (252, 0), (178, 178), (0, 252), (-178, 178), (-252, 0), (-178, -178)]","[]","19","odd","4","66789","71461","71461","12835","11829","1737","16977","16977","1737","1737","15075","115521","1736","71461","114992","114272","114272","NA","714","study_X","0","2239","1","yes","1680"
"undefined","undefined","2239","2239","black","no","legacy","legacy","legacy","0","red","(179, 0, 0)","shape","present","highProb","circular","same","same","same","swap","red","(179, 0, 0)","highProbColor","highProbColor","rectangular","uniform","1","undefined","0.119791666667","1","1","78.09375","1","23","14994","0","0","0","0","0","0","0","0","47","0","1","0.119791666667","78.09375","23","14994","47","47","47","08/24/17 10:08:16","Default description","yes","<openexp._canvas.legacy.legacy object at 0x04A527F0>","<openexp._canvas.legacy.legacy object at 0x04A5D7B0>","<openexp._canvas.legacy.legacy object at 0x04A47370>","<openexp._canvas.legacy.legacy object at 0x04B3F9D0>","<openexp._canvas.legacy.legacy object at 0x04B114B0>","<openexp._canvas.legacy.legacy object at 0x04A59970>","<openexp._canvas.legacy.legacy object at 0x04B12C10>","75","IndividualPriorityWithDis_v1.osexp","C:/Userdata/Michel/SpatialProb/IndividualPriorityMaps/Experiment2","no","mono","no","18","no","white","no","yes","0.09","98","1050","legacy","45","22","22","1","C:/Userdata/Michel/SpatialProb/IndividualPriorityMaps/Experiment2/data/subject-19.csv","legacy","9","192","25","Jazzy James","3.1.3","yes","598477b2b83f69022949e7e9","47","red","circular","red","rectangular","0","\","841","space","2239","2239","(80, 80, 80)","(0, 122, 0)","(179, 0, 0)","(155, 155, 155)","2","legacy","experiment","[2, 3, 4, 5, 6, 7, 0, 1]","\","2500","3000","0","8","252.758751519","1024","2","48000","-16","main","[(0, -252), (178, -178), (252, 0), (178, 178), (0, 252), (-178, 178), (-252, 0), (-178, -178)]","[]","19","odd","2","66789","71461","71461","12835","11829","1737","16977","16977","1737","1737","15075","117489","1736","71461","116645","115925","115925","NA","714","study_X","0","2239","1","yes","1680"
"undefined","undefined","2239","2239","black","no","legacy","legacy","legacy","0","green","(0, 122, 0)","color","present","highProb","rectangular","swap","swap","same","same","red","(179, 0, 0)","lowProb","lowProb1","rectangular","uniform","1","undefined","0.125","1","1","81.6145833333","1","24","15670","0","0","0","0","0","0","0","0","48","0","1","0.125","81.6145833333","24","15670","48","48","48","08/24/17 10:08:16","Default description","yes","<openexp._canvas.legacy.legacy object at 0x04A527F0>","<openexp._canvas.legacy.legacy object at 0x04A5D7B0>","<openexp._canvas.legacy.legacy object at 0x04A47370>","<openexp._canvas.legacy.legacy object at 0x04B3F9D0>","<openexp._canvas.legacy.legacy object at 0x04B114B0>","<openexp._canvas.legacy.legacy object at 0x04A4E410>","<openexp._canvas.legacy.legacy object at 0x04B12C10>","75","IndividualPriorityWithDis_v1.osexp","C:/Userdata/Michel/SpatialProb/IndividualPriorityMaps/Experiment2","no","mono","no","18","no","white","no","yes","0.09","98","1050","legacy","45","23","23","1","C:/Userdata/Michel/SpatialProb/IndividualPriorityMaps/Experiment2/data/subject-19.csv","legacy","9","192","25","Jazzy James","3.1.3","yes","598477b2b83f69022949e7e9","47","green","rectangular","red","rectangular","0","\","676","space","2239","2239","(80, 80, 80)","(0, 122, 0)","(179, 0, 0)","(155, 155, 155)","2","legacy","experiment","[2, 3, 4, 5, 6, 7, 0, 1]","\","2500","3000","0","8","252.758751519","1024","2","48000","-16","main","[(0, -252), (178, -178), (252, 0), (178, 178), (0, 252), (-178, 178), (-252, 0), (-178, -178)]","[]","19","odd","3","66789","71461","71461","12835","11829","1737","16977","16977","1737","1737","15075","119306","1736","71461","118627","117908","117908","NA","714","study_X","0","2239","1","yes","1680"
"undefined","undefined","2239","2239","black","no","legacy","legacy","legacy","0","red","(179, 0, 0)","color","absent","lowProb1","rectangular","swap","same","same","same","red","(179, 0, 0)","lowProb","lowProb2","rectangular","uniform","1","undefined","0.130208333333","1","1","85.0572916667","1","25","16331","0","0","0","0","0","0","0","0","49","0","1","0.130208333333","85.0572916667","25","16331","49","49","49","08/24/17 10:08:16","Default description","yes","<openexp._canvas.legacy.legacy object at 0x04A527F0>","<openexp._canvas.legacy.legacy object at 0x04A5D7B0>","<openexp._canvas.legacy.legacy object at 0x04A47370>","<openexp._canvas.legacy.legacy object at 0x04B3F9D0>","<openexp._canvas.legacy.legacy object at 0x04B114B0>","<openexp._canvas.legacy.legacy object at 0x04A62910>","<openexp._canvas.legacy.legacy object at 0x04B12C10>","75","IndividualPriorityWithDis_v1.osexp","C:/Userdata/Michel/SpatialProb/IndividualPriorityMaps/Experiment2","no","mono","no","18","no","white","no","yes","0.09","98","1050","legacy","315","24","24","1","C:/Userdata/Michel/SpatialProb/IndividualPriorityMaps/Experiment2/data/subject-19.csv","legacy","9","192","25","Jazzy James","3.1.3","yes","598477b2b83f69022949e7e9","47","red","rectangular","red","rectangular","0","/","661","space","2239","2239","(80, 80, 80)","(0, 122, 0)","(179, 0, 0)","(155, 155, 155)","2","legacy","experiment","[2, 3, 4, 5, 6, 7, 0, 1]","/","2500","3000","0","8","252.758751519","1024","2","48000","-16","main","[(0, -252), (178, -178), (252, 0), (178, 178), (0, 252), (-178, 178), (-252, 0), (-178, -178)]","[]","19","odd","4","66789","71461","71461","12835","11829","1737","16977","16977","1737","1737","15075","121090","1736","71461","120426","119706","119706","NA","714","study_X","0","2239","1","yes","1680"
"undefined","undefined","2239","2239","black","no","legacy","legacy","legacy","0","red","(179, 0, 0)","shape","present","lowProb2","rectangular","same","same","same","swap","red","(179, 0, 0)","lowProb","lowProb5","circular","uniform","1","undefined","0.135416666667","1","1","88.8333333333","1","26","17056","0","0","0","0","0","0","0","0","50","0","1","0.135416666667","88.8333333333","26","17056","50","50","50","08/24/17 10:08:16","Default description","yes","<openexp._canvas.legacy.legacy object at 0x04A527F0>","<openexp._canvas.legacy.legacy object at 0x04A5D7B0>","<openexp._canvas.legacy.legacy object at 0x04A47370>","<openexp._canvas.legacy.legacy object at 0x04B3F9D0>","<openexp._canvas.legacy.legacy object at 0x04B114B0>","<openexp._canvas.legacy.legacy object at 0x04A4E050>","<openexp._canvas.legacy.legacy object at 0x04B12C10>","75","IndividualPriorityWithDis_v1.osexp","C:/Userdata/Michel/SpatialProb/IndividualPriorityMaps/Experiment2","no","mono","no","18","no","white","no","yes","0.09","98","1050","legacy","45","25","25","1","C:/Userdata/Michel/SpatialProb/IndividualPriorityMaps/Experiment2/data/subject-19.csv","legacy","9","192","25","Jazzy James","3.1.3","yes","598477b2b83f69022949e7e9","47","red","rectangular","red","circular","0","\","725","space","2239","2239","(80, 80, 80)","(0, 122, 0)","(179, 0, 0)","(155, 155, 155)","2","legacy","experiment","[2, 3, 4, 5, 6, 7, 0, 1]","\","2500","3000","0","8","252.758751519","1024","2","48000","-16","main","[(0, -252), (178, -178), (252, 0), (178, 178), (0, 252), (-178, 178), (-252, 0), (-178, -178)]","[]","19","odd","0","66789","71461","71461","12835","11829","1737","16977","16977","1737","1737","15075","122946","1736","71461","122217","121497","121497","NA","714","study_X","0","2239","1","yes","1680"
"undefined","undefined","2239","2239","black","no","legacy","legacy","legacy","0","green","(0, 122, 0)","shape","absent","lowProb5","circular","swap","swap","swap","same","green","(0, 122, 0)","lowProb","lowProb2","circular","uniform","1","undefined","0.140625","1","1","93.5260416667","1","27","17957","0","0","0","0","0","0","0","0","51","0","1","0.140625","93.5260416667","27","17957","51","51","51","08/24/17 10:08:16","Default description","yes","<openexp._canvas.legacy.legacy object at 0x04A527F0>","<openexp._canvas.legacy.legacy object at 0x04A5D7B0>","<openexp._canvas.legacy.legacy object at 0x04A47370>","<openexp._canvas.legacy.legacy object at 0x04B3F9D0>","<openexp._canvas.legacy.legacy object at 0x04B114B0>","<openexp._canvas.legacy.legacy object at 0x04A47030>","<openexp._canvas.legacy.legacy object at 0x04B12C10>","75","IndividualPriorityWithDis_v1.osexp","C:/Userdata/Michel/SpatialProb/IndividualPriorityMaps/Experiment2","no","mono","no","18","no","white","no","yes","0.09","98","1050","legacy","315","26","26","1","C:/Userdata/Michel/SpatialProb/IndividualPriorityMaps/Experiment2/data/subject-19.csv","legacy","9","192","25","Jazzy James","3.1.3","yes","598477b2b83f69022949e7e9","47","green","circular","green","circular","0","/","901","space","2239","2239","(80, 80, 80)","(0, 122, 0)","(179, 0, 0)","(155, 155, 155)","2","legacy","experiment","[2, 3, 4, 5, 6, 7, 0, 1]","/","2500","3000","0","8","252.758751519","1024","2","48000","-16","main","[(0, -252), (178, -178), (252, 0), (178, 178), (0, 252), (-178, 178), (-252, 0), (-178, -178)]","[]","19","odd","4","66789","71461","71461","12835","11829","1737","16977","16977","1737","1737","15075","124986","1736","71461","124081","123361","123361","NA","714","study_X","0","2239","1","yes","1680"
"undefined","undefined","2239","2239","black","no","legacy","legacy","legacy","0","green","(0, 122, 0)","color","present","highProb","circular","same","same","swap","same","red","(179, 0, 0)","highProbShape","highProbShape","circular","uniform","1","undefined","0.145833333333","1","1","97.4166666667","1","28","18704","0","0","0","0","0","0","0","0","52","0","1","0.145833333333","97.4166666667","28","18704","52","52","52","08/24/17 10:08:16","Default description","yes","<openexp._canvas.legacy.legacy object at 0x04A527F0>","<openexp._canvas.legacy.legacy object at 0x04A5D7B0>","<openexp._canvas.legacy.legacy object at 0x04A47370>","<openexp._canvas.legacy.legacy object at 0x04B3F9D0>","<openexp._canvas.legacy.legacy object at 0x04B114B0>","<openexp._canvas.legacy.legacy object at 0x04A4E0B0>","<openexp._canvas.legacy.legacy object at 0x04B12C10>","75","IndividualPriorityWithDis_v1.osexp","C:/Userdata/Michel/SpatialProb/IndividualPriorityMaps/Experiment2","no","mono","no","18","no","white","no","yes","0.09","98","1050","legacy","45","27","27","1","C:/Userdata/Michel/SpatialProb/IndividualPriorityMaps/Experiment2/data/subject-19.csv","legacy","9","192","25","Jazzy James","3.1.3","yes","598477b2b83f69022949e7e9","47","green","circular","red","circular","0","\","747","space","2239","2239","(80, 80, 80)","(0, 122, 0)","(179, 0, 0)","(155, 155, 155)","2","legacy","experiment","[2, 3, 4, 5, 6, 7, 0, 1]","\","2500","3000","0","8","252.758751519","1024","2","48000","-16","main","[(0, -252), (178, -178), (252, 0), (178, 178), (0, 252), (-178, 178), (-252, 0), (-178, -178)]","[]","19","odd","6","66789","71461","71461","12835","11829","1737","16977","16977","1737","1737","15075","126866","1736","71461","126115","125395","125395","NA","714","study_X","0","2239","1","yes","1680"
"undefined","undefined","2239","2239","black","no","legacy","legacy","legacy","0","green","(0, 122, 0)","shape","present","lowProb6","rectangular","same","swap","swap","same","green","(0, 122, 0)","highProbColor","highProbColor","circular","uniform","1","undefined","0.151041666667","1","1","102.036458333","1","29","19591","0","0","0","0","0","0","0","0","53","0","1","0.151041666667","102.036458333","29","19591","53","53","53","08/24/17 10:08:16","Default description","yes","<openexp._canvas.legacy.legacy object at 0x04A527F0>","<openexp._canvas.legacy.legacy object at 0x04A5D7B0>","<openexp._canvas.legacy.legacy object at 0x04A47370>","<openexp._canvas.legacy.legacy object at 0x04B3F9D0>","<openexp._canvas.legacy.legacy object at 0x04B114B0>","<openexp._canvas.legacy.legacy object at 0x04A47F10>","<openexp._canvas.legacy.legacy object at 0x04B12C10>","75","IndividualPriorityWithDis_v1.osexp","C:/Userdata/Michel/SpatialProb/IndividualPriorityMaps/Experiment2","no","mono","no","18","no","white","no","yes","0.09","98","1050","legacy","45","28","28","1","C:/Userdata/Michel/SpatialProb/IndividualPriorityMaps/Experiment2/data/subject-19.csv","legacy","9","192","25","Jazzy James","3.1.3","yes","598477b2b83f69022949e7e9","47","green","rectangular","green","circular","0","\","887","space","2239","2239","(80, 80, 80)","(0, 122, 0)","(179, 0, 0)","(155, 155, 155)","2","legacy","experiment","[2, 3, 4, 5, 6, 7, 0, 1]","\","2500","3000","0","8","252.758751519","1024","2","48000","-16","main","[(0, -252), (178, -178), (252, 0), (178, 178), (0, 252), (-178, 178), (-252, 0), (-178, -178)]","[]","19","odd","2","66789","71461","71461","12835","11829","1737","16977","16977","1737","1737","15075","128881","1736","71461","127992","127273","127273","NA","714","study_X","0","2239","1","yes","1680"
"undefined","undefined","2239","2239","black","no","legacy","legacy","legacy","0","green","(0, 122, 0)","shape","present","highProb","circular","same","swap","same","swap","green","(0, 122, 0)","lowProb","lowProb5","rectangular","uniform","1","undefined","0.15625","1","1","105.208333333","1","30","20200","0","0","0","0","0","0","0","0","54","0","1","0.15625","105.208333333","30","20200","54","54","54","08/24/17 10:08:16","Default description","yes","<openexp._canvas.legacy.legacy object at 0x04A527F0>","<openexp._canvas.legacy.legacy object at 0x04A5D7B0>","<openexp._canvas.legacy.legacy object at 0x04A47370>","<openexp._canvas.legacy.legacy object at 0x04B3F9D0>","<openexp._canvas.legacy.legacy object at 0x04B114B0>","<openexp._canvas.legacy.legacy object at 0x04B45E30>","<openexp._canvas.legacy.legacy object at 0x04B12C10>","75","IndividualPriorityWithDis_v1.osexp","C:/Userdata/Michel/SpatialProb/IndividualPriorityMaps/Experiment2","no","mono","no","18","no","white","no","yes","0.09","98","1050","legacy","315","29","29","1","C:/Userdata/Michel/SpatialProb/IndividualPriorityMaps/Experiment2/data/subject-19.csv","legacy","9","192","25","Jazzy James","3.1.3","yes","598477b2b83f69022949e7e9","47","green","circular","green","rectangular","0","/","609","space","2239","2239","(80, 80, 80)","(0, 122, 0)","(179, 0, 0)","(155, 155, 155)","2","legacy","experiment","[2, 3, 4, 5, 6, 7, 0, 1]","/","2500","3000","0","8","252.758751519","1024","2","48000","-16","main","[(0, -252), (178, -178), (252, 0), (178, 178), (0, 252), (-178, 178), (-252, 0), (-178, -178)]","[]","19","odd","0","66789","71461","71461","12835","11829","1737","16977","16977","1737","1737","15075","130625","1736","71461","130013","129293","129293","NA","714","study_X","0","2239","1","yes","1680"
"undefined","undefined","2239","2239","black","no","legacy","legacy","legacy","0","green","(0, 122, 0)","color","present","highProbOther","rectangular","same","swap","swap","same","red","(179, 0, 0)","lowProb","lowProb1","rectangular","uniform","1","undefined","0.161458333333","1","1","108.473958333","1","31","20827","0","0","0","0","0","0","0","0","55","0","1","0.161458333333","108.473958333","31","20827","55","55","55","08/24/17 10:08:16","Default description","yes","<openexp._canvas.legacy.legacy object at 0x04A527F0>","<openexp._canvas.legacy.legacy object at 0x04A5D7B0>","<openexp._canvas.legacy.legacy object at 0x04A47370>","<openexp._canvas.legacy.legacy object at 0x04B3F9D0>","<openexp._canvas.legacy.legacy object at 0x04B114B0>","<openexp._canvas.legacy.legacy object at 0x04B3BE90>","<openexp._canvas.legacy.legacy object at 0x04B12C10>","75","IndividualPriorityWithDis_v1.osexp","C:/Userdata/Michel/SpatialProb/IndividualPriorityMaps/Experiment2","no","mono","no","18","no","white","no","yes","0.09","98","1050","legacy","45","30","30","1","C:/Userdata/Michel/SpatialProb/IndividualPriorityMaps/Experiment2/data/subject-19.csv","legacy","9","192","25","Jazzy James","3.1.3","yes","598477b2b83f69022949e7e9","47","green","rectangular","red","rectangular","0","\","627","space","2239","2239","(80, 80, 80)","(0, 122, 0)","(179, 0, 0)","(155, 155, 155)","2","legacy","experiment","[2, 3, 4, 5, 6, 7, 0, 1]","\","2500","3000","0","8","252.758751519","1024","2","48000","-16","main","[(0, -252), (178, -178), (252, 0), (178, 178), (0, 252), (-178, 178), (-252, 0), (-178, -178)]","[]","19","odd","3","66789","71461","71461","12835","11829","1737","16977","16977","1737","1737","15075","132377","1736","71461","131747","131027","131027","NA","714","study_X","0","2239","1","yes","1680"
"undefined","undefined","2239","2239","black","no","legacy","legacy","legacy","0","green","(0, 122, 0)","shape","present","highProb","circular","same","swap","swap","same","green","(0, 122, 0)","lowProb","lowProb6","rectangular","uniform","1","undefined","0.166666666667","1","1","111.197916667","1","32","21350","0","0","0","0","0","0","0","0","56","0","1","0.166666666667","111.197916667","32","21350","56","56","56","08/24/17 10:08:16","Default description","yes","<openexp._canvas.legacy.legacy object at 0x04A527F0>","<openexp._canvas.legacy.legacy object at 0x04A5D7B0>","<openexp._canvas.legacy.legacy object at 0x04A47370>","<openexp._canvas.legacy.legacy object at 0x04B3F9D0>","<openexp._canvas.legacy.legacy object at 0x04B114B0>","<openexp._canvas.legacy.legacy object at 0x04A52250>","<openexp._canvas.legacy.legacy object at 0x04B12C10>","75","IndividualPriorityWithDis_v1.osexp","C:/Userdata/Michel/SpatialProb/IndividualPriorityMaps/Experiment2","no","mono","no","18","no","white","no","yes","0.09","98","1050","legacy","45","31","31","1","C:/Userdata/Michel/SpatialProb/IndividualPriorityMaps/Experiment2/data/subject-19.csv","legacy","9","192","25","Jazzy James","3.1.3","yes","598477b2b83f69022949e7e9","47","green","circular","green","rectangular","0","\","523","space","2239","2239","(80, 80, 80)","(0, 122, 0)","(179, 0, 0)","(155, 155, 155)","2","legacy","experiment","[2, 3, 4, 5, 6, 7, 0, 1]","\","2500","3000","0","8","252.758751519","1024","2","48000","-16","main","[(0, -252), (178, -178), (252, 0), (178, 178), (0, 252), (-178, 178), (-252, 0), (-178, -178)]","[]","19","odd","1","66789","71461","71461","12835","11829","1737","16977","16977","1737","1737","15075","134017","1736","71461","133491","132772","132772","NA","714","study_X","0","2239","1","yes","1680"
"undefined","undefined","2239","2239","black","no","legacy","legacy","legacy","0","green","(0, 122, 0)","color","present","lowProb5","rectangular","same","swap","swap","same","red","(179, 0, 0)","highProbShape","highProbShape","rectangular","uniform","1","undefined","0.171875","1","1","114.859375","1","33","22053","0","0","0","0","0","0","0","0","57","0","1","0.171875","114.859375","33","22053","57","57","57","08/24/17 10:08:16","Default description","yes","<openexp._canvas.legacy.legacy object at 0x04A527F0>","<openexp._canvas.legacy.legacy object at 0x04A5D7B0>","<openexp._canvas.legacy.legacy object at 0x04A47370>","<openexp._canvas.legacy.legacy object at 0x04B3F9D0>","<openexp._canvas.legacy.legacy object at 0x04B114B0>","<openexp._canvas.legacy.legacy object at 0x04A47DD0>","<openexp._canvas.legacy.legacy object at 0x04B12C10>","75","IndividualPriorityWithDis_v1.osexp","C:/Userdata/Michel/SpatialProb/IndividualPriorityMaps/Experiment2","no","mono","no","18","no","white","no","yes","0.09","98","1050","legacy","315","32","32","1","C:/Userdata/Michel/SpatialProb/IndividualPriorityMaps/Experiment2/data/subject-19.csv","legacy","9","192","25","Jazzy James","3.1.3","yes","598477b2b83f69022949e7e9","47","green","rectangular","red","rectangular","0","/","703","space","2239","2239","(80, 80, 80)","(0, 122, 0)","(179, 0, 0)","(155, 155, 155)","2","legacy","experiment","[2, 3, 4, 5, 6, 7, 0, 1]","/","2500","3000","0","8","252.758751519","1024","2","48000","-16","main","[(0, -252), (178, -178), (252, 0), (178, 178), (0, 252), (-178, 178), (-252, 0), (-178, -178)]","[]","19","odd","6","66789","71461","71461","12835","11829","1737","16977","16977","1737","1737","15075","135841","1736","71461","135135","134415","134415","NA","714","study_X","0","2239","1","yes","1680"
"undefined","undefined","2239","2239","black","no","legacy","legacy","legacy","0","green","(0, 122, 0)","color","present","highProbOther","rectangular","same","same","same","same","red","(179, 0, 0)","lowProb","lowProb1","rectangular","uniform","1","undefined","0.177083333333","1","1","118.015625","1","34","22659","0","0","0","0","0","0","0","0","58","0","1","0.177083333333","118.015625","34","22659","58","58","58","08/24/17 10:08:16","Default description","yes","<openexp._canvas.legacy.legacy object at 0x04A527F0>","<openexp._canvas.legacy.legacy object at 0x04A5D7B0>","<openexp._canvas.legacy.legacy object at 0x04A47370>","<openexp._canvas.legacy.legacy object at 0x04B3F9D0>","<openexp._canvas.legacy.legacy object at 0x04B114B0>","<openexp._canvas.legacy.legacy object at 0x04A62430>","<openexp._canvas.legacy.legacy object at 0x04B12C10>","75","IndividualPriorityWithDis_v1.osexp","C:/Userdata/Michel/SpatialProb/IndividualPriorityMaps/Experiment2","no","mono","no","18","no","white","no","yes","0.09","98","1050","legacy","45","33","33","1","C:/Userdata/Michel/SpatialProb/IndividualPriorityMaps/Experiment2/data/subject-19.csv","legacy","9","192","25","Jazzy James","3.1.3","yes","598477b2b83f69022949e7e9","47","green","rectangular","red","rectangular","0","\","606","space","2239","2239","(80, 80, 80)","(0, 122, 0)","(179, 0, 0)","(155, 155, 155)","2","legacy","experiment","[2, 3, 4, 5, 6, 7, 0, 1]","\","2500","3000","0","8","252.758751519","1024","2","48000","-16","main","[(0, -252), (178, -178), (252, 0), (178, 178), (0, 252), (-178, 178), (-252, 0), (-178, -178)]","[]","19","odd","3","66789","71461","71461","12835","11829","1737","16977","16977","1737","1737","15075","137570","1736","71461","136961","136241","136241","NA","714","study_X","0","2239","1","yes","1680"
"undefined","undefined","2239","2239","black","no","legacy","legacy","legacy","0","green","(0, 122, 0)","shape","present","highProb","circular","same","swap","swap","same","green","(0, 122, 0)","lowProb","lowProb3","rectangular","uniform","1","undefined","0.182291666667","1","1","121.1875","1","35","23268","0","0","0","0","0","0","0","0","59","0","1","0.182291666667","121.1875","35","23268","59","59","59","08/24/17 10:08:16","Default description","yes","<openexp._canvas.legacy.legacy object at 0x04A527F0>","<openexp._canvas.legacy.legacy object at 0x04A5D7B0>","<openexp._canvas.legacy.legacy object at 0x04A47370>","<openexp._canvas.legacy.legacy object at 0x04B3F9D0>","<openexp._canvas.legacy.legacy object at 0x04B114B0>","<openexp._canvas.legacy.legacy object at 0x04B12D30>","<openexp._canvas.legacy.legacy object at 0x04B12C10>","75","IndividualPriorityWithDis_v1.osexp","C:/Userdata/Michel/SpatialProb/IndividualPriorityMaps/Experiment2","no","mono","no","18","no","white","no","yes","0.09","98","1050","legacy","315","34","34","1","C:/Userdata/Michel/SpatialProb/IndividualPriorityMaps/Experiment2/data/subject-19.csv","legacy","9","192","25","Jazzy James","3.1.3","yes","598477b2b83f69022949e7e9","47","green","circular","green","rectangular","0","/","609","space","2239","2239","(80, 80, 80)","(0, 122, 0)","(179, 0, 0)","(155, 155, 155)","2","legacy","experiment","[2, 3, 4, 5, 6, 7, 0, 1]","/","2500","3000","0","8","252.758751519","1024","2","48000","-16","main","[(0, -252), (178, -178), (252, 0), (178, 178), (0, 252), (-178, 178), (-252, 0), (-178, -178)]","[]","19","odd","5","66789","71461","71461","12835","11829","1737","16977","16977","1737","1737","15075","139306","1736","71461","138693","137973","137973","NA","714","study_X","0","2239","1","yes","1680"
"undefined","undefined","2239","2239","black","no","legacy","legacy","legacy","0","red","(179, 0, 0)","color","present","highProb","circular","swap","same","same","swap","green","(0, 122, 0)","lowProb","lowProb2","circular","uniform","1","undefined","0.1875","1","1","124.119791667","1","36","23831","0","0","0","0","0","0","0","0","60","0","1","0.1875","124.119791667","36","23831","60","60","60","08/24/17 10:08:16","Default description","yes","<openexp._canvas.legacy.legacy object at 0x04A527F0>","<openexp._canvas.legacy.legacy object at 0x04A5D7B0>","<openexp._canvas.legacy.legacy object at 0x04A47370>","<openexp._canvas.legacy.legacy object at 0x04B3F9D0>","<openexp._canvas.legacy.legacy object at 0x04B114B0>","<openexp._canvas.legacy.legacy object at 0x04A54130>","<openexp._canvas.legacy.legacy object at 0x04B12C10>","75","IndividualPriorityWithDis_v1.osexp","C:/Userdata/Michel/SpatialProb/IndividualPriorityMaps/Experiment2","no","mono","no","18","no","white","no","yes","0.09","98","1050","legacy","45","35","35","1","C:/Userdata/Michel/SpatialProb/IndividualPriorityMaps/Experiment2/data/subject-19.csv","legacy","9","192","25","Jazzy James","3.1.3","yes","598477b2b83f69022949e7e9","47","red","circular","green","circular","0","\","563","space","2239","2239","(80, 80, 80)","(0, 122, 0)","(179, 0, 0)","(155, 155, 155)","2","legacy","experiment","[2, 3, 4, 5, 6, 7, 0, 1]","\","2500","3000","0","8","252.758751519","1024","2","48000","-16","main","[(0, -252), (178, -178), (252, 0), (178, 178), (0, 252), (-178, 178), (-252, 0), (-178, -178)]","[]","19","odd","4","66789","71461","71461","12835","11829","1737","16977","16977","1737","1737","15075","141002","1736","71461","140435","139715","139715","NA","714","study_X","0","2239","1","yes","1680"
"undefined","undefined","2239","2239","black","no","legacy","legacy","legacy","0","green","(0, 122, 0)","shape","present","highProb","circular","swap","same","same","swap","green","(0, 122, 0)","lowProb","lowProb5","rectangular","uniform","1","undefined","0.192708333333","1","1","127.140625","1","37","24411","0","0","0","0","0","0","0","0","61","0","1","0.192708333333","127.140625","37","24411","61","61","61","08/24/17 10:08:16","Default description","yes","<openexp._canvas.legacy.legacy object at 0x04A527F0>","<openexp._canvas.legacy.legacy object at 0x04A5D7B0>","<openexp._canvas.legacy.legacy object at 0x04A47370>","<openexp._canvas.legacy.legacy object at 0x04B3F9D0>","<openexp._canvas.legacy.legacy object at 0x04B114B0>","<openexp._canvas.legacy.legacy object at 0x04A54750>","<openexp._canvas.legacy.legacy object at 0x04B12C10>","75","IndividualPriorityWithDis_v1.osexp","C:/Userdata/Michel/SpatialProb/IndividualPriorityMaps/Experiment2","no","mono","no","18","no","white","no","yes","0.09","98","1050","legacy","45","36","36","1","C:/Userdata/Michel/SpatialProb/IndividualPriorityMaps/Experiment2/data/subject-19.csv","legacy","9","192","25","Jazzy James","3.1.3","yes","598477b2b83f69022949e7e9","47","green","circular","green","rectangular","0","\","580","space","2239","2239","(80, 80, 80)","(0, 122, 0)","(179, 0, 0)","(155, 155, 155)","2","legacy","experiment","[2, 3, 4, 5, 6, 7, 0, 1]","\","2500","3000","0","8","252.758751519","1024","2","48000","-16","main","[(0, -252), (178, -178), (252, 0), (178, 178), (0, 252), (-178, 178), (-252, 0), (-178, -178)]","[]","19","odd","0","66789","71461","71461","12835","11829","1737","16977","16977","1737","1737","15075","142706","1736","71461","142122","141402","141402","NA","714","study_X","0","2239","1","yes","1680"
"undefined","undefined","2239","2239","black","no","legacy","legacy","legacy","0","green","(0, 122, 0)","color","present","highProb","rectangular","same","swap","swap","same","red","(179, 0, 0)","lowProb","lowProb6","rectangular","uniform","1","undefined","0.197916666667","1","1","130.515625","1","38","25059","0","0","0","0","0","0","0","0","62","0","1","0.197916666667","130.515625","38","25059","62","62","62","08/24/17 10:08:16","Default description","yes","<openexp._canvas.legacy.legacy object at 0x04A527F0>","<openexp._canvas.legacy.legacy object at 0x04A5D7B0>","<openexp._canvas.legacy.legacy object at 0x04A47370>","<openexp._canvas.legacy.legacy object at 0x04B3F9D0>","<openexp._canvas.legacy.legacy object at 0x04B114B0>","<openexp._canvas.legacy.legacy object at 0x04A4E5B0>","<openexp._canvas.legacy.legacy object at 0x04B12C10>","75","IndividualPriorityWithDis_v1.osexp","C:/Userdata/Michel/SpatialProb/IndividualPriorityMaps/Experiment2","no","mono","no","18","no","white","no","yes","0.09","98","1050","legacy","315","37","37","1","C:/Userdata/Michel/SpatialProb/IndividualPriorityMaps/Experiment2/data/subject-19.csv","legacy","9","192","25","Jazzy James","3.1.3","yes","598477b2b83f69022949e7e9","47","green","rectangular","red","rectangular","0","/","648","space","2239","2239","(80, 80, 80)","(0, 122, 0)","(179, 0, 0)","(155, 155, 155)","2","legacy","experiment","[2, 3, 4, 5, 6, 7, 0, 1]","/","2500","3000","0","8","252.758751519","1024","2","48000","-16","main","[(0, -252), (178, -178), (252, 0), (178, 178), (0, 252), (-178, 178), (-252, 0), (-178, -178)]","[]","19","odd","1","66789","71461","71461","12835","11829","1737","16977","16977","1737","1737","15075","144481","1736","71461","143831","143111","143111","NA","714","study_X","0","2239","1","yes","1680"
"undefined","undefined","2239","2239","black","no","legacy","legacy","legacy","0","green","(0, 122, 0)","shape","present","highProb","circular","same","swap","swap","same","green","(0, 122, 0)","lowProb","lowProb4","rectangular","uniform","1","undefined","0.203125","1","1","133.713541667","1","39","25673","0","0","0","0","0","0","0","0","63","0","1","0.203125","133.713541667","39","25673","63","63","63","08/24/17 10:08:16","Default description","yes","<openexp._canvas.legacy.legacy object at 0x04A527F0>","<openexp._canvas.legacy.legacy object at 0x04A5D7B0>","<openexp._canvas.legacy.legacy object at 0x04A47370>","<openexp._canvas.legacy.legacy object at 0x04B3F9D0>","<openexp._canvas.legacy.legacy object at 0x04B114B0>","<openexp._canvas.legacy.legacy object at 0x04A47F30>","<openexp._canvas.legacy.legacy object at 0x04B12C10>","75","IndividualPriorityWithDis_v1.osexp","C:/Userdata/Michel/SpatialProb/IndividualPriorityMaps/Experiment2","no","mono","no","18","no","white","no","yes","0.09","98","1050","legacy","315","38","38","1","C:/Userdata/Michel/SpatialProb/IndividualPriorityMaps/Experiment2/data/subject-19.csv","legacy","9","192","25","Jazzy James","3.1.3","yes","598477b2b83f69022949e7e9","47","green","circular","green","rectangular","0","/","614","space","2239","2239","(80, 80, 80)","(0, 122, 0)","(179, 0, 0)","(155, 155, 155)","2","legacy","experiment","[2, 3, 4, 5, 6, 7, 0, 1]","/","2500","3000","0","8","252.758751519","1024","2","48000","-16","main","[(0, -252), (178, -178), (252, 0), (178, 178), (0, 252), (-178, 178), (-252, 0), (-178, -178)]","[]","19","odd","7","66789","71461","71461","12835","11829","1737","16977","16977","1737","1737","15075","146217","1736","71461","145601","144881","144881","NA","714","study_X","0","2239","1","yes","1680"
"undefined","undefined","2239","2239","black","no","legacy","legacy","legacy","0","red","(179, 0, 0)","shape","absent","lowProb2","circular","swap","same","swap","swap","red","(179, 0, 0)","lowProb","lowProb5","circular","uniform","1","undefined","0.208333333333","1","1","136.010416667","1","40","26114","0","0","0","0","0","0","0","0","64","0","1","0.208333333333","136.010416667","40","26114","64","64","64","08/24/17 10:08:16","Default description","yes","<openexp._canvas.legacy.legacy object at 0x04A527F0>","<openexp._canvas.legacy.legacy object at 0x04A5D7B0>","<openexp._canvas.legacy.legacy object at 0x04A47370>","<openexp._canvas.legacy.legacy object at 0x04B3F9D0>","<openexp._canvas.legacy.legacy object at 0x04B114B0>","<openexp._canvas.legacy.legacy object at 0x04A59570>","<openexp._canvas.legacy.legacy object at 0x04B12C10>","75","IndividualPriorityWithDis_v1.osexp","C:/Userdata/Michel/SpatialProb/IndividualPriorityMaps/Experiment2","no","mono","no","18","no","white","no","yes","0.09","98","1050","legacy","315","39","39","1","C:/Userdata/Michel/SpatialProb/IndividualPriorityMaps/Experiment2/data/subject-19.csv","legacy","9","192","25","Jazzy James","3.1.3","yes","598477b2b83f69022949e7e9","47","red","circular","red","circular","0","/","441","space","2239","2239","(80, 80, 80)","(0, 122, 0)","(179, 0, 0)","(155, 155, 155)","2","legacy","experiment","[2, 3, 4, 5, 6, 7, 0, 1]","/","2500","3000","0","8","252.758751519","1024","2","48000","-16","main","[(0, -252), (178, -178), (252, 0), (178, 178), (0, 252), (-178, 178), (-252, 0), (-178, -178)]","[]","19","odd","0","66789","71461","71461","12835","11829","1737","16977","16977","1737","1737","15075","147785","1736","71461","147343","146623","146624","NA","714","study_X","0","2239","1","yes","1680"
"undefined","undefined","2239","2239","black","no","legacy","legacy","legacy","0","green","(0, 122, 0)","color","present","highProb","rectangular","swap","swap","same","swap","red","(179, 0, 0)","lowProb","lowProb3","rectangular","uniform","1","undefined","0.213541666667","1","1","141.03125","1","41","27078","0","0","0","0","0","0","0","0","65","0","1","0.213541666667","141.03125","41","27078","65","65","65","08/24/17 10:08:16","Default description","yes","<openexp._canvas.legacy.legacy object at 0x04A527F0>","<openexp._canvas.legacy.legacy object at 0x04A5D7B0>","<openexp._canvas.legacy.legacy object at 0x04A47370>","<openexp._canvas.legacy.legacy object at 0x04B3F9D0>","<openexp._canvas.legacy.legacy object at 0x04B114B0>","<openexp._canvas.legacy.legacy object at 0x04A5DF50>","<openexp._canvas.legacy.legacy object at 0x04B12C10>","75","IndividualPriorityWithDis_v1.osexp","C:/Userdata/Michel/SpatialProb/IndividualPriorityMaps/Experiment2","no","mono","no","18","no","white","no","yes","0.09","98","1050","legacy","45","40","40","1","C:/Userdata/Michel/SpatialProb/IndividualPriorityMaps/Experiment2/data/subject-19.csv","legacy","9","192","25","Jazzy James","3.1.3","yes","598477b2b83f69022949e7e9","47","green","rectangular","red","rectangular","0","\","964","space","2239","2239","(80, 80, 80)","(0, 122, 0)","(179, 0, 0)","(155, 155, 155)","2","legacy","experiment","[2, 3, 4, 5, 6, 7, 0, 1]","\","2500","3000","0","8","252.758751519","1024","2","48000","-16","main","[(0, -252), (178, -178), (252, 0), (178, 178), (0, 252), (-178, 178), (-252, 0), (-178, -178)]","[]","19","odd","5","66789","71461","71461","12835","11829","1737","16977","16977","1737","1737","15075","149873","1736","71461","148906","148186","148186","NA","714","study_X","0","2239","1","yes","1680"
"undefined","undefined","2239","2239","black","no","legacy","legacy","legacy","0","green","(0, 122, 0)","color","present","lowProb1","circular","same","swap","same","swap","red","(179, 0, 0)","lowProb","lowProb3","circular","uniform","1","undefined","0.21875","1","1","144.854166667","1","42","27812","0","0","0","0","0","0","0","0","66","0","1","0.21875","144.854166667","42","27812","66","66","66","08/24/17 10:08:16","Default description","yes","<openexp._canvas.legacy.legacy object at 0x04A527F0>","<openexp._canvas.legacy.legacy object at 0x04A5D7B0>","<openexp._canvas.legacy.legacy object at 0x04A47370>","<openexp._canvas.legacy.legacy object at 0x04B3F9D0>","<openexp._canvas.legacy.legacy object at 0x04B114B0>","<openexp._canvas.legacy.legacy object at 0x04B3FE90>","<openexp._canvas.legacy.legacy object at 0x04B12C10>","75","IndividualPriorityWithDis_v1.osexp","C:/Userdata/Michel/SpatialProb/IndividualPriorityMaps/Experiment2","no","mono","no","18","no","white","no","yes","0.09","98","1050","legacy","45","41","41","1","C:/Userdata/Michel/SpatialProb/IndividualPriorityMaps/Experiment2/data/subject-19.csv","legacy","9","192","25","Jazzy James","3.1.3","yes","598477b2b83f69022949e7e9","47","green","circular","red","circular","0","\","734","space","2239","2239","(80, 80, 80)","(0, 122, 0)","(179, 0, 0)","(155, 155, 155)","2","legacy","experiment","[2, 3, 4, 5, 6, 7, 0, 1]","\","2500","3000","0","8","252.758751519","1024","2","48000","-16","main","[(0, -252), (178, -178), (252, 0), (178, 178), (0, 252), (-178, 178), (-252, 0), (-178, -178)]","[]","19","odd","5","66789","71461","71461","12835","11829","1737","16977","16977","1737","1737","15075","151745","1736","71461","151008","150289","150289","NA","714","study_X","0","2239","1","yes","1680"
"undefined","undefined","2239","2239","black","no","legacy","legacy","legacy","0","red","(179, 0, 0)","color","present","highProb","circular","swap","same","swap","same","green","(0, 122, 0)","lowProb","lowProb2","circular","uniform","1","undefined","0.223958333333","1","1","147.729166667","1","43","28364","0","0","0","0","0","0","0","0","67","0","1","0.223958333333","147.729166667","43","28364","67","67","67","08/24/17 10:08:16","Default description","yes","<openexp._canvas.legacy.legacy object at 0x04A527F0>","<openexp._canvas.legacy.legacy object at 0x04A5D7B0>","<openexp._canvas.legacy.legacy object at 0x04A47370>","<openexp._canvas.legacy.legacy object at 0x04B3F9D0>","<openexp._canvas.legacy.legacy object at 0x04B114B0>","<openexp._canvas.legacy.legacy object at 0x04A476B0>","<openexp._canvas.legacy.legacy object at 0x04B12C10>","75","IndividualPriorityWithDis_v1.osexp","C:/Userdata/Michel/SpatialProb/IndividualPriorityMaps/Experiment2","no","mono","no","18","no","white","no","yes","0.09","98","1050","legacy","315","42","42","1","C:/Userdata/Michel/SpatialProb/IndividualPriorityMaps/Experiment2/data/subject-19.csv","legacy","9","192","25","Jazzy James","3.1.3","yes","598477b2b83f69022949e7e9","47","red","circular","green","circular","0","/","552","space","2239","2239","(80, 80, 80)","(0, 122, 0)","(179, 0, 0)","(155, 155, 155)","2","legacy","experiment","[2, 3, 4, 5, 6, 7, 0, 1]","/","2500","3000","0","8","252.758751519","1024","2","48000","-16","main","[(0, -252), (178, -178), (252, 0), (178, 178), (0, 252), (-178, 178), (-252, 0), (-178, -178)]","[]","19","odd","4","66789","71461","71461","12835","11829","1737","16977","16977","1737","1737","15075","153433","1736","71461","152877","152157","152157","NA","714","study_X","0","2239","1","yes","1680"
"undefined","undefined","2239","2239","black","no","legacy","legacy","legacy","0","red","(179, 0, 0)","color","present","highProbOther","circular","same","same","same","same","green","(0, 122, 0)","lowProb","lowProb5","circular","uniform","1","undefined","0.229166666667","1","1","151.989583333","1","44","29182","0","0","0","0","0","0","0","0","68","0","1","0.229166666667","151.989583333","44","29182","68","68","68","08/24/17 10:08:16","Default description","yes","<openexp._canvas.legacy.legacy object at 0x04A527F0>","<openexp._canvas.legacy.legacy object at 0x04A5D7B0>","<openexp._canvas.legacy.legacy object at 0x04A47370>","<openexp._canvas.legacy.legacy object at 0x04B3F9D0>","<openexp._canvas.legacy.legacy object at 0x04B114B0>","<openexp._canvas.legacy.legacy object at 0x04A69390>","<openexp._canvas.legacy.legacy object at 0x04B12C10>","75","IndividualPriorityWithDis_v1.osexp","C:/Userdata/Michel/SpatialProb/IndividualPriorityMaps/Experiment2","no","mono","no","18","no","white","no","yes","0.09","98","1050","legacy","45","43","43","1","C:/Userdata/Michel/SpatialProb/IndividualPriorityMaps/Experiment2/data/subject-19.csv","legacy","9","192","25","Jazzy James","3.1.3","yes","598477b2b83f69022949e7e9","47","red","circular","green","circular","0","\","818","space","2239","2239","(80, 80, 80)","(0, 122, 0)","(179, 0, 0)","(155, 155, 155)","2","legacy","experiment","[2, 3, 4, 5, 6, 7, 0, 1]","\","2500","3000","0","8","252.758751519","1024","2","48000","-16","main","[(0, -252), (178, -178), (252, 0), (178, 178), (0, 252), (-178, 178), (-252, 0), (-178, -178)]","[]","19","odd","0","66789","71461","71461","12835","11829","1737","16977","16977","1737","1737","15075","155386","1736","71461","154565","153844","153844","NA","714","study_X","0","2239","1","yes","1680"
"undefined","undefined","2239","2239","black","no","legacy","legacy","legacy","0","green","(0, 122, 0)","shape","present","highProb","rectangular","swap","swap","same","same","green","(0, 122, 0)","highProbColor","highProbColor","circular","uniform","1","undefined","0.234375","1","1","155.833333333","1","45","29920","0","0","0","0","0","0","0","0","69","0","1","0.234375","155.833333333","45","29920","69","69","69","08/24/17 10:08:16","Default description","yes","<openexp._canvas.legacy.legacy object at 0x04A527F0>","<openexp._canvas.legacy.legacy object at 0x04A5D7B0>","<openexp._canvas.legacy.legacy object at 0x04A47370>","<openexp._canvas.legacy.legacy object at 0x04B3F9D0>","<openexp._canvas.legacy.legacy object at 0x04B114B0>","<openexp._canvas.legacy.legacy object at 0x04B3BBB0>","<openexp._canvas.legacy.legacy object at 0x04B12C10>","75","IndividualPriorityWithDis_v1.osexp","C:/Userdata/Michel/SpatialProb/IndividualPriorityMaps/Experiment2","no","mono","no","18","no","white","no","yes","0.09","98","1050","legacy","45","44","44","1","C:/Userdata/Michel/SpatialProb/IndividualPriorityMaps/Experiment2/data/subject-19.csv","legacy","9","192","25","Jazzy James","3.1.3","yes","598477b2b83f69022949e7e9","47","green","rectangular","green","circular","0","\","738","space","2239","2239","(80, 80, 80)","(0, 122, 0)","(179, 0, 0)","(155, 155, 155)","2","legacy","experiment","[2, 3, 4, 5, 6, 7, 0, 1]","\","2500","3000","0","8","252.758751519","1024","2","48000","-16","main","[(0, -252), (178, -178), (252, 0), (178, 178), (0, 252), (-178, 178), (-252, 0), (-178, -178)]","[]","19","odd","2","66789","71461","71461","12835","11829","1737","16977","16977","1737","1737","15075","157258","1736","71461","156516","155796","155796","NA","714","study_X","0","2239","1","yes","1680"
"undefined","undefined","2239","2239","black","no","legacy","legacy","legacy","0","red","(179, 0, 0)","color","present","highProb","rectangular","swap","same","same","swap","green","(0, 122, 0)","lowProb","lowProb3","rectangular","uniform","1","undefined","0.239583333333","1","1","158.817708333","1","46","30493","0","0","0","0","0","0","0","0","70","0","1","0.239583333333","158.817708333","46","30493","70","70","70","08/24/17 10:08:16","Default description","yes","<openexp._canvas.legacy.legacy object at 0x04A527F0>","<openexp._canvas.legacy.legacy object at 0x04A5D7B0>","<openexp._canvas.legacy.legacy object at 0x04A47370>","<openexp._canvas.legacy.legacy object at 0x04B3F9D0>","<openexp._canvas.legacy.legacy object at 0x04B114B0>","<openexp._canvas.legacy.legacy object at 0x04A62070>","<openexp._canvas.legacy.legacy object at 0x04B12C10>","75","IndividualPriorityWithDis_v1.osexp","C:/Userdata/Michel/SpatialProb/IndividualPriorityMaps/Experiment2","no","mono","no","18","no","white","no","yes","0.09","98","1050","legacy","45","45","45","1","C:/Userdata/Michel/SpatialProb/IndividualPriorityMaps/Experiment2/data/subject-19.csv","legacy","9","192","25","Jazzy James","3.1.3","yes","598477b2b83f69022949e7e9","47","red","rectangular","green","rectangular","0","\","573","space","2239","2239","(80, 80, 80)","(0, 122, 0)","(179, 0, 0)","(155, 155, 155)","2","legacy","experiment","[2, 3, 4, 5, 6, 7, 0, 1]","\","2500","3000","0","8","252.758751519","1024","2","48000","-16","main","[(0, -252), (178, -178), (252, 0), (178, 178), (0, 252), (-178, 178), (-252, 0), (-178, -178)]","[]","19","odd","5","66789","71461","71461","12835","11829","1737","16977","16977","1737","1737","15075","158954","1736","71461","158377","157657","157657","NA","714","study_X","0","2239","1","yes","1680"
"undefined","undefined","2239","2239","black","no","legacy","legacy","legacy","0","red","(179, 0, 0)","color","present","lowProb3","rectangular","same","same","same","same","green","(0, 122, 0)","lowProb","lowProb1","rectangular","uniform","1","undefined","0.244791666667","1","1","161.520833333","1","47","31012","0","0","0","0","0","0","0","0","71","0","1","0.244791666667","161.520833333","47","31012","71","71","71","08/24/17 10:08:16","Default description","yes","<openexp._canvas.legacy.legacy object at 0x04A527F0>","<openexp._canvas.legacy.legacy object at 0x04A5D7B0>","<openexp._canvas.legacy.legacy object at 0x04A47370>","<openexp._canvas.legacy.legacy object at 0x04B3F9D0>","<openexp._canvas.legacy.legacy object at 0x04B114B0>","<openexp._canvas.legacy.legacy object at 0x04BA1E70>","<openexp._canvas.legacy.legacy object at 0x04B12C10>","75","IndividualPriorityWithDis_v1.osexp","C:/Userdata/Michel/SpatialProb/IndividualPriorityMaps/Experiment2","no","mono","no","18","no","white","no","yes","0.09","98","1050","legacy","45","46","46","1","C:/Userdata/Michel/SpatialProb/IndividualPriorityMaps/Experiment2/data/subject-19.csv","legacy","9","192","25","Jazzy James","3.1.3","yes","598477b2b83f69022949e7e9","47","red","rectangular","green","rectangular","0","\","519","space","2239","2239","(80, 80, 80)","(0, 122, 0)","(179, 0, 0)","(155, 155, 155)","2","legacy","experiment","[2, 3, 4, 5, 6, 7, 0, 1]","\","2500","3000","0","8","252.758751519","1024","2","48000","-16","main","[(0, -252), (178, -178), (252, 0), (178, 178), (0, 252), (-178, 178), (-252, 0), (-178, -178)]","[]","19","odd","3","66789","71461","71461","12835","11829","1737","16977","16977","1737","1737","15075","160609","1736","71461","160087","159367","159367","NA","714","study_X","0","2239","1","yes","1680"
"undefined","undefined","2239","2239","black","no","legacy","legacy","legacy","0","red","(179, 0, 0)","color","present","highProb","circular","same","swap","same","swap","green","(0, 122, 0)","lowProb","lowProb5","circular","uniform","1","undefined","0.25","1","1","164.036458333","1","48","31495","0","0","0","0","0","0","0","0","72","0","1","0.25","164.036458333","48","31495","72","72","72","08/24/17 10:08:16","Default description","yes","<openexp._canvas.legacy.legacy object at 0x04A527F0>","<openexp._canvas.legacy.legacy object at 0x04A5D7B0>","<openexp._canvas.legacy.legacy object at 0x04A47370>","<openexp._canvas.legacy.legacy object at 0x04B3F9D0>","<openexp._canvas.legacy.legacy object at 0x04B114B0>","<openexp._canvas.legacy.legacy object at 0x04A69570>","<openexp._canvas.legacy.legacy object at 0x04B12C10>","75","IndividualPriorityWithDis_v1.osexp","C:/Userdata/Michel/SpatialProb/IndividualPriorityMaps/Experiment2","no","mono","no","18","no","white","no","yes","0.09","98","1050","legacy","45","47","47","1","C:/Userdata/Michel/SpatialProb/IndividualPriorityMaps/Experiment2/data/subject-19.csv","legacy","9","192","25","Jazzy James","3.1.3","yes","598477b2b83f69022949e7e9","47","red","circular","green","circular","0","\","483","space","2239","2239","(80, 80, 80)","(0, 122, 0)","(179, 0, 0)","(155, 155, 155)","2","legacy","experiment","[2, 3, 4, 5, 6, 7, 0, 1]","\","2500","3000","0","8","252.758751519","1024","2","48000","-16","main","[(0, -252), (178, -178), (252, 0), (178, 178), (0, 252), (-178, 178), (-252, 0), (-178, -178)]","[]","19","odd","0","66789","71461","71461","12835","11829","1737","16977","16977","1737","1737","15075","162225","1736","71461","161739","161019","161020","NA","714","study_X","0","2239","1","yes","1680"
"undefined","undefined","2239","2239","black","no","legacy","legacy","legacy","0","green","(0, 122, 0)","shape","absent","highProb","rectangular","swap","swap","same","swap","green","(0, 122, 0)","highProbColor","highProbColor","rectangular","uniform","1","undefined","0.255208333333","1","1","167.369791667","1","49","32135","0","0","0","0","0","0","0","0","73","0","1","0.255208333333","167.369791667","49","32135","73","73","73","08/24/17 10:08:16","Default description","yes","<openexp._canvas.legacy.legacy object at 0x04A527F0>","<openexp._canvas.legacy.legacy object at 0x04A5D7B0>","<openexp._canvas.legacy.legacy object at 0x04A47370>","<openexp._canvas.legacy.legacy object at 0x04B3F9D0>","<openexp._canvas.legacy.legacy object at 0x04B114B0>","<openexp._canvas.legacy.legacy object at 0x04A64390>","<openexp._canvas.legacy.legacy object at 0x04B12C10>","75","IndividualPriorityWithDis_v1.osexp","C:/Userdata/Michel/SpatialProb/IndividualPriorityMaps/Experiment2","no","mono","no","18","no","white","no","yes","0.09","98","1050","legacy","315","48","48","1","C:/Userdata/Michel/SpatialProb/IndividualPriorityMaps/Experiment2/data/subject-19.csv","legacy","9","192","25","Jazzy James","3.1.3","yes","598477b2b83f69022949e7e9","47","green","rectangular","green","rectangular","0","/","640","space","2239","2239","(80, 80, 80)","(0, 122, 0)","(179, 0, 0)","(155, 155, 155)","2","legacy","experiment","[2, 3, 4, 5, 6, 7, 0, 1]","/","2500","3000","0","8","252.758751519","1024","2","48000","-16","main","[(0, -252), (178, -178), (252, 0), (178, 178), (0, 252), (-178, 178), (-252, 0), (-178, -178)]","[]","19","odd","2","66789","71461","71461","12835","11829","1737","16977","16977","1737","1737","15075","163993","1736","71461","163350","162630","162630","NA","714","study_X","0","2239","1","yes","1680"
"undefined","undefined","2239","2239","black","no","legacy","legacy","legacy","0","green","(0, 122, 0)","shape","present","lowProb3","rectangular","same","same","same","swap","green","(0, 122, 0)","highProbColor","highProbColor","circular","uniform","1","undefined","0.260416666667","1","1","172.119791667","1","50","33047","0","0","0","0","0","0","0","0","74","0","1","0.260416666667","172.119791667","50","33047","74","74","74","08/24/17 10:08:16","Default description","yes","<openexp._canvas.legacy.legacy object at 0x04A527F0>","<openexp._canvas.legacy.legacy object at 0x04A5D7B0>","<openexp._canvas.legacy.legacy object at 0x04A47370>","<openexp._canvas.legacy.legacy object at 0x04B3F9D0>","<openexp._canvas.legacy.legacy object at 0x04B114B0>","<openexp._canvas.legacy.legacy object at 0x04B45170>","<openexp._canvas.legacy.legacy object at 0x04B12C10>","75","IndividualPriorityWithDis_v1.osexp","C:/Userdata/Michel/SpatialProb/IndividualPriorityMaps/Experiment2","no","mono","no","18","no","white","no","yes","0.09","98","1050","legacy","315","49","49","1","C:/Userdata/Michel/SpatialProb/IndividualPriorityMaps/Experiment2/data/subject-19.csv","legacy","9","192","25","Jazzy James","3.1.3","yes","598477b2b83f69022949e7e9","47","green","rectangular","green","circular","0","/","912","space","2239","2239","(80, 80, 80)","(0, 122, 0)","(179, 0, 0)","(155, 155, 155)","2","legacy","experiment","[2, 3, 4, 5, 6, 7, 0, 1]","/","2500","3000","0","8","252.758751519","1024","2","48000","-16","main","[(0, -252), (178, -178), (252, 0), (178, 178), (0, 252), (-178, 178), (-252, 0), (-178, -178)]","[]","19","odd","2","66789","71461","71461","12835","11829","1737","16977","16977","1737","1737","15075","166033","1736","71461","165118","164398","164398","NA","714","study_X","0","2239","1","yes","1680"
"undefined","undefined","2239","2239","black","no","legacy","legacy","legacy","0","red","(179, 0, 0)","shape","present","lowProb4","circular","swap","swap","swap","swap","red","(179, 0, 0)","lowProb","lowProb3","rectangular","uniform","1","undefined","0.265625","1","1","176.557291667","1","51","33899","0","0","0","0","0","0","0","0","75","0","1","0.265625","176.557291667","51","33899","75","75","75","08/24/17 10:08:16","Default description","yes","<openexp._canvas.legacy.legacy object at 0x04A527F0>","<openexp._canvas.legacy.legacy object at 0x04A5D7B0>","<openexp._canvas.legacy.legacy object at 0x04A47370>","<openexp._canvas.legacy.legacy object at 0x04B3F9D0>","<openexp._canvas.legacy.legacy object at 0x04B114B0>","<openexp._canvas.legacy.legacy object at 0x04B3FBF0>","<openexp._canvas.legacy.legacy object at 0x04B12C10>","75","IndividualPriorityWithDis_v1.osexp","C:/Userdata/Michel/SpatialProb/IndividualPriorityMaps/Experiment2","no","mono","no","18","no","white","no","yes","0.09","98","1050","legacy","45","50","50","1","C:/Userdata/Michel/SpatialProb/IndividualPriorityMaps/Experiment2/data/subject-19.csv","legacy","9","192","25","Jazzy James","3.1.3","yes","598477b2b83f69022949e7e9","47","red","circular","red","rectangular","0","\","852","space","2239","2239","(80, 80, 80)","(0, 122, 0)","(179, 0, 0)","(155, 155, 155)","2","legacy","experiment","[2, 3, 4, 5, 6, 7, 0, 1]","\","2500","3000","0","8","252.758751519","1024","2","48000","-16","main","[(0, -252), (178, -178), (252, 0), (178, 178), (0, 252), (-178, 178), (-252, 0), (-178, -178)]","[]","19","odd","5","66789","71461","71461","12835","11829","1737","16977","16977","1737","1737","15075","168009","1736","71461","167154","166434","166434","NA","714","study_X","0","2239","1","yes","1680"
"undefined","undefined","2239","2239","black","no","legacy","legacy","legacy","0","red","(179, 0, 0)","shape","present","highProb","rectangular","same","swap","same","swap","red","(179, 0, 0)","lowProb","lowProb1","circular","uniform","1","undefined","0.270833333333","1","1","179.614583333","1","52","34486","0","0","0","0","0","0","0","0","76","0","1","0.270833333333","179.614583333","52","34486","76","76","76","08/24/17 10:08:16","Default description","yes","<openexp._canvas.legacy.legacy object at 0x04A527F0>","<openexp._canvas.legacy.legacy object at 0x04A5D7B0>","<openexp._canvas.legacy.legacy object at 0x04A47370>","<openexp._canvas.legacy.legacy object at 0x04B3F9D0>","<openexp._canvas.legacy.legacy object at 0x04B114B0>","<openexp._canvas.legacy.legacy object at 0x04A641D0>","<openexp._canvas.legacy.legacy object at 0x04B12C10>","75","IndividualPriorityWithDis_v1.osexp","C:/Userdata/Michel/SpatialProb/IndividualPriorityMaps/Experiment2","no","mono","no","18","no","white","no","yes","0.09","98","1050","legacy","45","51","51","1","C:/Userdata/Michel/SpatialProb/IndividualPriorityMaps/Experiment2/data/subject-19.csv","legacy","9","192","25","Jazzy James","3.1.3","yes","598477b2b83f69022949e7e9","47","red","rectangular","red","circular","0","\","587","space","2239","2239","(80, 80, 80)","(0, 122, 0)","(179, 0, 0)","(155, 155, 155)","2","legacy","experiment","[2, 3, 4, 5, 6, 7, 0, 1]","\","2500","3000","0","8","252.758751519","1024","2","48000","-16","main","[(0, -252), (178, -178), (252, 0), (178, 178), (0, 252), (-178, 178), (-252, 0), (-178, -178)]","[]","19","odd","3","66789","71461","71461","12835","11829","1737","16977","16977","1737","1737","15075","169729","1736","71461","169138","168418","168418","NA","714","study_X","0","2239","1","yes","1680"
"undefined","undefined","2239","2239","black","no","legacy","legacy","legacy","0","green","(0, 122, 0)","color","present","highProb","circular","swap","swap","same","same","red","(179, 0, 0)","highProbShape","highProbShape","circular","uniform","1","undefined","0.276041666667","1","1","182.130208333","1","53","34969","0","0","0","0","0","0","0","0","77","0","1","0.276041666667","182.130208333","53","34969","77","77","77","08/24/17 10:08:16","Default description","yes","<openexp._canvas.legacy.legacy object at 0x04A527F0>","<openexp._canvas.legacy.legacy object at 0x04A5D7B0>","<openexp._canvas.legacy.legacy object at 0x04A47370>","<openexp._canvas.legacy.legacy object at 0x04B3F9D0>","<openexp._canvas.legacy.legacy object at 0x04B114B0>","<openexp._canvas.legacy.legacy object at 0x04A62C10>","<openexp._canvas.legacy.legacy object at 0x04B12C10>","75","IndividualPriorityWithDis_v1.osexp","C:/Userdata/Michel/SpatialProb/IndividualPriorityMaps/Experiment2","no","mono","no","18","no","white","no","yes","0.09","98","1050","legacy","45","52","52","1","C:/Userdata/Michel/SpatialProb/IndividualPriorityMaps/Experiment2/data/subject-19.csv","legacy","9","192","25","Jazzy James","3.1.3","yes","598477b2b83f69022949e7e9","47","green","circular","red","circular","0","\","483","space","2239","2239","(80, 80, 80)","(0, 122, 0)","(179, 0, 0)","(155, 155, 155)","2","legacy","experiment","[2, 3, 4, 5, 6, 7, 0, 1]","\","2500","3000","0","8","252.758751519","1024","2","48000","-16","main","[(0, -252), (178, -178), (252, 0), (178, 178), (0, 252), (-178, 178), (-252, 0), (-178, -178)]","[]","19","odd","6","66789","71461","71461","12835","11829","1737","16977","16977","1737","1737","15075","171346","1736","71461","170859","170139","170139","NA","714","study_X","0","2239","1","yes","1680"
"undefined","undefined","2239","2239","black","no","legacy","legacy","legacy","0","green","(0, 122, 0)","color","present","lowProb1","rectangular","same","swap","same","swap","red","(179, 0, 0)","lowProb","lowProb6","rectangular","uniform","1","undefined","0.28125","1","1","184.765625","1","54","35475","0","0","0","0","0","0","0","0","78","0","1","0.28125","184.765625","54","35475","78","78","78","08/24/17 10:08:16","Default description","yes","<openexp._canvas.legacy.legacy object at 0x04A527F0>","<openexp._canvas.legacy.legacy object at 0x04A5D7B0>","<openexp._canvas.legacy.legacy object at 0x04A47370>","<openexp._canvas.legacy.legacy object at 0x04B3F9D0>","<openexp._canvas.legacy.legacy object at 0x04B114B0>","<openexp._canvas.legacy.legacy object at 0x04B3F070>","<openexp._canvas.legacy.legacy object at 0x04B12C10>","75","IndividualPriorityWithDis_v1.osexp","C:/Userdata/Michel/SpatialProb/IndividualPriorityMaps/Experiment2","no","mono","no","18","no","white","no","yes","0.09","98","1050","legacy","45","53","53","1","C:/Userdata/Michel/SpatialProb/IndividualPriorityMaps/Experiment2/data/subject-19.csv","legacy","9","192","25","Jazzy James","3.1.3","yes","598477b2b83f69022949e7e9","47","green","rectangular","red","rectangular","0","\","506","space","2239","2239","(80, 80, 80)","(0, 122, 0)","(179, 0, 0)","(155, 155, 155)","2","legacy","experiment","[2, 3, 4, 5, 6, 7, 0, 1]","\","2500","3000","0","8","252.758751519","1024","2","48000","-16","main","[(0, -252), (178, -178), (252, 0), (178, 178), (0, 252), (-178, 178), (-252, 0), (-178, -178)]","[]","19","odd","1","66789","71461","71461","12835","11829","1737","16977","16977","1737","1737","15075","172970","1736","71461","172460","171741","171741","NA","714","study_X","0","2239","1","yes","1680"
