"acc","accuracy","average_response_time","avg_rt","background","bidi","canvas_backend","clock_backend","color_backend","compensation","cond_disColor","cond_disColorRGB","cond_disFeature","cond_disPresent","cond_disProbability","cond_disShape","cond_primingDisColor","cond_primingDisShape","cond_primingTarColor","cond_primingTarShape","cond_tarColor","cond_tarColorRGB","cond_tarLocation","cond_tarLocationLong","cond_tarShape","coordinates","correct","correct_continuePress","count_blockAcc","count_blockFeed","count_blockLoop","count_blockRT","count_blockSeq","count_blockSumCorrect","count_blockSumRT","count_continuePress","count_example","count_expSettings","count_exp_mainLoop","count_experiment","count_instructions","count_instructions1","count_instructions2","count_log","count_main","count_prepCanvas","count_totalAcc","count_totalRT","count_totalSumCorrect","count_totalSumRT","count_trialResp","count_trialSeq","count_trialTask","datetime","description","disable_garbage_collection","dispBlank","dispBlockStart","dispFeedBlock","dispFix","dispInstructions","dispSearch","dispStartScreen","distance2screen","experiment_file","experiment_path","font_bold","font_family","font_italic","font_size","font_underline","foreground","form_clicks","fullscreen","gaborFreq","gaborSize","height","keyboard_backend","lineOriTar","live_row","live_row_blockLoop","live_row_exp_mainLoop","logfile","mouse_backend","noExpBlocks","noExpTrials","noPracTrials","opensesame_codename","opensesame_version","osf_always_upload_experiment","osf_id","physical_screensize","previousDisColor","previousDisShape","previousTarColor","previousTarShape","repeat_cycle","response","responseTime","response_continuePress","response_time","response_time_continuePress","rgb_gray","rgb_green","rgb_red","rgb_white","round_decimals","sampler_backend","set_blockType","set_counterPositions","set_respCorrect","set_respTimeoutExp","set_respTimeoutPrac","set_rotation","set_setSize","sizeImaginary","sound_buf_size","sound_channels","sound_freq","sound_sample_size","start","stimPositions","stimuli","subject_nr","subject_parity","tarIdx","time_blockFeed","time_blockLoop","time_blockSeq","time_continuePress","time_example","time_expSettings","time_exp_mainLoop","time_experiment","time_instructions","time_instructions1","time_instructions2","time_log","time_main","time_prepCanvas","time_trialResp","time_trialSeq","time_trialTask","timing_EEGwait","timing_fix","title","total_correct","total_response_time","total_responses","uniform_coordinates","width"
"undefined","undefined","14326","14326","black","no","legacy","legacy","legacy","0","red","(179, 0, 0)","shape","present","highProb","circular","swap","swap","same","same","red","(179, 0, 0)","lowProb","lowProb5","rectangular","uniform","1","undefined","0.00520833333333","1","1","5.16145833333","1","1","991","0","0","0","0","0","0","0","0","25","0","1","0.00520833333333","5.16145833333","1","991","25","25","25","08/25/17 09:50:13","Default description","yes","<openexp._canvas.legacy.legacy object at 0x049F27F0>","<openexp._canvas.legacy.legacy object at 0x049FD7B0>","<openexp._canvas.legacy.legacy object at 0x049EA370>","<openexp._canvas.legacy.legacy object at 0x04AE09D0>","<openexp._canvas.legacy.legacy object at 0x04AB14B0>","<openexp._canvas.legacy.legacy object at 0x049EE550>","<openexp._canvas.legacy.legacy object at 0x04AB2A50>","75","IndividualPriorityWithDis_v1.osexp","C:/Userdata/Michel/SpatialProb/IndividualPriorityMaps/Experiment2","no","mono","no","18","no","white","no","yes","0.09","98","1050","legacy","45","0","0","1","C:/Userdata/Michel/SpatialProb/IndividualPriorityMaps/Experiment2/data/subject-24.csv","legacy","9","192","25","Jazzy James","3.1.3","yes","598477b2b83f69022949e7e9","47","red","circular","red","rectangular","0","\","991","space","14326","14326","(80, 80, 80)","(0, 122, 0)","(179, 0, 0)","(155, 155, 155)","2","legacy","experiment","[7, 0, 1, 2, 3, 4, 5, 6]","\","2500","3000","0","8","252.758751519","1024","2","48000","-16","main","[(0, -252), (178, -178), (252, 0), (178, 178), (0, 252), (-178, 178), (-252, 0), (-178, -178)]","[]","24","even","5","198801","221136","221136","114528","113522","1595","136741","136741","1595","1595","128854","228325","1592","221136","227330","221527","221527","NA","726","study_X","0","14326","1","yes","1680"
"undefined","undefined","14326","14326","black","no","legacy","legacy","legacy","0","green","(0, 122, 0)","shape","present","highProb","circular","swap","same","swap","same","green","(0, 122, 0)","lowProb","lowProb6","rectangular","uniform","1","undefined","0.0104166666667","1","1","10.078125","1","2","1935","0","0","0","0","0","0","0","0","26","0","1","0.0104166666667","10.078125","2","1935","26","26","26","08/25/17 09:50:13","Default description","yes","<openexp._canvas.legacy.legacy object at 0x049F27F0>","<openexp._canvas.legacy.legacy object at 0x049FD7B0>","<openexp._canvas.legacy.legacy object at 0x049EA370>","<openexp._canvas.legacy.legacy object at 0x04AE09D0>","<openexp._canvas.legacy.legacy object at 0x04AB14B0>","<openexp._canvas.legacy.legacy object at 0x049FDFB0>","<openexp._canvas.legacy.legacy object at 0x04AB2A50>","75","IndividualPriorityWithDis_v1.osexp","C:/Userdata/Michel/SpatialProb/IndividualPriorityMaps/Experiment2","no","mono","no","18","no","white","no","yes","0.09","98","1050","legacy","45","1","1","1","C:/Userdata/Michel/SpatialProb/IndividualPriorityMaps/Experiment2/data/subject-24.csv","legacy","9","192","25","Jazzy James","3.1.3","yes","598477b2b83f69022949e7e9","47","green","circular","green","rectangular","0","\","944","space","14326","14326","(80, 80, 80)","(0, 122, 0)","(179, 0, 0)","(155, 155, 155)","2","legacy","experiment","[7, 0, 1, 2, 3, 4, 5, 6]","\","2500","3000","0","8","252.758751519","1024","2","48000","-16","main","[(0, -252), (178, -178), (252, 0), (178, 178), (0, 252), (-178, 178), (-252, 0), (-178, -178)]","[]","24","even","6","198801","221136","221136","114528","113522","1595","136741","136741","1595","1595","128854","230429","1592","221136","229481","228749","228749","NA","726","study_X","0","14326","1","yes","1680"
"undefined","undefined","14326","14326","black","no","legacy","legacy","legacy","0","green","(0, 122, 0)","shape","present","lowProb6","rectangular","same","swap","same","swap","green","(0, 122, 0)","lowProb","lowProb4","circular","uniform","1","undefined","0.015625","1","1","16.265625","1","3","3123","0","0","0","0","0","0","0","0","27","0","1","0.015625","16.265625","3","3123","27","27","27","08/25/17 09:50:13","Default description","yes","<openexp._canvas.legacy.legacy object at 0x049F27F0>","<openexp._canvas.legacy.legacy object at 0x049FD7B0>","<openexp._canvas.legacy.legacy object at 0x049EA370>","<openexp._canvas.legacy.legacy object at 0x04AE09D0>","<openexp._canvas.legacy.legacy object at 0x04AB14B0>","<openexp._canvas.legacy.legacy object at 0x049EF950>","<openexp._canvas.legacy.legacy object at 0x04AB2A50>","75","IndividualPriorityWithDis_v1.osexp","C:/Userdata/Michel/SpatialProb/IndividualPriorityMaps/Experiment2","no","mono","no","18","no","white","no","yes","0.09","98","1050","legacy","45","2","2","1","C:/Userdata/Michel/SpatialProb/IndividualPriorityMaps/Experiment2/data/subject-24.csv","legacy","9","192","25","Jazzy James","3.1.3","yes","598477b2b83f69022949e7e9","47","green","rectangular","green","circular","0","\","1188","space","14326","14326","(80, 80, 80)","(0, 122, 0)","(179, 0, 0)","(155, 155, 155)","2","legacy","experiment","[7, 0, 1, 2, 3, 4, 5, 6]","\","2500","3000","0","8","252.758751519","1024","2","48000","-16","main","[(0, -252), (178, -178), (252, 0), (178, 178), (0, 252), (-178, 178), (-252, 0), (-178, -178)]","[]","24","even","4","198801","221136","221136","114528","113522","1595","136741","136741","1595","1595","128854","232765","1592","221136","231574","230842","230842","NA","726","study_X","0","14326","1","yes","1680"
"undefined","undefined","14326","14326","black","no","legacy","legacy","legacy","0","red","(179, 0, 0)","shape","present","highProb","circular","swap","swap","swap","swap","red","(179, 0, 0)","lowProb","lowProb4","rectangular","uniform","1","undefined","0.0208333333333","1","1","20.2135416667","1","4","3881","0","0","0","0","0","0","0","0","28","0","1","0.0208333333333","20.2135416667","4","3881","28","28","28","08/25/17 09:50:13","Default description","yes","<openexp._canvas.legacy.legacy object at 0x049F27F0>","<openexp._canvas.legacy.legacy object at 0x049FD7B0>","<openexp._canvas.legacy.legacy object at 0x049EA370>","<openexp._canvas.legacy.legacy object at 0x04AE09D0>","<openexp._canvas.legacy.legacy object at 0x04AB14B0>","<openexp._canvas.legacy.legacy object at 0x049EA250>","<openexp._canvas.legacy.legacy object at 0x04AB2A50>","75","IndividualPriorityWithDis_v1.osexp","C:/Userdata/Michel/SpatialProb/IndividualPriorityMaps/Experiment2","no","mono","no","18","no","white","no","yes","0.09","98","1050","legacy","45","3","3","1","C:/Userdata/Michel/SpatialProb/IndividualPriorityMaps/Experiment2/data/subject-24.csv","legacy","9","192","25","Jazzy James","3.1.3","yes","598477b2b83f69022949e7e9","47","red","circular","red","rectangular","0","\","758","space","14326","14326","(80, 80, 80)","(0, 122, 0)","(179, 0, 0)","(155, 155, 155)","2","legacy","experiment","[7, 0, 1, 2, 3, 4, 5, 6]","\","2500","3000","0","8","252.758751519","1024","2","48000","-16","main","[(0, -252), (178, -178), (252, 0), (178, 178), (0, 252), (-178, 178), (-252, 0), (-178, -178)]","[]","24","even","4","198801","221136","221136","114528","113522","1595","136741","136741","1595","1595","128854","234669","1592","221136","233908","233176","233176","NA","726","study_X","0","14326","1","yes","1680"
"undefined","undefined","14326","14326","black","no","legacy","legacy","legacy","0","green","(0, 122, 0)","color","present","lowProb3","circular","swap","same","same","swap","red","(179, 0, 0)","lowProb","lowProb5","circular","uniform","0","undefined","0.0208333333333","1","1","27.4583333333","1","4","5272","0","0","0","0","0","0","0","0","29","0","1","0.0208333333333","27.4583333333","4","5272","29","29","29","08/25/17 09:50:13","Default description","yes","<openexp._canvas.legacy.legacy object at 0x049F27F0>","<openexp._canvas.legacy.legacy object at 0x049FD7B0>","<openexp._canvas.legacy.legacy object at 0x049EA370>","<openexp._canvas.legacy.legacy object at 0x04AE09D0>","<openexp._canvas.legacy.legacy object at 0x04AB14B0>","<openexp._canvas.legacy.legacy object at 0x049EFF50>","<openexp._canvas.legacy.legacy object at 0x04AB2A50>","75","IndividualPriorityWithDis_v1.osexp","C:/Userdata/Michel/SpatialProb/IndividualPriorityMaps/Experiment2","no","mono","no","18","no","white","no","yes","0.09","98","1050","legacy","315","4","4","1","C:/Userdata/Michel/SpatialProb/IndividualPriorityMaps/Experiment2/data/subject-24.csv","legacy","9","192","25","Jazzy James","3.1.3","yes","598477b2b83f69022949e7e9","47","green","circular","red","circular","0","\","1391","space","14326","14326","(80, 80, 80)","(0, 122, 0)","(179, 0, 0)","(155, 155, 155)","2","legacy","experiment","[7, 0, 1, 2, 3, 4, 5, 6]","/","2500","3000","0","8","252.758751519","1024","2","48000","-16","main","[(0, -252), (178, -178), (252, 0), (178, 178), (0, 252), (-178, 178), (-252, 0), (-178, -178)]","[]","24","even","5","198801","221136","221136","114528","113522","1595","136741","136741","1595","1595","128854","237213","1592","221136","235819","235087","235087","NA","726","study_X","0","14326","1","yes","1680"
"undefined","undefined","14326","14326","black","no","legacy","legacy","legacy","0","green","(0, 122, 0)","shape","absent","lowProb3","rectangular","same","swap","swap","swap","green","(0, 122, 0)","highProbShape","highProbShape","rectangular","uniform","1","undefined","0.0260416666667","1","1","32.6354166667","1","5","6266","0","0","0","0","0","0","0","0","30","0","1","0.0260416666667","32.6354166667","5","6266","30","30","30","08/25/17 09:50:13","Default description","yes","<openexp._canvas.legacy.legacy object at 0x049F27F0>","<openexp._canvas.legacy.legacy object at 0x049FD7B0>","<openexp._canvas.legacy.legacy object at 0x049EA370>","<openexp._canvas.legacy.legacy object at 0x04AE09D0>","<openexp._canvas.legacy.legacy object at 0x04AB14B0>","<openexp._canvas.legacy.legacy object at 0x04AE02B0>","<openexp._canvas.legacy.legacy object at 0x04AB2A50>","75","IndividualPriorityWithDis_v1.osexp","C:/Userdata/Michel/SpatialProb/IndividualPriorityMaps/Experiment2","no","mono","no","18","no","white","no","yes","0.09","98","1050","legacy","45","5","5","1","C:/Userdata/Michel/SpatialProb/IndividualPriorityMaps/Experiment2/data/subject-24.csv","legacy","9","192","25","Jazzy James","3.1.3","yes","598477b2b83f69022949e7e9","47","green","rectangular","green","rectangular","0","\","994","space","14326","14326","(80, 80, 80)","(0, 122, 0)","(179, 0, 0)","(155, 155, 155)","2","legacy","experiment","[7, 0, 1, 2, 3, 4, 5, 6]","\","2500","3000","0","8","252.758751519","1024","2","48000","-16","main","[(0, -252), (178, -178), (252, 0), (178, 178), (0, 252), (-178, 178), (-252, 0), (-178, -178)]","[]","24","even","3","198801","221136","221136","114528","113522","1595","136741","136741","1595","1595","128854","239349","1592","221136","238352","237620","237620","NA","726","study_X","0","14326","1","yes","1680"
"undefined","undefined","14326","14326","black","no","legacy","legacy","legacy","0","green","(0, 122, 0)","shape","present","highProb","rectangular","same","same","same","swap","green","(0, 122, 0)","lowProb","lowProb3","circular","uniform","1","undefined","0.03125","1","1","37.359375","1","6","7173","0","0","0","0","0","0","0","0","31","0","1","0.03125","37.359375","6","7173","31","31","31","08/25/17 09:50:13","Default description","yes","<openexp._canvas.legacy.legacy object at 0x049F27F0>","<openexp._canvas.legacy.legacy object at 0x049FD7B0>","<openexp._canvas.legacy.legacy object at 0x049EA370>","<openexp._canvas.legacy.legacy object at 0x04AE09D0>","<openexp._canvas.legacy.legacy object at 0x04AB14B0>","<openexp._canvas.legacy.legacy object at 0x049EAED0>","<openexp._canvas.legacy.legacy object at 0x04AB2A50>","75","IndividualPriorityWithDis_v1.osexp","C:/Userdata/Michel/SpatialProb/IndividualPriorityMaps/Experiment2","no","mono","no","18","no","white","no","yes","0.09","98","1050","legacy","315","6","6","1","C:/Userdata/Michel/SpatialProb/IndividualPriorityMaps/Experiment2/data/subject-24.csv","legacy","9","192","25","Jazzy James","3.1.3","yes","598477b2b83f69022949e7e9","47","green","rectangular","green","circular","0","/","907","space","14326","14326","(80, 80, 80)","(0, 122, 0)","(179, 0, 0)","(155, 155, 155)","2","legacy","experiment","[7, 0, 1, 2, 3, 4, 5, 6]","/","2500","3000","0","8","252.758751519","1024","2","48000","-16","main","[(0, -252), (178, -178), (252, 0), (178, 178), (0, 252), (-178, 178), (-252, 0), (-178, -178)]","[]","24","even","2","198801","221136","221136","114528","113522","1595","136741","136741","1595","1595","128854","241421","1592","221136","240512","239781","239781","NA","726","study_X","0","14326","1","yes","1680"
"undefined","undefined","14326","14326","black","no","legacy","legacy","legacy","0","red","(179, 0, 0)","color","present","lowProb2","rectangular","swap","same","same","swap","green","(0, 122, 0)","lowProb","lowProb5","rectangular","uniform","1","undefined","0.0364583333333","1","1","41.671875","1","7","8001","0","0","0","0","0","0","0","0","32","0","1","0.0364583333333","41.671875","7","8001","32","32","32","08/25/17 09:50:13","Default description","yes","<openexp._canvas.legacy.legacy object at 0x049F27F0>","<openexp._canvas.legacy.legacy object at 0x049FD7B0>","<openexp._canvas.legacy.legacy object at 0x049EA370>","<openexp._canvas.legacy.legacy object at 0x04AE09D0>","<openexp._canvas.legacy.legacy object at 0x04AB14B0>","<openexp._canvas.legacy.legacy object at 0x049EE550>","<openexp._canvas.legacy.legacy object at 0x04AB2A50>","75","IndividualPriorityWithDis_v1.osexp","C:/Userdata/Michel/SpatialProb/IndividualPriorityMaps/Experiment2","no","mono","no","18","no","white","no","yes","0.09","98","1050","legacy","45","7","7","1","C:/Userdata/Michel/SpatialProb/IndividualPriorityMaps/Experiment2/data/subject-24.csv","legacy","9","192","25","Jazzy James","3.1.3","yes","598477b2b83f69022949e7e9","47","red","rectangular","green","rectangular","0","\","828","space","14326","14326","(80, 80, 80)","(0, 122, 0)","(179, 0, 0)","(155, 155, 155)","2","legacy","experiment","[7, 0, 1, 2, 3, 4, 5, 6]","\","2500","3000","0","8","252.758751519","1024","2","48000","-16","main","[(0, -252), (178, -178), (252, 0), (178, 178), (0, 252), (-178, 178), (-252, 0), (-178, -178)]","[]","24","even","5","198801","221136","221136","114528","113522","1595","136741","136741","1595","1595","128854","243389","1592","221136","242557","241825","241825","NA","726","study_X","0","14326","1","yes","1680"
"undefined","undefined","14326","14326","black","no","legacy","legacy","legacy","0","green","(0, 122, 0)","shape","present","highProb","circular","swap","swap","same","same","green","(0, 122, 0)","lowProb","lowProb6","rectangular","uniform","1","undefined","0.0416666666667","1","1","46.1822916667","1","8","8867","0","0","0","0","0","0","0","0","33","0","1","0.0416666666667","46.1822916667","8","8867","33","33","33","08/25/17 09:50:13","Default description","yes","<openexp._canvas.legacy.legacy object at 0x049F27F0>","<openexp._canvas.legacy.legacy object at 0x049FD7B0>","<openexp._canvas.legacy.legacy object at 0x049EA370>","<openexp._canvas.legacy.legacy object at 0x04AE09D0>","<openexp._canvas.legacy.legacy object at 0x04AB14B0>","<openexp._canvas.legacy.legacy object at 0x04AE0AB0>","<openexp._canvas.legacy.legacy object at 0x04AB2A50>","75","IndividualPriorityWithDis_v1.osexp","C:/Userdata/Michel/SpatialProb/IndividualPriorityMaps/Experiment2","no","mono","no","18","no","white","no","yes","0.09","98","1050","legacy","315","8","8","1","C:/Userdata/Michel/SpatialProb/IndividualPriorityMaps/Experiment2/data/subject-24.csv","legacy","9","192","25","Jazzy James","3.1.3","yes","598477b2b83f69022949e7e9","47","green","circular","green","rectangular","0","/","866","space","14326","14326","(80, 80, 80)","(0, 122, 0)","(179, 0, 0)","(155, 155, 155)","2","legacy","experiment","[7, 0, 1, 2, 3, 4, 5, 6]","/","2500","3000","0","8","252.758751519","1024","2","48000","-16","main","[(0, -252), (178, -178), (252, 0), (178, 178), (0, 252), (-178, 178), (-252, 0), (-178, -178)]","[]","24","even","6","198801","221136","221136","114528","113522","1595","136741","136741","1595","1595","128854","245397","1592","221136","244527","243795","243795","NA","726","study_X","0","14326","1","yes","1680"
"undefined","undefined","14326","14326","black","no","legacy","legacy","legacy","0","green","(0, 122, 0)","shape","present","lowProb1","rectangular","same","swap","same","swap","green","(0, 122, 0)","lowProb","lowProb5","circular","uniform","1","undefined","0.046875","1","1","50.5260416667","1","9","9701","0","0","0","0","0","0","0","0","34","0","1","0.046875","50.5260416667","9","9701","34","34","34","08/25/17 09:50:13","Default description","yes","<openexp._canvas.legacy.legacy object at 0x049F27F0>","<openexp._canvas.legacy.legacy object at 0x049FD7B0>","<openexp._canvas.legacy.legacy object at 0x049EA370>","<openexp._canvas.legacy.legacy object at 0x04AE09D0>","<openexp._canvas.legacy.legacy object at 0x04AB14B0>","<openexp._canvas.legacy.legacy object at 0x049F96D0>","<openexp._canvas.legacy.legacy object at 0x04AB2A50>","75","IndividualPriorityWithDis_v1.osexp","C:/Userdata/Michel/SpatialProb/IndividualPriorityMaps/Experiment2","no","mono","no","18","no","white","no","yes","0.09","98","1050","legacy","315","9","9","1","C:/Userdata/Michel/SpatialProb/IndividualPriorityMaps/Experiment2/data/subject-24.csv","legacy","9","192","25","Jazzy James","3.1.3","yes","598477b2b83f69022949e7e9","47","green","rectangular","green","circular","0","/","834","space","14326","14326","(80, 80, 80)","(0, 122, 0)","(179, 0, 0)","(155, 155, 155)","2","legacy","experiment","[7, 0, 1, 2, 3, 4, 5, 6]","/","2500","3000","0","8","252.758751519","1024","2","48000","-16","main","[(0, -252), (178, -178), (252, 0), (178, 178), (0, 252), (-178, 178), (-252, 0), (-178, -178)]","[]","24","even","5","198801","221136","221136","114528","113522","1595","136741","136741","1595","1595","128854","247380","1592","221136","246544","245812","245812","NA","726","study_X","0","14326","1","yes","1680"
"undefined","undefined","14326","14326","black","no","legacy","legacy","legacy","0","red","(179, 0, 0)","color","present","highProb","rectangular","swap","same","same","swap","green","(0, 122, 0)","lowProb","lowProb5","rectangular","uniform","1","undefined","0.0520833333333","1","1","54.1927083333","1","10","10405","0","0","0","0","0","0","0","0","35","0","1","0.0520833333333","54.1927083333","10","10405","35","35","35","08/25/17 09:50:13","Default description","yes","<openexp._canvas.legacy.legacy object at 0x049F27F0>","<openexp._canvas.legacy.legacy object at 0x049FD7B0>","<openexp._canvas.legacy.legacy object at 0x049EA370>","<openexp._canvas.legacy.legacy object at 0x04AE09D0>","<openexp._canvas.legacy.legacy object at 0x04AB14B0>","<openexp._canvas.legacy.legacy object at 0x049EA790>","<openexp._canvas.legacy.legacy object at 0x04AB2A50>","75","IndividualPriorityWithDis_v1.osexp","C:/Userdata/Michel/SpatialProb/IndividualPriorityMaps/Experiment2","no","mono","no","18","no","white","no","yes","0.09","98","1050","legacy","315","10","10","1","C:/Userdata/Michel/SpatialProb/IndividualPriorityMaps/Experiment2/data/subject-24.csv","legacy","9","192","25","Jazzy James","3.1.3","yes","598477b2b83f69022949e7e9","47","red","rectangular","green","rectangular","0","/","704","space","14326","14326","(80, 80, 80)","(0, 122, 0)","(179, 0, 0)","(155, 155, 155)","2","legacy","experiment","[7, 0, 1, 2, 3, 4, 5, 6]","/","2500","3000","0","8","252.758751519","1024","2","48000","-16","main","[(0, -252), (178, -178), (252, 0), (178, 178), (0, 252), (-178, 178), (-252, 0), (-178, -178)]","[]","24","even","5","198801","221136","221136","114528","113522","1595","136741","136741","1595","1595","128854","249229","1592","221136","248522","247790","247790","NA","726","study_X","0","14326","1","yes","1680"
"undefined","undefined","14326","14326","black","no","legacy","legacy","legacy","0","red","(179, 0, 0)","color","present","highProb","circular","same","swap","same","swap","green","(0, 122, 0)","highProbShape","highProbShape","circular","uniform","1","undefined","0.0572916666667","1","1","59.84375","1","11","11490","0","0","0","0","0","0","0","0","36","0","1","0.0572916666667","59.84375","11","11490","36","36","36","08/25/17 09:50:13","Default description","yes","<openexp._canvas.legacy.legacy object at 0x049F27F0>","<openexp._canvas.legacy.legacy object at 0x049FD7B0>","<openexp._canvas.legacy.legacy object at 0x049EA370>","<openexp._canvas.legacy.legacy object at 0x04AE09D0>","<openexp._canvas.legacy.legacy object at 0x04AB14B0>","<openexp._canvas.legacy.legacy object at 0x049EEBF0>","<openexp._canvas.legacy.legacy object at 0x04AB2A50>","75","IndividualPriorityWithDis_v1.osexp","C:/Userdata/Michel/SpatialProb/IndividualPriorityMaps/Experiment2","no","mono","no","18","no","white","no","yes","0.09","98","1050","legacy","315","11","11","1","C:/Userdata/Michel/SpatialProb/IndividualPriorityMaps/Experiment2/data/subject-24.csv","legacy","9","192","25","Jazzy James","3.1.3","yes","598477b2b83f69022949e7e9","47","red","circular","green","circular","0","/","1085","space","14326","14326","(80, 80, 80)","(0, 122, 0)","(179, 0, 0)","(155, 155, 155)","2","legacy","experiment","[7, 0, 1, 2, 3, 4, 5, 6]","/","2500","3000","0","8","252.758751519","1024","2","48000","-16","main","[(0, -252), (178, -178), (252, 0), (178, 178), (0, 252), (-178, 178), (-252, 0), (-178, -178)]","[]","24","even","3","198801","221136","221136","114528","113522","1595","136741","136741","1595","1595","128854","251461","1592","221136","250373","249641","249641","NA","726","study_X","0","14326","1","yes","1680"
"undefined","undefined","14326","14326","black","no","legacy","legacy","legacy","0","green","(0, 122, 0)","color","present","highProb","circular","swap","same","swap","same","red","(179, 0, 0)","highProbShape","highProbShape","circular","uniform","1","undefined","0.0625","1","1","70.515625","1","12","13539","0","0","0","0","0","0","0","0","37","0","1","0.0625","70.515625","12","13539","37","37","37","08/25/17 09:50:13","Default description","yes","<openexp._canvas.legacy.legacy object at 0x049F27F0>","<openexp._canvas.legacy.legacy object at 0x049FD7B0>","<openexp._canvas.legacy.legacy object at 0x049EA370>","<openexp._canvas.legacy.legacy object at 0x04AE09D0>","<openexp._canvas.legacy.legacy object at 0x04AB14B0>","<openexp._canvas.legacy.legacy object at 0x04AE0DD0>","<openexp._canvas.legacy.legacy object at 0x04AB2A50>","75","IndividualPriorityWithDis_v1.osexp","C:/Userdata/Michel/SpatialProb/IndividualPriorityMaps/Experiment2","no","mono","no","18","no","white","no","yes","0.09","98","1050","legacy","315","12","12","1","C:/Userdata/Michel/SpatialProb/IndividualPriorityMaps/Experiment2/data/subject-24.csv","legacy","9","192","25","Jazzy James","3.1.3","yes","598477b2b83f69022949e7e9","47","green","circular","red","circular","0","/","2049","space","14326","14326","(80, 80, 80)","(0, 122, 0)","(179, 0, 0)","(155, 155, 155)","2","legacy","experiment","[7, 0, 1, 2, 3, 4, 5, 6]","/","2500","3000","0","8","252.758751519","1024","2","48000","-16","main","[(0, -252), (178, -178), (252, 0), (178, 178), (0, 252), (-178, 178), (-252, 0), (-178, -178)]","[]","24","even","3","198801","221136","221136","114528","113522","1595","136741","136741","1595","1595","128854","254693","1592","221136","252641","251909","251909","NA","726","study_X","0","14326","1","yes","1680"
"undefined","undefined","14326","14326","black","no","legacy","legacy","legacy","0","green","(0, 122, 0)","color","present","lowProb1","circular","same","same","same","same","red","(179, 0, 0)","highProbShape","highProbShape","circular","uniform","1","undefined","0.0677083333333","1","1","74.7604166667","1","13","14354","0","0","0","0","0","0","0","0","38","0","1","0.0677083333333","74.7604166667","13","14354","38","38","38","08/25/17 09:50:13","Default description","yes","<openexp._canvas.legacy.legacy object at 0x049F27F0>","<openexp._canvas.legacy.legacy object at 0x049FD7B0>","<openexp._canvas.legacy.legacy object at 0x049EA370>","<openexp._canvas.legacy.legacy object at 0x04AE09D0>","<openexp._canvas.legacy.legacy object at 0x04AB14B0>","<openexp._canvas.legacy.legacy object at 0x049F2E90>","<openexp._canvas.legacy.legacy object at 0x04AB2A50>","75","IndividualPriorityWithDis_v1.osexp","C:/Userdata/Michel/SpatialProb/IndividualPriorityMaps/Experiment2","no","mono","no","18","no","white","no","yes","0.09","98","1050","legacy","45","13","13","1","C:/Userdata/Michel/SpatialProb/IndividualPriorityMaps/Experiment2/data/subject-24.csv","legacy","9","192","25","Jazzy James","3.1.3","yes","598477b2b83f69022949e7e9","47","green","circular","red","circular","0","\","815","space","14326","14326","(80, 80, 80)","(0, 122, 0)","(179, 0, 0)","(155, 155, 155)","2","legacy","experiment","[7, 0, 1, 2, 3, 4, 5, 6]","\","2500","3000","0","8","252.758751519","1024","2","48000","-16","main","[(0, -252), (178, -178), (252, 0), (178, 178), (0, 252), (-178, 178), (-252, 0), (-178, -178)]","[]","24","even","3","198801","221136","221136","114528","113522","1595","136741","136741","1595","1595","128854","256661","1592","221136","255843","255111","255111","NA","726","study_X","0","14326","1","yes","1680"
"undefined","undefined","14326","14326","black","no","legacy","legacy","legacy","0","red","(179, 0, 0)","shape","present","highProb","circular","swap","same","same","swap","red","(179, 0, 0)","lowProb","lowProb4","rectangular","uniform","1","undefined","0.0729166666667","1","1","81.203125","1","14","15591","0","0","0","0","0","0","0","0","39","0","1","0.0729166666667","81.203125","14","15591","39","39","39","08/25/17 09:50:13","Default description","yes","<openexp._canvas.legacy.legacy object at 0x049F27F0>","<openexp._canvas.legacy.legacy object at 0x049FD7B0>","<openexp._canvas.legacy.legacy object at 0x049EA370>","<openexp._canvas.legacy.legacy object at 0x04AE09D0>","<openexp._canvas.legacy.legacy object at 0x04AB14B0>","<openexp._canvas.legacy.legacy object at 0x049EA090>","<openexp._canvas.legacy.legacy object at 0x04AB2A50>","75","IndividualPriorityWithDis_v1.osexp","C:/Userdata/Michel/SpatialProb/IndividualPriorityMaps/Experiment2","no","mono","no","18","no","white","no","yes","0.09","98","1050","legacy","45","14","14","1","C:/Userdata/Michel/SpatialProb/IndividualPriorityMaps/Experiment2/data/subject-24.csv","legacy","9","192","25","Jazzy James","3.1.3","yes","598477b2b83f69022949e7e9","47","red","circular","red","rectangular","0","\","1237","space","14326","14326","(80, 80, 80)","(0, 122, 0)","(179, 0, 0)","(155, 155, 155)","2","legacy","experiment","[7, 0, 1, 2, 3, 4, 5, 6]","\","2500","3000","0","8","252.758751519","1024","2","48000","-16","main","[(0, -252), (178, -178), (252, 0), (178, 178), (0, 252), (-178, 178), (-252, 0), (-178, -178)]","[]","24","even","4","198801","221136","221136","114528","113522","1595","136741","136741","1595","1595","128854","259045","1592","221136","257804","257072","257072","NA","726","study_X","0","14326","1","yes","1680"
"undefined","undefined","14326","14326","black","no","legacy","legacy","legacy","0","red","(179, 0, 0)","color","present","highProb","circular","same","same","swap","swap","green","(0, 122, 0)","highProbShape","highProbShape","circular","uniform","1","undefined","0.078125","1","1","86.7604166667","1","15","16658","0","0","0","0","0","0","0","0","40","0","1","0.078125","86.7604166667","15","16658","40","40","40","08/25/17 09:50:13","Default description","yes","<openexp._canvas.legacy.legacy object at 0x049F27F0>","<openexp._canvas.legacy.legacy object at 0x049FD7B0>","<openexp._canvas.legacy.legacy object at 0x049EA370>","<openexp._canvas.legacy.legacy object at 0x04AE09D0>","<openexp._canvas.legacy.legacy object at 0x04AB14B0>","<openexp._canvas.legacy.legacy object at 0x049EE850>","<openexp._canvas.legacy.legacy object at 0x04AB2A50>","75","IndividualPriorityWithDis_v1.osexp","C:/Userdata/Michel/SpatialProb/IndividualPriorityMaps/Experiment2","no","mono","no","18","no","white","no","yes","0.09","98","1050","legacy","45","15","15","1","C:/Userdata/Michel/SpatialProb/IndividualPriorityMaps/Experiment2/data/subject-24.csv","legacy","9","192","25","Jazzy James","3.1.3","yes","598477b2b83f69022949e7e9","47","red","circular","green","circular","0","\","1067","space","14326","14326","(80, 80, 80)","(0, 122, 0)","(179, 0, 0)","(155, 155, 155)","2","legacy","experiment","[7, 0, 1, 2, 3, 4, 5, 6]","\","2500","3000","0","8","252.758751519","1024","2","48000","-16","main","[(0, -252), (178, -178), (252, 0), (178, 178), (0, 252), (-178, 178), (-252, 0), (-178, -178)]","[]","24","even","3","198801","221136","221136","114528","113522","1595","136741","136741","1595","1595","128854","261277","1592","221136","260206","259474","259474","NA","726","study_X","0","14326","1","yes","1680"
"undefined","undefined","14326","14326","black","no","legacy","legacy","legacy","0","red","(179, 0, 0)","shape","present","highProb","circular","same","same","swap","swap","red","(179, 0, 0)","lowProb","lowProb4","rectangular","uniform","1","undefined","0.0833333333333","1","1","95.5625","1","16","18348","0","0","0","0","0","0","0","0","41","0","1","0.0833333333333","95.5625","16","18348","41","41","41","08/25/17 09:50:13","Default description","yes","<openexp._canvas.legacy.legacy object at 0x049F27F0>","<openexp._canvas.legacy.legacy object at 0x049FD7B0>","<openexp._canvas.legacy.legacy object at 0x049EA370>","<openexp._canvas.legacy.legacy object at 0x04AE09D0>","<openexp._canvas.legacy.legacy object at 0x04AB14B0>","<openexp._canvas.legacy.legacy object at 0x04AE0F50>","<openexp._canvas.legacy.legacy object at 0x04AB2A50>","75","IndividualPriorityWithDis_v1.osexp","C:/Userdata/Michel/SpatialProb/IndividualPriorityMaps/Experiment2","no","mono","no","18","no","white","no","yes","0.09","98","1050","legacy","315","16","16","1","C:/Userdata/Michel/SpatialProb/IndividualPriorityMaps/Experiment2/data/subject-24.csv","legacy","9","192","25","Jazzy James","3.1.3","yes","598477b2b83f69022949e7e9","47","red","circular","red","rectangular","0","/","1690","space","14326","14326","(80, 80, 80)","(0, 122, 0)","(179, 0, 0)","(155, 155, 155)","2","legacy","experiment","[7, 0, 1, 2, 3, 4, 5, 6]","/","2500","3000","0","8","252.758751519","1024","2","48000","-16","main","[(0, -252), (178, -178), (252, 0), (178, 178), (0, 252), (-178, 178), (-252, 0), (-178, -178)]","[]","24","even","4","198801","221136","221136","114528","113522","1595","136741","136741","1595","1595","128854","264108","1592","221136","262416","261684","261685","NA","726","study_X","0","14326","1","yes","1680"
"undefined","undefined","14326","14326","black","no","legacy","legacy","legacy","0","red","(179, 0, 0)","shape","present","highProb","circular","same","same","same","same","red","(179, 0, 0)","lowProb","lowProb4","rectangular","uniform","1","undefined","0.0885416666667","1","1","100.947916667","1","17","19382","0","0","0","0","0","0","0","0","42","0","1","0.0885416666667","100.947916667","17","19382","42","42","42","08/25/17 09:50:13","Default description","yes","<openexp._canvas.legacy.legacy object at 0x049F27F0>","<openexp._canvas.legacy.legacy object at 0x049FD7B0>","<openexp._canvas.legacy.legacy object at 0x049EA370>","<openexp._canvas.legacy.legacy object at 0x04AE09D0>","<openexp._canvas.legacy.legacy object at 0x04AB14B0>","<openexp._canvas.legacy.legacy object at 0x049F90D0>","<openexp._canvas.legacy.legacy object at 0x04AB2A50>","75","IndividualPriorityWithDis_v1.osexp","C:/Userdata/Michel/SpatialProb/IndividualPriorityMaps/Experiment2","no","mono","no","18","no","white","no","yes","0.09","98","1050","legacy","315","17","17","1","C:/Userdata/Michel/SpatialProb/IndividualPriorityMaps/Experiment2/data/subject-24.csv","legacy","9","192","25","Jazzy James","3.1.3","yes","598477b2b83f69022949e7e9","47","red","circular","red","rectangular","0","/","1034","space","14326","14326","(80, 80, 80)","(0, 122, 0)","(179, 0, 0)","(155, 155, 155)","2","legacy","experiment","[7, 0, 1, 2, 3, 4, 5, 6]","/","2500","3000","0","8","252.758751519","1024","2","48000","-16","main","[(0, -252), (178, -178), (252, 0), (178, 178), (0, 252), (-178, 178), (-252, 0), (-178, -178)]","[]","24","even","4","198801","221136","221136","114528","113522","1595","136741","136741","1595","1595","128854","266285","1592","221136","265248","264516","264516","NA","726","study_X","0","14326","1","yes","1680"
"undefined","undefined","14326","14326","black","no","legacy","legacy","legacy","0","green","(0, 122, 0)","color","present","highProb","rectangular","swap","swap","same","same","red","(179, 0, 0)","lowProb","lowProb4","rectangular","uniform","1","undefined","0.09375","1","1","104.385416667","1","18","20042","0","0","0","0","0","0","0","0","43","0","1","0.09375","104.385416667","18","20042","43","43","43","08/25/17 09:50:13","Default description","yes","<openexp._canvas.legacy.legacy object at 0x049F27F0>","<openexp._canvas.legacy.legacy object at 0x049FD7B0>","<openexp._canvas.legacy.legacy object at 0x049EA370>","<openexp._canvas.legacy.legacy object at 0x04AE09D0>","<openexp._canvas.legacy.legacy object at 0x04AB14B0>","<openexp._canvas.legacy.legacy object at 0x049FD130>","<openexp._canvas.legacy.legacy object at 0x04AB2A50>","75","IndividualPriorityWithDis_v1.osexp","C:/Userdata/Michel/SpatialProb/IndividualPriorityMaps/Experiment2","no","mono","no","18","no","white","no","yes","0.09","98","1050","legacy","315","18","18","1","C:/Userdata/Michel/SpatialProb/IndividualPriorityMaps/Experiment2/data/subject-24.csv","legacy","9","192","25","Jazzy James","3.1.3","yes","598477b2b83f69022949e7e9","47","green","rectangular","red","rectangular","0","/","660","space","14326","14326","(80, 80, 80)","(0, 122, 0)","(179, 0, 0)","(155, 155, 155)","2","legacy","experiment","[7, 0, 1, 2, 3, 4, 5, 6]","/","2500","3000","0","8","252.758751519","1024","2","48000","-16","main","[(0, -252), (178, -178), (252, 0), (178, 178), (0, 252), (-178, 178), (-252, 0), (-178, -178)]","[]","24","even","4","198801","221136","221136","114528","113522","1595","136741","136741","1595","1595","128854","268109","1592","221136","267446","266714","266714","NA","726","study_X","0","14326","1","yes","1680"
"undefined","undefined","14326","14326","black","no","legacy","legacy","legacy","0","green","(0, 122, 0)","shape","present","lowProb5","rectangular","same","same","swap","swap","green","(0, 122, 0)","lowProb","lowProb4","circular","uniform","1","undefined","0.0989583333333","1","1","107.989583333","1","19","20734","0","0","0","0","0","0","0","0","44","0","1","0.0989583333333","107.989583333","19","20734","44","44","44","08/25/17 09:50:13","Default description","yes","<openexp._canvas.legacy.legacy object at 0x049F27F0>","<openexp._canvas.legacy.legacy object at 0x049FD7B0>","<openexp._canvas.legacy.legacy object at 0x049EA370>","<openexp._canvas.legacy.legacy object at 0x04AE09D0>","<openexp._canvas.legacy.legacy object at 0x04AB14B0>","<openexp._canvas.legacy.legacy object at 0x04A02A10>","<openexp._canvas.legacy.legacy object at 0x04AB2A50>","75","IndividualPriorityWithDis_v1.osexp","C:/Userdata/Michel/SpatialProb/IndividualPriorityMaps/Experiment2","no","mono","no","18","no","white","no","yes","0.09","98","1050","legacy","45","19","19","1","C:/Userdata/Michel/SpatialProb/IndividualPriorityMaps/Experiment2/data/subject-24.csv","legacy","9","192","25","Jazzy James","3.1.3","yes","598477b2b83f69022949e7e9","47","green","rectangular","green","circular","0","\","692","space","14326","14326","(80, 80, 80)","(0, 122, 0)","(179, 0, 0)","(155, 155, 155)","2","legacy","experiment","[7, 0, 1, 2, 3, 4, 5, 6]","\","2500","3000","0","8","252.758751519","1024","2","48000","-16","main","[(0, -252), (178, -178), (252, 0), (178, 178), (0, 252), (-178, 178), (-252, 0), (-178, -178)]","[]","24","even","4","198801","221136","221136","114528","113522","1595","136741","136741","1595","1595","128854","269949","1592","221136","269254","268522","268522","NA","726","study_X","0","14326","1","yes","1680"
"undefined","undefined","14326","14326","black","no","legacy","legacy","legacy","0","green","(0, 122, 0)","color","present","highProbOther","circular","same","swap","swap","same","red","(179, 0, 0)","lowProb","lowProb6","circular","uniform","1","undefined","0.104166666667","1","1","114.989583333","1","20","22078","0","0","0","0","0","0","0","0","45","0","1","0.104166666667","114.989583333","20","22078","45","45","45","08/25/17 09:50:13","Default description","yes","<openexp._canvas.legacy.legacy object at 0x049F27F0>","<openexp._canvas.legacy.legacy object at 0x049FD7B0>","<openexp._canvas.legacy.legacy object at 0x049EA370>","<openexp._canvas.legacy.legacy object at 0x04AE09D0>","<openexp._canvas.legacy.legacy object at 0x04AB14B0>","<openexp._canvas.legacy.legacy object at 0x04ADBF50>","<openexp._canvas.legacy.legacy object at 0x04AB2A50>","75","IndividualPriorityWithDis_v1.osexp","C:/Userdata/Michel/SpatialProb/IndividualPriorityMaps/Experiment2","no","mono","no","18","no","white","no","yes","0.09","98","1050","legacy","45","20","20","1","C:/Userdata/Michel/SpatialProb/IndividualPriorityMaps/Experiment2/data/subject-24.csv","legacy","9","192","25","Jazzy James","3.1.3","yes","598477b2b83f69022949e7e9","47","green","circular","red","circular","0","\","1344","space","14326","14326","(80, 80, 80)","(0, 122, 0)","(179, 0, 0)","(155, 155, 155)","2","legacy","experiment","[7, 0, 1, 2, 3, 4, 5, 6]","\","2500","3000","0","8","252.758751519","1024","2","48000","-16","main","[(0, -252), (178, -178), (252, 0), (178, 178), (0, 252), (-178, 178), (-252, 0), (-178, -178)]","[]","24","even","6","198801","221136","221136","114528","113522","1595","136741","136741","1595","1595","128854","272445","1592","221136","271098","270366","270366","NA","726","study_X","0","14326","1","yes","1680"
"undefined","undefined","14326","14326","black","no","legacy","legacy","legacy","0","green","(0, 122, 0)","shape","present","highProb","circular","same","same","swap","swap","green","(0, 122, 0)","lowProb","lowProb5","rectangular","uniform","1","undefined","0.109375","1","1","119.807291667","1","21","23003","0","0","0","0","0","0","0","0","46","0","1","0.109375","119.807291667","21","23003","46","46","46","08/25/17 09:50:13","Default description","yes","<openexp._canvas.legacy.legacy object at 0x049F27F0>","<openexp._canvas.legacy.legacy object at 0x049FD7B0>","<openexp._canvas.legacy.legacy object at 0x049EA370>","<openexp._canvas.legacy.legacy object at 0x04AE09D0>","<openexp._canvas.legacy.legacy object at 0x04AB14B0>","<openexp._canvas.legacy.legacy object at 0x04AE02F0>","<openexp._canvas.legacy.legacy object at 0x04AB2A50>","75","IndividualPriorityWithDis_v1.osexp","C:/Userdata/Michel/SpatialProb/IndividualPriorityMaps/Experiment2","no","mono","no","18","no","white","no","yes","0.09","98","1050","legacy","315","21","21","1","C:/Userdata/Michel/SpatialProb/IndividualPriorityMaps/Experiment2/data/subject-24.csv","legacy","9","192","25","Jazzy James","3.1.3","yes","598477b2b83f69022949e7e9","47","green","circular","green","rectangular","0","/","925","space","14326","14326","(80, 80, 80)","(0, 122, 0)","(179, 0, 0)","(155, 155, 155)","2","legacy","experiment","[7, 0, 1, 2, 3, 4, 5, 6]","/","2500","3000","0","8","252.758751519","1024","2","48000","-16","main","[(0, -252), (178, -178), (252, 0), (178, 178), (0, 252), (-178, 178), (-252, 0), (-178, -178)]","[]","24","even","5","198801","221136","221136","114528","113522","1595","136741","136741","1595","1595","128854","274581","1592","221136","273652","272921","272921","NA","726","study_X","0","14326","1","yes","1680"
"undefined","undefined","14326","14326","black","no","legacy","legacy","legacy","0","red","(179, 0, 0)","shape","present","lowProb5","circular","swap","same","swap","same","red","(179, 0, 0)","highProbColor","highProbColor","rectangular","uniform","1","undefined","0.114583333333","1","1","124.942708333","1","22","23989","0","0","0","0","0","0","0","0","47","0","1","0.114583333333","124.942708333","22","23989","47","47","47","08/25/17 09:50:13","Default description","yes","<openexp._canvas.legacy.legacy object at 0x049F27F0>","<openexp._canvas.legacy.legacy object at 0x049FD7B0>","<openexp._canvas.legacy.legacy object at 0x049EA370>","<openexp._canvas.legacy.legacy object at 0x04AE09D0>","<openexp._canvas.legacy.legacy object at 0x04AB14B0>","<openexp._canvas.legacy.legacy object at 0x049F45B0>","<openexp._canvas.legacy.legacy object at 0x04AB2A50>","75","IndividualPriorityWithDis_v1.osexp","C:/Userdata/Michel/SpatialProb/IndividualPriorityMaps/Experiment2","no","mono","no","18","no","white","no","yes","0.09","98","1050","legacy","315","22","22","1","C:/Userdata/Michel/SpatialProb/IndividualPriorityMaps/Experiment2/data/subject-24.csv","legacy","9","192","25","Jazzy James","3.1.3","yes","598477b2b83f69022949e7e9","47","red","circular","red","rectangular","0","/","986","space","14326","14326","(80, 80, 80)","(0, 122, 0)","(179, 0, 0)","(155, 155, 155)","2","legacy","experiment","[7, 0, 1, 2, 3, 4, 5, 6]","/","2500","3000","0","8","252.758751519","1024","2","48000","-16","main","[(0, -252), (178, -178), (252, 0), (178, 178), (0, 252), (-178, 178), (-252, 0), (-178, -178)]","[]","24","even","7","198801","221136","221136","114528","113522","1595","136741","136741","1595","1595","128854","276717","1592","221136","275727","274995","274995","NA","726","study_X","0","14326","1","yes","1680"
"undefined","undefined","14326","14326","black","no","legacy","legacy","legacy","0","red","(179, 0, 0)","color","present","lowProb5","rectangular","same","swap","swap","same","green","(0, 122, 0)","highProbColor","highProbColor","rectangular","uniform","1","undefined","0.119791666667","1","1","131.625","1","23","25272","0","0","0","0","0","0","0","0","48","0","1","0.119791666667","131.625","23","25272","48","48","48","08/25/17 09:50:13","Default description","yes","<openexp._canvas.legacy.legacy object at 0x049F27F0>","<openexp._canvas.legacy.legacy object at 0x049FD7B0>","<openexp._canvas.legacy.legacy object at 0x049EA370>","<openexp._canvas.legacy.legacy object at 0x04AE09D0>","<openexp._canvas.legacy.legacy object at 0x04AB14B0>","<openexp._canvas.legacy.legacy object at 0x049EE270>","<openexp._canvas.legacy.legacy object at 0x04AB2A50>","75","IndividualPriorityWithDis_v1.osexp","C:/Userdata/Michel/SpatialProb/IndividualPriorityMaps/Experiment2","no","mono","no","18","no","white","no","yes","0.09","98","1050","legacy","45","23","23","1","C:/Userdata/Michel/SpatialProb/IndividualPriorityMaps/Experiment2/data/subject-24.csv","legacy","9","192","25","Jazzy James","3.1.3","yes","598477b2b83f69022949e7e9","47","red","rectangular","green","rectangular","0","\","1283","space","14326","14326","(80, 80, 80)","(0, 122, 0)","(179, 0, 0)","(155, 155, 155)","2","legacy","experiment","[7, 0, 1, 2, 3, 4, 5, 6]","\","2500","3000","0","8","252.758751519","1024","2","48000","-16","main","[(0, -252), (178, -178), (252, 0), (178, 178), (0, 252), (-178, 178), (-252, 0), (-178, -178)]","[]","24","even","7","198801","221136","221136","114528","113522","1595","136741","136741","1595","1595","128854","279156","1592","221136","277870","277138","277138","NA","726","study_X","0","14326","1","yes","1680"
"undefined","undefined","14326","14326","black","no","legacy","legacy","legacy","0","red","(179, 0, 0)","color","present","highProb","circular","same","swap","same","swap","green","(0, 122, 0)","lowProb","lowProb4","circular","uniform","0","undefined","0.119791666667","1","1","137.453125","1","23","26391","0","0","0","0","0","0","0","0","49","0","1","0.119791666667","137.453125","23","26391","49","49","49","08/25/17 09:50:13","Default description","yes","<openexp._canvas.legacy.legacy object at 0x049F27F0>","<openexp._canvas.legacy.legacy object at 0x049FD7B0>","<openexp._canvas.legacy.legacy object at 0x049EA370>","<openexp._canvas.legacy.legacy object at 0x04AE09D0>","<openexp._canvas.legacy.legacy object at 0x04AB14B0>","<openexp._canvas.legacy.legacy object at 0x049EA030>","<openexp._canvas.legacy.legacy object at 0x04AB2A50>","75","IndividualPriorityWithDis_v1.osexp","C:/Userdata/Michel/SpatialProb/IndividualPriorityMaps/Experiment2","no","mono","no","18","no","white","no","yes","0.09","98","1050","legacy","45","24","24","1","C:/Userdata/Michel/SpatialProb/IndividualPriorityMaps/Experiment2/data/subject-24.csv","legacy","9","192","25","Jazzy James","3.1.3","yes","598477b2b83f69022949e7e9","47","red","circular","green","circular","0","/","1119","space","14326","14326","(80, 80, 80)","(0, 122, 0)","(179, 0, 0)","(155, 155, 155)","2","legacy","experiment","[7, 0, 1, 2, 3, 4, 5, 6]","\","2500","3000","0","8","252.758751519","1024","2","48000","-16","main","[(0, -252), (178, -178), (252, 0), (178, 178), (0, 252), (-178, 178), (-252, 0), (-178, -178)]","[]","24","even","4","198801","221136","221136","114528","113522","1595","136741","136741","1595","1595","128854","281428","1592","221136","280306","279575","279575","NA","726","study_X","0","14326","1","yes","1680"
"undefined","undefined","14326","14326","black","no","legacy","legacy","legacy","0","red","(179, 0, 0)","shape","absent","highProbOther","circular","same","same","swap","same","red","(179, 0, 0)","lowProb","lowProb5","circular","uniform","1","undefined","0.125","1","1","143.036458333","1","24","27463","0","0","0","0","0","0","0","0","50","0","1","0.125","143.036458333","24","27463","50","50","50","08/25/17 09:50:13","Default description","yes","<openexp._canvas.legacy.legacy object at 0x049F27F0>","<openexp._canvas.legacy.legacy object at 0x049FD7B0>","<openexp._canvas.legacy.legacy object at 0x049EA370>","<openexp._canvas.legacy.legacy object at 0x04AE09D0>","<openexp._canvas.legacy.legacy object at 0x04AB14B0>","<openexp._canvas.legacy.legacy object at 0x049FD910>","<openexp._canvas.legacy.legacy object at 0x04AB2A50>","75","IndividualPriorityWithDis_v1.osexp","C:/Userdata/Michel/SpatialProb/IndividualPriorityMaps/Experiment2","no","mono","no","18","no","white","no","yes","0.09","98","1050","legacy","315","25","25","1","C:/Userdata/Michel/SpatialProb/IndividualPriorityMaps/Experiment2/data/subject-24.csv","legacy","9","192","25","Jazzy James","3.1.3","yes","598477b2b83f69022949e7e9","47","red","circular","red","circular","0","/","1072","space","14326","14326","(80, 80, 80)","(0, 122, 0)","(179, 0, 0)","(155, 155, 155)","2","legacy","experiment","[7, 0, 1, 2, 3, 4, 5, 6]","/","2500","3000","0","8","252.758751519","1024","2","48000","-16","main","[(0, -252), (178, -178), (252, 0), (178, 178), (0, 252), (-178, 178), (-252, 0), (-178, -178)]","[]","24","even","5","198801","221136","221136","114528","113522","1595","136741","136741","1595","1595","128854","283661","1592","221136","282586","281854","281854","NA","726","study_X","0","14326","1","yes","1680"
"undefined","undefined","14326","14326","black","no","legacy","legacy","legacy","0","green","(0, 122, 0)","color","present","highProb","rectangular","swap","swap","same","swap","red","(179, 0, 0)","lowProb","lowProb4","rectangular","uniform","1","undefined","0.130208333333","1","1","147.270833333","1","25","28276","0","0","0","0","0","0","0","0","51","0","1","0.130208333333","147.270833333","25","28276","51","51","51","08/25/17 09:50:13","Default description","yes","<openexp._canvas.legacy.legacy object at 0x049F27F0>","<openexp._canvas.legacy.legacy object at 0x049FD7B0>","<openexp._canvas.legacy.legacy object at 0x049EA370>","<openexp._canvas.legacy.legacy object at 0x04AE09D0>","<openexp._canvas.legacy.legacy object at 0x04AB14B0>","<openexp._canvas.legacy.legacy object at 0x04AE0C90>","<openexp._canvas.legacy.legacy object at 0x04AB2A50>","75","IndividualPriorityWithDis_v1.osexp","C:/Userdata/Michel/SpatialProb/IndividualPriorityMaps/Experiment2","no","mono","no","18","no","white","no","yes","0.09","98","1050","legacy","45","26","26","1","C:/Userdata/Michel/SpatialProb/IndividualPriorityMaps/Experiment2/data/subject-24.csv","legacy","9","192","25","Jazzy James","3.1.3","yes","598477b2b83f69022949e7e9","47","green","rectangular","red","rectangular","0","\","813","space","14326","14326","(80, 80, 80)","(0, 122, 0)","(179, 0, 0)","(155, 155, 155)","2","legacy","experiment","[7, 0, 1, 2, 3, 4, 5, 6]","\","2500","3000","0","8","252.758751519","1024","2","48000","-16","main","[(0, -252), (178, -178), (252, 0), (178, 178), (0, 252), (-178, 178), (-252, 0), (-178, -178)]","[]","24","even","4","198801","221136","221136","114528","113522","1595","136741","136741","1595","1595","128854","285613","1592","221136","284798","284066","284066","NA","726","study_X","0","14326","1","yes","1680"
"undefined","undefined","14326","14326","black","no","legacy","legacy","legacy","0","green","(0, 122, 0)","color","present","lowProb2","rectangular","same","same","same","same","red","(179, 0, 0)","lowProb","lowProb5","rectangular","uniform","1","undefined","0.135416666667","1","1","151.71875","1","26","29130","0","0","0","0","0","0","0","0","52","0","1","0.135416666667","151.71875","26","29130","52","52","52","08/25/17 09:50:13","Default description","yes","<openexp._canvas.legacy.legacy object at 0x049F27F0>","<openexp._canvas.legacy.legacy object at 0x049FD7B0>","<openexp._canvas.legacy.legacy object at 0x049EA370>","<openexp._canvas.legacy.legacy object at 0x04AE09D0>","<openexp._canvas.legacy.legacy object at 0x04AB14B0>","<openexp._canvas.legacy.legacy object at 0x04A02430>","<openexp._canvas.legacy.legacy object at 0x04AB2A50>","75","IndividualPriorityWithDis_v1.osexp","C:/Userdata/Michel/SpatialProb/IndividualPriorityMaps/Experiment2","no","mono","no","18","no","white","no","yes","0.09","98","1050","legacy","315","27","27","1","C:/Userdata/Michel/SpatialProb/IndividualPriorityMaps/Experiment2/data/subject-24.csv","legacy","9","192","25","Jazzy James","3.1.3","yes","598477b2b83f69022949e7e9","47","green","rectangular","red","rectangular","0","/","854","space","14326","14326","(80, 80, 80)","(0, 122, 0)","(179, 0, 0)","(155, 155, 155)","2","legacy","experiment","[7, 0, 1, 2, 3, 4, 5, 6]","/","2500","3000","0","8","252.758751519","1024","2","48000","-16","main","[(0, -252), (178, -178), (252, 0), (178, 178), (0, 252), (-178, 178), (-252, 0), (-178, -178)]","[]","24","even","5","198801","221136","221136","114528","113522","1595","136741","136741","1595","1595","128854","287605","1592","221136","286749","286017","286017","NA","726","study_X","0","14326","1","yes","1680"
"undefined","undefined","14326","14326","black","no","legacy","legacy","legacy","0","green","(0, 122, 0)","shape","absent","lowProb1","circular","same","swap","swap","swap","green","(0, 122, 0)","lowProb","lowProb4","circular","uniform","1","undefined","0.140625","1","1","156.583333333","1","27","30064","0","0","0","0","0","0","0","0","53","0","1","0.140625","156.583333333","27","30064","53","53","53","08/25/17 09:50:13","Default description","yes","<openexp._canvas.legacy.legacy object at 0x049F27F0>","<openexp._canvas.legacy.legacy object at 0x049FD7B0>","<openexp._canvas.legacy.legacy object at 0x049EA370>","<openexp._canvas.legacy.legacy object at 0x04AE09D0>","<openexp._canvas.legacy.legacy object at 0x04AB14B0>","<openexp._canvas.legacy.legacy object at 0x049EE9D0>","<openexp._canvas.legacy.legacy object at 0x04AB2A50>","75","IndividualPriorityWithDis_v1.osexp","C:/Userdata/Michel/SpatialProb/IndividualPriorityMaps/Experiment2","no","mono","no","18","no","white","no","yes","0.09","98","1050","legacy","315","28","28","1","C:/Userdata/Michel/SpatialProb/IndividualPriorityMaps/Experiment2/data/subject-24.csv","legacy","9","192","25","Jazzy James","3.1.3","yes","598477b2b83f69022949e7e9","47","green","circular","green","circular","0","/","934","space","14326","14326","(80, 80, 80)","(0, 122, 0)","(179, 0, 0)","(155, 155, 155)","2","legacy","experiment","[7, 0, 1, 2, 3, 4, 5, 6]","/","2500","3000","0","8","252.758751519","1024","2","48000","-16","main","[(0, -252), (178, -178), (252, 0), (178, 178), (0, 252), (-178, 178), (-252, 0), (-178, -178)]","[]","24","even","4","198801","221136","221136","114528","113522","1595","136741","136741","1595","1595","128854","289693","1592","221136","288755","288023","288023","NA","726","study_X","0","14326","1","yes","1680"
"undefined","undefined","14326","14326","black","no","legacy","legacy","legacy","0","red","(179, 0, 0)","color","present","highProb","circular","swap","same","same","same","green","(0, 122, 0)","lowProb","lowProb3","circular","uniform","1","undefined","0.145833333333","1","1","162.598958333","1","28","31219","0","0","0","0","0","0","0","0","54","0","1","0.145833333333","162.598958333","28","31219","54","54","54","08/25/17 09:50:13","Default description","yes","<openexp._canvas.legacy.legacy object at 0x049F27F0>","<openexp._canvas.legacy.legacy object at 0x049FD7B0>","<openexp._canvas.legacy.legacy object at 0x049EA370>","<openexp._canvas.legacy.legacy object at 0x04AE09D0>","<openexp._canvas.legacy.legacy object at 0x04AB14B0>","<openexp._canvas.legacy.legacy object at 0x04AE11B0>","<openexp._canvas.legacy.legacy object at 0x04AB2A50>","75","IndividualPriorityWithDis_v1.osexp","C:/Userdata/Michel/SpatialProb/IndividualPriorityMaps/Experiment2","no","mono","no","18","no","white","no","yes","0.09","98","1050","legacy","315","29","29","1","C:/Userdata/Michel/SpatialProb/IndividualPriorityMaps/Experiment2/data/subject-24.csv","legacy","9","192","25","Jazzy James","3.1.3","yes","598477b2b83f69022949e7e9","47","red","circular","green","circular","0","/","1155","space","14326","14326","(80, 80, 80)","(0, 122, 0)","(179, 0, 0)","(155, 155, 155)","2","legacy","experiment","[7, 0, 1, 2, 3, 4, 5, 6]","/","2500","3000","0","8","252.758751519","1024","2","48000","-16","main","[(0, -252), (178, -178), (252, 0), (178, 178), (0, 252), (-178, 178), (-252, 0), (-178, -178)]","[]","24","even","2","198801","221136","221136","114528","113522","1595","136741","136741","1595","1595","128854","291997","1592","221136","290838","290106","290106","NA","726","study_X","0","14326","1","yes","1680"
"undefined","undefined","14326","14326","black","no","legacy","legacy","legacy","0","red","(179, 0, 0)","color","absent","lowProb2","circular","same","same","swap","same","red","(179, 0, 0)","lowProb","lowProb5","circular","uniform","1","undefined","0.151041666667","1","1","169.307291667","1","29","32507","0","0","0","0","0","0","0","0","55","0","1","0.151041666667","169.307291667","29","32507","55","55","55","08/25/17 09:50:13","Default description","yes","<openexp._canvas.legacy.legacy object at 0x049F27F0>","<openexp._canvas.legacy.legacy object at 0x049FD7B0>","<openexp._canvas.legacy.legacy object at 0x049EA370>","<openexp._canvas.legacy.legacy object at 0x04AE09D0>","<openexp._canvas.legacy.legacy object at 0x04AB14B0>","<openexp._canvas.legacy.legacy object at 0x049EA250>","<openexp._canvas.legacy.legacy object at 0x04AB2A50>","75","IndividualPriorityWithDis_v1.osexp","C:/Userdata/Michel/SpatialProb/IndividualPriorityMaps/Experiment2","no","mono","no","18","no","white","no","yes","0.09","98","1050","legacy","315","30","30","1","C:/Userdata/Michel/SpatialProb/IndividualPriorityMaps/Experiment2/data/subject-24.csv","legacy","9","192","25","Jazzy James","3.1.3","yes","598477b2b83f69022949e7e9","47","red","circular","red","circular","0","/","1288","space","14326","14326","(80, 80, 80)","(0, 122, 0)","(179, 0, 0)","(155, 155, 155)","2","legacy","experiment","[7, 0, 1, 2, 3, 4, 5, 6]","/","2500","3000","0","8","252.758751519","1024","2","48000","-16","main","[(0, -252), (178, -178), (252, 0), (178, 178), (0, 252), (-178, 178), (-252, 0), (-178, -178)]","[]","24","even","5","198801","221136","221136","114528","113522","1595","136741","136741","1595","1595","128854","294460","1592","221136","293170","292438","292438","NA","726","study_X","0","14326","1","yes","1680"
"undefined","undefined","14326","14326","black","no","legacy","legacy","legacy","0","red","(179, 0, 0)","shape","present","highProb","circular","same","same","same","swap","red","(179, 0, 0)","lowProb","lowProb3","rectangular","uniform","1","undefined","0.15625","1","1","176.692708333","1","30","33925","0","0","0","0","0","0","0","0","56","0","1","0.15625","176.692708333","30","33925","56","56","56","08/25/17 09:50:13","Default description","yes","<openexp._canvas.legacy.legacy object at 0x049F27F0>","<openexp._canvas.legacy.legacy object at 0x049FD7B0>","<openexp._canvas.legacy.legacy object at 0x049EA370>","<openexp._canvas.legacy.legacy object at 0x04AE09D0>","<openexp._canvas.legacy.legacy object at 0x04AB14B0>","<openexp._canvas.legacy.legacy object at 0x04AE0E70>","<openexp._canvas.legacy.legacy object at 0x04AB2A50>","75","IndividualPriorityWithDis_v1.osexp","C:/Userdata/Michel/SpatialProb/IndividualPriorityMaps/Experiment2","no","mono","no","18","no","white","no","yes","0.09","98","1050","legacy","45","31","31","1","C:/Userdata/Michel/SpatialProb/IndividualPriorityMaps/Experiment2/data/subject-24.csv","legacy","9","192","25","Jazzy James","3.1.3","yes","598477b2b83f69022949e7e9","47","red","circular","red","rectangular","0","\","1418","space","14326","14326","(80, 80, 80)","(0, 122, 0)","(179, 0, 0)","(155, 155, 155)","2","legacy","experiment","[7, 0, 1, 2, 3, 4, 5, 6]","\","2500","3000","0","8","252.758751519","1024","2","48000","-16","main","[(0, -252), (178, -178), (252, 0), (178, 178), (0, 252), (-178, 178), (-252, 0), (-178, -178)]","[]","24","even","2","198801","221136","221136","114528","113522","1595","136741","136741","1595","1595","128854","297020","1592","221136","295600","294869","294869","NA","726","study_X","0","14326","1","yes","1680"
"undefined","undefined","14326","14326","black","no","legacy","legacy","legacy","0","green","(0, 122, 0)","color","present","highProb","rectangular","swap","swap","same","same","red","(179, 0, 0)","lowProb","lowProb2","rectangular","uniform","1","undefined","0.161458333333","1","1","180.708333333","1","31","34696","0","0","0","0","0","0","0","0","57","0","1","0.161458333333","180.708333333","31","34696","57","57","57","08/25/17 09:50:13","Default description","yes","<openexp._canvas.legacy.legacy object at 0x049F27F0>","<openexp._canvas.legacy.legacy object at 0x049FD7B0>","<openexp._canvas.legacy.legacy object at 0x049EA370>","<openexp._canvas.legacy.legacy object at 0x04AE09D0>","<openexp._canvas.legacy.legacy object at 0x04AB14B0>","<openexp._canvas.legacy.legacy object at 0x04AE0330>","<openexp._canvas.legacy.legacy object at 0x04AB2A50>","75","IndividualPriorityWithDis_v1.osexp","C:/Userdata/Michel/SpatialProb/IndividualPriorityMaps/Experiment2","no","mono","no","18","no","white","no","yes","0.09","98","1050","legacy","45","32","32","1","C:/Userdata/Michel/SpatialProb/IndividualPriorityMaps/Experiment2/data/subject-24.csv","legacy","9","192","25","Jazzy James","3.1.3","yes","598477b2b83f69022949e7e9","47","green","rectangular","red","rectangular","0","\","771","space","14326","14326","(80, 80, 80)","(0, 122, 0)","(179, 0, 0)","(155, 155, 155)","2","legacy","experiment","[7, 0, 1, 2, 3, 4, 5, 6]","\","2500","3000","0","8","252.758751519","1024","2","48000","-16","main","[(0, -252), (178, -178), (252, 0), (178, 178), (0, 252), (-178, 178), (-252, 0), (-178, -178)]","[]","24","even","1","198801","221136","221136","114528","113522","1595","136741","136741","1595","1595","128854","298932","1592","221136","298158","297426","297426","NA","726","study_X","0","14326","1","yes","1680"
"undefined","undefined","14326","14326","black","no","legacy","legacy","legacy","0","red","(179, 0, 0)","color","present","highProb","rectangular","swap","same","swap","same","green","(0, 122, 0)","lowProb","lowProb4","rectangular","uniform","1","undefined","0.166666666667","1","1","185.645833333","1","32","35644","0","0","0","0","0","0","0","0","58","0","1","0.166666666667","185.645833333","32","35644","58","58","58","08/25/17 09:50:13","Default description","yes","<openexp._canvas.legacy.legacy object at 0x049F27F0>","<openexp._canvas.legacy.legacy object at 0x049FD7B0>","<openexp._canvas.legacy.legacy object at 0x049EA370>","<openexp._canvas.legacy.legacy object at 0x04AE09D0>","<openexp._canvas.legacy.legacy object at 0x04AB14B0>","<openexp._canvas.legacy.legacy object at 0x04A09350>","<openexp._canvas.legacy.legacy object at 0x04AB2A50>","75","IndividualPriorityWithDis_v1.osexp","C:/Userdata/Michel/SpatialProb/IndividualPriorityMaps/Experiment2","no","mono","no","18","no","white","no","yes","0.09","98","1050","legacy","45","33","33","1","C:/Userdata/Michel/SpatialProb/IndividualPriorityMaps/Experiment2/data/subject-24.csv","legacy","9","192","25","Jazzy James","3.1.3","yes","598477b2b83f69022949e7e9","47","red","rectangular","green","rectangular","0","\","948","space","14326","14326","(80, 80, 80)","(0, 122, 0)","(179, 0, 0)","(155, 155, 155)","2","legacy","experiment","[7, 0, 1, 2, 3, 4, 5, 6]","\","2500","3000","0","8","252.758751519","1024","2","48000","-16","main","[(0, -252), (178, -178), (252, 0), (178, 178), (0, 252), (-178, 178), (-252, 0), (-178, -178)]","[]","24","even","4","198801","221136","221136","114528","113522","1595","136741","136741","1595","1595","128854","301029","1592","221136","300079","299347","299347","NA","726","study_X","0","14326","1","yes","1680"
"undefined","undefined","14326","14326","black","no","legacy","legacy","legacy","0","green","(0, 122, 0)","color","present","highProb","circular","swap","swap","swap","swap","red","(179, 0, 0)","lowProb","lowProb2","circular","uniform","1","undefined","0.171875","1","1","188.552083333","1","33","36202","0","0","0","0","0","0","0","0","59","0","1","0.171875","188.552083333","33","36202","59","59","59","08/25/17 09:50:13","Default description","yes","<openexp._canvas.legacy.legacy object at 0x049F27F0>","<openexp._canvas.legacy.legacy object at 0x049FD7B0>","<openexp._canvas.legacy.legacy object at 0x049EA370>","<openexp._canvas.legacy.legacy object at 0x04AE09D0>","<openexp._canvas.legacy.legacy object at 0x04AB14B0>","<openexp._canvas.legacy.legacy object at 0x049EA390>","<openexp._canvas.legacy.legacy object at 0x04AB2A50>","75","IndividualPriorityWithDis_v1.osexp","C:/Userdata/Michel/SpatialProb/IndividualPriorityMaps/Experiment2","no","mono","no","18","no","white","no","yes","0.09","98","1050","legacy","315","34","34","1","C:/Userdata/Michel/SpatialProb/IndividualPriorityMaps/Experiment2/data/subject-24.csv","legacy","9","192","25","Jazzy James","3.1.3","yes","598477b2b83f69022949e7e9","47","green","circular","red","circular","0","/","558","space","14326","14326","(80, 80, 80)","(0, 122, 0)","(179, 0, 0)","(155, 155, 155)","2","legacy","experiment","[7, 0, 1, 2, 3, 4, 5, 6]","/","2500","3000","0","8","252.758751519","1024","2","48000","-16","main","[(0, -252), (178, -178), (252, 0), (178, 178), (0, 252), (-178, 178), (-252, 0), (-178, -178)]","[]","24","even","1","198801","221136","221136","114528","113522","1595","136741","136741","1595","1595","128854","302757","1592","221136","302197","301465","301466","NA","726","study_X","0","14326","1","yes","1680"
"undefined","undefined","14326","14326","black","no","legacy","legacy","legacy","0","green","(0, 122, 0)","shape","present","lowProb3","circular","same","same","swap","swap","green","(0, 122, 0)","lowProb","lowProb6","rectangular","uniform","1","undefined","0.177083333333","1","1","193.5625","1","34","37164","0","0","0","0","0","0","0","0","60","0","1","0.177083333333","193.5625","34","37164","60","60","60","08/25/17 09:50:13","Default description","yes","<openexp._canvas.legacy.legacy object at 0x049F27F0>","<openexp._canvas.legacy.legacy object at 0x049FD7B0>","<openexp._canvas.legacy.legacy object at 0x049EA370>","<openexp._canvas.legacy.legacy object at 0x04AE09D0>","<openexp._canvas.legacy.legacy object at 0x04AB14B0>","<openexp._canvas.legacy.legacy object at 0x049EA9B0>","<openexp._canvas.legacy.legacy object at 0x04AB2A50>","75","IndividualPriorityWithDis_v1.osexp","C:/Userdata/Michel/SpatialProb/IndividualPriorityMaps/Experiment2","no","mono","no","18","no","white","no","yes","0.09","98","1050","legacy","315","35","35","1","C:/Userdata/Michel/SpatialProb/IndividualPriorityMaps/Experiment2/data/subject-24.csv","legacy","9","192","25","Jazzy James","3.1.3","yes","598477b2b83f69022949e7e9","47","green","circular","green","rectangular","0","/","962","space","14326","14326","(80, 80, 80)","(0, 122, 0)","(179, 0, 0)","(155, 155, 155)","2","legacy","experiment","[7, 0, 1, 2, 3, 4, 5, 6]","/","2500","3000","0","8","252.758751519","1024","2","48000","-16","main","[(0, -252), (178, -178), (252, 0), (178, 178), (0, 252), (-178, 178), (-252, 0), (-178, -178)]","[]","24","even","6","198801","221136","221136","114528","113522","1595","136741","136741","1595","1595","128854","304869","1592","221136","303903","303171","303171","NA","726","study_X","0","14326","1","yes","1680"
"undefined","undefined","14326","14326","black","no","legacy","legacy","legacy","0","red","(179, 0, 0)","color","present","lowProb4","rectangular","swap","swap","same","same","green","(0, 122, 0)","lowProb","lowProb6","rectangular","uniform","1","undefined","0.182291666667","1","1","196.854166667","1","35","37796","0","0","0","0","0","0","0","0","61","0","1","0.182291666667","196.854166667","35","37796","61","61","61","08/25/17 09:50:13","Default description","yes","<openexp._canvas.legacy.legacy object at 0x049F27F0>","<openexp._canvas.legacy.legacy object at 0x049FD7B0>","<openexp._canvas.legacy.legacy object at 0x049EA370>","<openexp._canvas.legacy.legacy object at 0x04AE09D0>","<openexp._canvas.legacy.legacy object at 0x04AB14B0>","<openexp._canvas.legacy.legacy object at 0x04ADBFD0>","<openexp._canvas.legacy.legacy object at 0x04AB2A50>","75","IndividualPriorityWithDis_v1.osexp","C:/Userdata/Michel/SpatialProb/IndividualPriorityMaps/Experiment2","no","mono","no","18","no","white","no","yes","0.09","98","1050","legacy","315","36","36","1","C:/Userdata/Michel/SpatialProb/IndividualPriorityMaps/Experiment2/data/subject-24.csv","legacy","9","192","25","Jazzy James","3.1.3","yes","598477b2b83f69022949e7e9","47","red","rectangular","green","rectangular","0","/","632","space","14326","14326","(80, 80, 80)","(0, 122, 0)","(179, 0, 0)","(155, 155, 155)","2","legacy","experiment","[7, 0, 1, 2, 3, 4, 5, 6]","/","2500","3000","0","8","252.758751519","1024","2","48000","-16","main","[(0, -252), (178, -178), (252, 0), (178, 178), (0, 252), (-178, 178), (-252, 0), (-178, -178)]","[]","24","even","6","198801","221136","221136","114528","113522","1595","136741","136741","1595","1595","128854","306645","1592","221136","306010","305278","305278","NA","726","study_X","0","14326","1","yes","1680"
"undefined","undefined","14326","14326","black","no","legacy","legacy","legacy","0","red","(179, 0, 0)","shape","present","highProb","rectangular","same","same","swap","swap","red","(179, 0, 0)","lowProb","lowProb1","circular","uniform","1","undefined","0.1875","1","1","203.21875","1","36","39018","0","0","0","0","0","0","0","0","62","0","1","0.1875","203.21875","36","39018","62","62","62","08/25/17 09:50:13","Default description","yes","<openexp._canvas.legacy.legacy object at 0x049F27F0>","<openexp._canvas.legacy.legacy object at 0x049FD7B0>","<openexp._canvas.legacy.legacy object at 0x049EA370>","<openexp._canvas.legacy.legacy object at 0x04AE09D0>","<openexp._canvas.legacy.legacy object at 0x04AB14B0>","<openexp._canvas.legacy.legacy object at 0x049EE330>","<openexp._canvas.legacy.legacy object at 0x04AB2A50>","75","IndividualPriorityWithDis_v1.osexp","C:/Userdata/Michel/SpatialProb/IndividualPriorityMaps/Experiment2","no","mono","no","18","no","white","no","yes","0.09","98","1050","legacy","45","37","37","1","C:/Userdata/Michel/SpatialProb/IndividualPriorityMaps/Experiment2/data/subject-24.csv","legacy","9","192","25","Jazzy James","3.1.3","yes","598477b2b83f69022949e7e9","47","red","rectangular","red","circular","0","\","1222","space","14326","14326","(80, 80, 80)","(0, 122, 0)","(179, 0, 0)","(155, 155, 155)","2","legacy","experiment","[7, 0, 1, 2, 3, 4, 5, 6]","\","2500","3000","0","8","252.758751519","1024","2","48000","-16","main","[(0, -252), (178, -178), (252, 0), (178, 178), (0, 252), (-178, 178), (-252, 0), (-178, -178)]","[]","24","even","0","198801","221136","221136","114528","113522","1595","136741","136741","1595","1595","128854","309021","1592","221136","307795","307063","307063","NA","726","study_X","0","14326","1","yes","1680"
"undefined","undefined","14326","14326","black","no","legacy","legacy","legacy","0","red","(179, 0, 0)","shape","present","lowProb4","rectangular","same","same","same","same","red","(179, 0, 0)","highProbColor","highProbColor","circular","uniform","1","undefined","0.192708333333","1","1","210.041666667","1","37","40328","0","0","0","0","0","0","0","0","63","0","1","0.192708333333","210.041666667","37","40328","63","63","63","08/25/17 09:50:13","Default description","yes","<openexp._canvas.legacy.legacy object at 0x049F27F0>","<openexp._canvas.legacy.legacy object at 0x049FD7B0>","<openexp._canvas.legacy.legacy object at 0x049EA370>","<openexp._canvas.legacy.legacy object at 0x04AE09D0>","<openexp._canvas.legacy.legacy object at 0x04AB14B0>","<openexp._canvas.legacy.legacy object at 0x04AE1A30>","<openexp._canvas.legacy.legacy object at 0x04AB2A50>","75","IndividualPriorityWithDis_v1.osexp","C:/Userdata/Michel/SpatialProb/IndividualPriorityMaps/Experiment2","no","mono","no","18","no","white","no","yes","0.09","98","1050","legacy","315","38","38","1","C:/Userdata/Michel/SpatialProb/IndividualPriorityMaps/Experiment2/data/subject-24.csv","legacy","9","192","25","Jazzy James","3.1.3","yes","598477b2b83f69022949e7e9","47","red","rectangular","red","circular","0","/","1310","space","14326","14326","(80, 80, 80)","(0, 122, 0)","(179, 0, 0)","(155, 155, 155)","2","legacy","experiment","[7, 0, 1, 2, 3, 4, 5, 6]","/","2500","3000","0","8","252.758751519","1024","2","48000","-16","main","[(0, -252), (178, -178), (252, 0), (178, 178), (0, 252), (-178, 178), (-252, 0), (-178, -178)]","[]","24","even","7","198801","221136","221136","114528","113522","1595","136741","136741","1595","1595","128854","311484","1592","221136","310171","309440","309440","NA","726","study_X","0","14326","1","yes","1680"
"undefined","undefined","14326","14326","black","no","legacy","legacy","legacy","0","green","(0, 122, 0)","color","absent","lowProb2","circular","swap","swap","swap","same","green","(0, 122, 0)","lowProb","lowProb6","circular","uniform","1","undefined","0.197916666667","1","1","214.880208333","1","38","41257","0","0","0","0","0","0","0","0","64","0","1","0.197916666667","214.880208333","38","41257","64","64","64","08/25/17 09:50:13","Default description","yes","<openexp._canvas.legacy.legacy object at 0x049F27F0>","<openexp._canvas.legacy.legacy object at 0x049FD7B0>","<openexp._canvas.legacy.legacy object at 0x049EA370>","<openexp._canvas.legacy.legacy object at 0x04AE09D0>","<openexp._canvas.legacy.legacy object at 0x04AB14B0>","<openexp._canvas.legacy.legacy object at 0x049EE1D0>","<openexp._canvas.legacy.legacy object at 0x04AB2A50>","75","IndividualPriorityWithDis_v1.osexp","C:/Userdata/Michel/SpatialProb/IndividualPriorityMaps/Experiment2","no","mono","no","18","no","white","no","yes","0.09","98","1050","legacy","45","39","39","1","C:/Userdata/Michel/SpatialProb/IndividualPriorityMaps/Experiment2/data/subject-24.csv","legacy","9","192","25","Jazzy James","3.1.3","yes","598477b2b83f69022949e7e9","47","green","circular","green","circular","0","\","929","space","14326","14326","(80, 80, 80)","(0, 122, 0)","(179, 0, 0)","(155, 155, 155)","2","legacy","experiment","[7, 0, 1, 2, 3, 4, 5, 6]","\","2500","3000","0","8","252.758751519","1024","2","48000","-16","main","[(0, -252), (178, -178), (252, 0), (178, 178), (0, 252), (-178, 178), (-252, 0), (-178, -178)]","[]","24","even","6","198801","221136","221136","114528","113522","1595","136741","136741","1595","1595","128854","313580","1592","221136","312648","311916","311916","NA","726","study_X","0","14326","1","yes","1680"
"undefined","undefined","14326","14326","black","no","legacy","legacy","legacy","0","green","(0, 122, 0)","color","present","lowProb4","rectangular","same","swap","swap","swap","red","(179, 0, 0)","highProbColor","highProbColor","rectangular","uniform","0","undefined","0.197916666667","1","1","218.572916667","1","38","41966","0","0","0","0","0","0","0","0","65","0","1","0.197916666667","218.572916667","38","41966","65","65","65","08/25/17 09:50:13","Default description","yes","<openexp._canvas.legacy.legacy object at 0x049F27F0>","<openexp._canvas.legacy.legacy object at 0x049FD7B0>","<openexp._canvas.legacy.legacy object at 0x049EA370>","<openexp._canvas.legacy.legacy object at 0x04AE09D0>","<openexp._canvas.legacy.legacy object at 0x04AB14B0>","<openexp._canvas.legacy.legacy object at 0x04AE1F90>","<openexp._canvas.legacy.legacy object at 0x04AB2A50>","75","IndividualPriorityWithDis_v1.osexp","C:/Userdata/Michel/SpatialProb/IndividualPriorityMaps/Experiment2","no","mono","no","18","no","white","no","yes","0.09","98","1050","legacy","45","40","40","1","C:/Userdata/Michel/SpatialProb/IndividualPriorityMaps/Experiment2/data/subject-24.csv","legacy","9","192","25","Jazzy James","3.1.3","yes","598477b2b83f69022949e7e9","47","green","rectangular","red","rectangular","0","/","709","space","14326","14326","(80, 80, 80)","(0, 122, 0)","(179, 0, 0)","(155, 155, 155)","2","legacy","experiment","[7, 0, 1, 2, 3, 4, 5, 6]","\","2500","3000","0","8","252.758751519","1024","2","48000","-16","main","[(0, -252), (178, -178), (252, 0), (178, 178), (0, 252), (-178, 178), (-252, 0), (-178, -178)]","[]","24","even","7","198801","221136","221136","114528","113522","1595","136741","136741","1595","1595","128854","315428","1592","221136","314716","313984","313984","NA","726","study_X","0","14326","1","yes","1680"
"undefined","undefined","14326","14326","black","no","legacy","legacy","legacy","0","green","(0, 122, 0)","shape","present","highProb","rectangular","same","same","swap","swap","green","(0, 122, 0)","highProbColor","highProbColor","circular","uniform","1","undefined","0.203125","1","1","227.84375","1","39","43746","0","0","0","0","0","0","0","0","66","0","1","0.203125","227.84375","39","43746","66","66","66","08/25/17 09:50:13","Default description","yes","<openexp._canvas.legacy.legacy object at 0x049F27F0>","<openexp._canvas.legacy.legacy object at 0x049FD7B0>","<openexp._canvas.legacy.legacy object at 0x049EA370>","<openexp._canvas.legacy.legacy object at 0x04AE09D0>","<openexp._canvas.legacy.legacy object at 0x04AB14B0>","<openexp._canvas.legacy.legacy object at 0x049F9AF0>","<openexp._canvas.legacy.legacy object at 0x04AB2A50>","75","IndividualPriorityWithDis_v1.osexp","C:/Userdata/Michel/SpatialProb/IndividualPriorityMaps/Experiment2","no","mono","no","18","no","white","no","yes","0.09","98","1050","legacy","315","41","41","1","C:/Userdata/Michel/SpatialProb/IndividualPriorityMaps/Experiment2/data/subject-24.csv","legacy","9","192","25","Jazzy James","3.1.3","yes","598477b2b83f69022949e7e9","47","green","rectangular","green","circular","0","/","1780","space","14326","14326","(80, 80, 80)","(0, 122, 0)","(179, 0, 0)","(155, 155, 155)","2","legacy","experiment","[7, 0, 1, 2, 3, 4, 5, 6]","/","2500","3000","0","8","252.758751519","1024","2","48000","-16","main","[(0, -252), (178, -178), (252, 0), (178, 178), (0, 252), (-178, 178), (-252, 0), (-178, -178)]","[]","24","even","7","198801","221136","221136","114528","113522","1595","136741","136741","1595","1595","128854","318357","1592","221136","316574","315842","315843","NA","726","study_X","0","14326","1","yes","1680"
"undefined","undefined","14326","14326","black","no","legacy","legacy","legacy","0","red","(179, 0, 0)","color","absent","lowProb1","circular","swap","swap","swap","same","red","(179, 0, 0)","highProbColor","highProbColor","circular","uniform","1","undefined","0.208333333333","1","1","235.140625","1","40","45147","0","0","0","0","0","0","0","0","67","0","1","0.208333333333","235.140625","40","45147","67","67","67","08/25/17 09:50:13","Default description","yes","<openexp._canvas.legacy.legacy object at 0x049F27F0>","<openexp._canvas.legacy.legacy object at 0x049FD7B0>","<openexp._canvas.legacy.legacy object at 0x049EA370>","<openexp._canvas.legacy.legacy object at 0x04AE09D0>","<openexp._canvas.legacy.legacy object at 0x04AB14B0>","<openexp._canvas.legacy.legacy object at 0x04A09C90>","<openexp._canvas.legacy.legacy object at 0x04AB2A50>","75","IndividualPriorityWithDis_v1.osexp","C:/Userdata/Michel/SpatialProb/IndividualPriorityMaps/Experiment2","no","mono","no","18","no","white","no","yes","0.09","98","1050","legacy","45","42","42","1","C:/Userdata/Michel/SpatialProb/IndividualPriorityMaps/Experiment2/data/subject-24.csv","legacy","9","192","25","Jazzy James","3.1.3","yes","598477b2b83f69022949e7e9","47","red","circular","red","circular","0","\","1401","space","14326","14326","(80, 80, 80)","(0, 122, 0)","(179, 0, 0)","(155, 155, 155)","2","legacy","experiment","[7, 0, 1, 2, 3, 4, 5, 6]","\","2500","3000","0","8","252.758751519","1024","2","48000","-16","main","[(0, -252), (178, -178), (252, 0), (178, 178), (0, 252), (-178, 178), (-252, 0), (-178, -178)]","[]","24","even","7","198801","221136","221136","114528","113522","1595","136741","136741","1595","1595","128854","320909","1592","221136","319504","318772","318772","NA","726","study_X","0","14326","1","yes","1680"
"undefined","undefined","14326","14326","black","no","legacy","legacy","legacy","0","green","(0, 122, 0)","color","present","highProb","rectangular","swap","swap","same","swap","red","(179, 0, 0)","lowProb","lowProb3","rectangular","uniform","0","undefined","0.208333333333","1","1","243.088541667","1","40","46673","0","0","0","0","0","0","0","0","68","0","1","0.208333333333","243.088541667","40","46673","68","68","68","08/25/17 09:50:13","Default description","yes","<openexp._canvas.legacy.legacy object at 0x049F27F0>","<openexp._canvas.legacy.legacy object at 0x049FD7B0>","<openexp._canvas.legacy.legacy object at 0x049EA370>","<openexp._canvas.legacy.legacy object at 0x04AE09D0>","<openexp._canvas.legacy.legacy object at 0x04AB14B0>","<openexp._canvas.legacy.legacy object at 0x04AE0970>","<openexp._canvas.legacy.legacy object at 0x04AB2A50>","75","IndividualPriorityWithDis_v1.osexp","C:/Userdata/Michel/SpatialProb/IndividualPriorityMaps/Experiment2","no","mono","no","18","no","white","no","yes","0.09","98","1050","legacy","45","43","43","1","C:/Userdata/Michel/SpatialProb/IndividualPriorityMaps/Experiment2/data/subject-24.csv","legacy","9","192","25","Jazzy James","3.1.3","yes","598477b2b83f69022949e7e9","47","green","rectangular","red","rectangular","0","/","1526","space","14326","14326","(80, 80, 80)","(0, 122, 0)","(179, 0, 0)","(155, 155, 155)","2","legacy","experiment","[7, 0, 1, 2, 3, 4, 5, 6]","\","2500","3000","0","8","252.758751519","1024","2","48000","-16","main","[(0, -252), (178, -178), (252, 0), (178, 178), (0, 252), (-178, 178), (-252, 0), (-178, -178)]","[]","24","even","2","198801","221136","221136","114528","113522","1595","136741","136741","1595","1595","128854","323605","1592","221136","322076","321344","321344","NA","726","study_X","0","14326","1","yes","1680"
"undefined","undefined","14326","14326","black","no","legacy","legacy","legacy","0","green","(0, 122, 0)","shape","present","lowProb4","circular","same","swap","swap","same","green","(0, 122, 0)","lowProb","lowProb2","rectangular","uniform","1","undefined","0.213541666667","1","1","251.59375","1","41","48306","0","0","0","0","0","0","0","0","69","0","1","0.213541666667","251.59375","41","48306","69","69","69","08/25/17 09:50:13","Default description","yes","<openexp._canvas.legacy.legacy object at 0x049F27F0>","<openexp._canvas.legacy.legacy object at 0x049FD7B0>","<openexp._canvas.legacy.legacy object at 0x049EA370>","<openexp._canvas.legacy.legacy object at 0x04AE09D0>","<openexp._canvas.legacy.legacy object at 0x04AB14B0>","<openexp._canvas.legacy.legacy object at 0x04AE1AB0>","<openexp._canvas.legacy.legacy object at 0x04AB2A50>","75","IndividualPriorityWithDis_v1.osexp","C:/Userdata/Michel/SpatialProb/IndividualPriorityMaps/Experiment2","no","mono","no","18","no","white","no","yes","0.09","98","1050","legacy","45","44","44","1","C:/Userdata/Michel/SpatialProb/IndividualPriorityMaps/Experiment2/data/subject-24.csv","legacy","9","192","25","Jazzy James","3.1.3","yes","598477b2b83f69022949e7e9","47","green","circular","green","rectangular","0","\","1633","space","14326","14326","(80, 80, 80)","(0, 122, 0)","(179, 0, 0)","(155, 155, 155)","2","legacy","experiment","[7, 0, 1, 2, 3, 4, 5, 6]","\","2500","3000","0","8","252.758751519","1024","2","48000","-16","main","[(0, -252), (178, -178), (252, 0), (178, 178), (0, 252), (-178, 178), (-252, 0), (-178, -178)]","[]","24","even","1","198801","221136","221136","114528","113522","1595","136741","136741","1595","1595","128854","326380","1592","221136","324744","324012","324012","NA","726","study_X","0","14326","1","yes","1680"
"undefined","undefined","14326","14326","black","no","legacy","legacy","legacy","0","red","(179, 0, 0)","color","absent","lowProb6","rectangular","swap","swap","swap","same","red","(179, 0, 0)","lowProb","lowProb6","rectangular","uniform","1","undefined","0.21875","1","1","256.244791667","1","42","49199","0","0","0","0","0","0","0","0","70","0","1","0.21875","256.244791667","42","49199","70","70","70","08/25/17 09:50:13","Default description","yes","<openexp._canvas.legacy.legacy object at 0x049F27F0>","<openexp._canvas.legacy.legacy object at 0x049FD7B0>","<openexp._canvas.legacy.legacy object at 0x049EA370>","<openexp._canvas.legacy.legacy object at 0x04AE09D0>","<openexp._canvas.legacy.legacy object at 0x04AB14B0>","<openexp._canvas.legacy.legacy object at 0x049EED70>","<openexp._canvas.legacy.legacy object at 0x04AB2A50>","75","IndividualPriorityWithDis_v1.osexp","C:/Userdata/Michel/SpatialProb/IndividualPriorityMaps/Experiment2","no","mono","no","18","no","white","no","yes","0.09","98","1050","legacy","45","45","45","1","C:/Userdata/Michel/SpatialProb/IndividualPriorityMaps/Experiment2/data/subject-24.csv","legacy","9","192","25","Jazzy James","3.1.3","yes","598477b2b83f69022949e7e9","47","red","rectangular","red","rectangular","0","\","893","space","14326","14326","(80, 80, 80)","(0, 122, 0)","(179, 0, 0)","(155, 155, 155)","2","legacy","experiment","[7, 0, 1, 2, 3, 4, 5, 6]","\","2500","3000","0","8","252.758751519","1024","2","48000","-16","main","[(0, -252), (178, -178), (252, 0), (178, 178), (0, 252), (-178, 178), (-252, 0), (-178, -178)]","[]","24","even","6","198801","221136","221136","114528","113522","1595","136741","136741","1595","1595","128854","328412","1592","221136","327516","326784","326784","NA","726","study_X","0","14326","1","yes","1680"
"undefined","undefined","14326","14326","black","no","legacy","legacy","legacy","0","green","(0, 122, 0)","shape","present","lowProb5","rectangular","swap","same","swap","swap","green","(0, 122, 0)","lowProb","lowProb3","circular","uniform","1","undefined","0.223958333333","1","1","264.041666667","1","43","50696","0","0","0","0","0","0","0","0","71","0","1","0.223958333333","264.041666667","43","50696","71","71","71","08/25/17 09:50:13","Default description","yes","<openexp._canvas.legacy.legacy object at 0x049F27F0>","<openexp._canvas.legacy.legacy object at 0x049FD7B0>","<openexp._canvas.legacy.legacy object at 0x049EA370>","<openexp._canvas.legacy.legacy object at 0x04AE09D0>","<openexp._canvas.legacy.legacy object at 0x04AB14B0>","<openexp._canvas.legacy.legacy object at 0x04AB2CD0>","<openexp._canvas.legacy.legacy object at 0x04AB2A50>","75","IndividualPriorityWithDis_v1.osexp","C:/Userdata/Michel/SpatialProb/IndividualPriorityMaps/Experiment2","no","mono","no","18","no","white","no","yes","0.09","98","1050","legacy","315","46","46","1","C:/Userdata/Michel/SpatialProb/IndividualPriorityMaps/Experiment2/data/subject-24.csv","legacy","9","192","25","Jazzy James","3.1.3","yes","598477b2b83f69022949e7e9","47","green","rectangular","green","circular","0","/","1497","space","14326","14326","(80, 80, 80)","(0, 122, 0)","(179, 0, 0)","(155, 155, 155)","2","legacy","experiment","[7, 0, 1, 2, 3, 4, 5, 6]","/","2500","3000","0","8","252.758751519","1024","2","48000","-16","main","[(0, -252), (178, -178), (252, 0), (178, 178), (0, 252), (-178, 178), (-252, 0), (-178, -178)]","[]","24","even","2","198801","221136","221136","114528","113522","1595","136741","136741","1595","1595","128854","331060","1592","221136","329560","328828","328828","NA","726","study_X","0","14326","1","yes","1680"
"undefined","undefined","14326","14326","black","no","legacy","legacy","legacy","0","red","(179, 0, 0)","shape","present","highProb","circular","swap","swap","swap","swap","red","(179, 0, 0)","highProbColor","highProbColor","rectangular","uniform","1","undefined","0.229166666667","1","1","267.703125","1","44","51399","0","0","0","0","0","0","0","0","72","0","1","0.229166666667","267.703125","44","51399","72","72","72","08/25/17 09:50:13","Default description","yes","<openexp._canvas.legacy.legacy object at 0x049F27F0>","<openexp._canvas.legacy.legacy object at 0x049FD7B0>","<openexp._canvas.legacy.legacy object at 0x049EA370>","<openexp._canvas.legacy.legacy object at 0x04AE09D0>","<openexp._canvas.legacy.legacy object at 0x04AB14B0>","<openexp._canvas.legacy.legacy object at 0x04AE12F0>","<openexp._canvas.legacy.legacy object at 0x04AB2A50>","75","IndividualPriorityWithDis_v1.osexp","C:/Userdata/Michel/SpatialProb/IndividualPriorityMaps/Experiment2","no","mono","no","18","no","white","no","yes","0.09","98","1050","legacy","45","47","47","1","C:/Userdata/Michel/SpatialProb/IndividualPriorityMaps/Experiment2/data/subject-24.csv","legacy","9","192","25","Jazzy James","3.1.3","yes","598477b2b83f69022949e7e9","47","red","circular","red","rectangular","0","\","703","space","14326","14326","(80, 80, 80)","(0, 122, 0)","(179, 0, 0)","(155, 155, 155)","2","legacy","experiment","[7, 0, 1, 2, 3, 4, 5, 6]","\","2500","3000","0","8","252.758751519","1024","2","48000","-16","main","[(0, -252), (178, -178), (252, 0), (178, 178), (0, 252), (-178, 178), (-252, 0), (-178, -178)]","[]","24","even","7","198801","221136","221136","114528","113522","1595","136741","136741","1595","1595","128854","332900","1592","221136","332194","331462","331462","NA","726","study_X","0","14326","1","yes","1680"
"undefined","undefined","14326","14326","black","no","legacy","legacy","legacy","0","red","(179, 0, 0)","color","present","highProb","circular","same","same","swap","swap","green","(0, 122, 0)","lowProb","lowProb2","circular","uniform","1","undefined","0.234375","1","1","274.791666667","1","45","52760","0","0","0","0","0","0","0","0","73","0","1","0.234375","274.791666667","45","52760","73","73","73","08/25/17 09:50:13","Default description","yes","<openexp._canvas.legacy.legacy object at 0x049F27F0>","<openexp._canvas.legacy.legacy object at 0x049FD7B0>","<openexp._canvas.legacy.legacy object at 0x049EA370>","<openexp._canvas.legacy.legacy object at 0x04AE09D0>","<openexp._canvas.legacy.legacy object at 0x04AB14B0>","<openexp._canvas.legacy.legacy object at 0x04AB2D50>","<openexp._canvas.legacy.legacy object at 0x04AB2A50>","75","IndividualPriorityWithDis_v1.osexp","C:/Userdata/Michel/SpatialProb/IndividualPriorityMaps/Experiment2","no","mono","no","18","no","white","no","yes","0.09","98","1050","legacy","45","48","48","1","C:/Userdata/Michel/SpatialProb/IndividualPriorityMaps/Experiment2/data/subject-24.csv","legacy","9","192","25","Jazzy James","3.1.3","yes","598477b2b83f69022949e7e9","47","red","circular","green","circular","0","\","1361","space","14326","14326","(80, 80, 80)","(0, 122, 0)","(179, 0, 0)","(155, 155, 155)","2","legacy","experiment","[7, 0, 1, 2, 3, 4, 5, 6]","\","2500","3000","0","8","252.758751519","1024","2","48000","-16","main","[(0, -252), (178, -178), (252, 0), (178, 178), (0, 252), (-178, 178), (-252, 0), (-178, -178)]","[]","24","even","1","198801","221136","221136","114528","113522","1595","136741","136741","1595","1595","128854","335412","1592","221136","334047","333316","333316","NA","726","study_X","0","14326","1","yes","1680"
"undefined","undefined","14326","14326","black","no","legacy","legacy","legacy","0","green","(0, 122, 0)","shape","present","highProb","rectangular","swap","swap","same","same","green","(0, 122, 0)","lowProb","lowProb3","circular","uniform","1","undefined","0.239583333333","1","1","282.354166667","1","46","54212","0","0","0","0","0","0","0","0","74","0","1","0.239583333333","282.354166667","46","54212","74","74","74","08/25/17 09:50:13","Default description","yes","<openexp._canvas.legacy.legacy object at 0x049F27F0>","<openexp._canvas.legacy.legacy object at 0x049FD7B0>","<openexp._canvas.legacy.legacy object at 0x049EA370>","<openexp._canvas.legacy.legacy object at 0x04AE09D0>","<openexp._canvas.legacy.legacy object at 0x04AB14B0>","<openexp._canvas.legacy.legacy object at 0x049FDE50>","<openexp._canvas.legacy.legacy object at 0x04AB2A50>","75","IndividualPriorityWithDis_v1.osexp","C:/Userdata/Michel/SpatialProb/IndividualPriorityMaps/Experiment2","no","mono","no","18","no","white","no","yes","0.09","98","1050","legacy","45","49","49","1","C:/Userdata/Michel/SpatialProb/IndividualPriorityMaps/Experiment2/data/subject-24.csv","legacy","9","192","25","Jazzy James","3.1.3","yes","598477b2b83f69022949e7e9","47","green","rectangular","green","circular","0","\","1452","space","14326","14326","(80, 80, 80)","(0, 122, 0)","(179, 0, 0)","(155, 155, 155)","2","legacy","experiment","[7, 0, 1, 2, 3, 4, 5, 6]","\","2500","3000","0","8","252.758751519","1024","2","48000","-16","main","[(0, -252), (178, -178), (252, 0), (178, 178), (0, 252), (-178, 178), (-252, 0), (-178, -178)]","[]","24","even","2","198801","221136","221136","114528","113522","1595","136741","136741","1595","1595","128854","338021","1592","221136","336565","335833","335833","NA","726","study_X","0","14326","1","yes","1680"
"undefined","undefined","14326","14326","black","no","legacy","legacy","legacy","0","red","(179, 0, 0)","shape","absent","lowProb6","rectangular","swap","same","swap","swap","red","(179, 0, 0)","lowProb","lowProb2","rectangular","uniform","1","undefined","0.244791666667","1","1","286.046875","1","47","54921","0","0","0","0","0","0","0","0","75","0","1","0.244791666667","286.046875","47","54921","75","75","75","08/25/17 09:50:13","Default description","yes","<openexp._canvas.legacy.legacy object at 0x049F27F0>","<openexp._canvas.legacy.legacy object at 0x049FD7B0>","<openexp._canvas.legacy.legacy object at 0x049EA370>","<openexp._canvas.legacy.legacy object at 0x04AE09D0>","<openexp._canvas.legacy.legacy object at 0x04AB14B0>","<openexp._canvas.legacy.legacy object at 0x04A02AB0>","<openexp._canvas.legacy.legacy object at 0x04AB2A50>","75","IndividualPriorityWithDis_v1.osexp","C:/Userdata/Michel/SpatialProb/IndividualPriorityMaps/Experiment2","no","mono","no","18","no","white","no","yes","0.09","98","1050","legacy","315","50","50","1","C:/Userdata/Michel/SpatialProb/IndividualPriorityMaps/Experiment2/data/subject-24.csv","legacy","9","192","25","Jazzy James","3.1.3","yes","598477b2b83f69022949e7e9","47","red","rectangular","red","rectangular","0","/","709","space","14326","14326","(80, 80, 80)","(0, 122, 0)","(179, 0, 0)","(155, 155, 155)","2","legacy","experiment","[7, 0, 1, 2, 3, 4, 5, 6]","/","2500","3000","0","8","252.758751519","1024","2","48000","-16","main","[(0, -252), (178, -178), (252, 0), (178, 178), (0, 252), (-178, 178), (-252, 0), (-178, -178)]","[]","24","even","1","198801","221136","221136","114528","113522","1595","136741","136741","1595","1595","128854","339869","1592","221136","339157","338425","338425","NA","726","study_X","0","14326","1","yes","1680"
"undefined","undefined","14326","14326","black","no","legacy","legacy","legacy","0","green","(0, 122, 0)","shape","present","highProb","circular","swap","swap","swap","same","green","(0, 122, 0)","lowProb","lowProb6","rectangular","uniform","1","undefined","0.25","1","1","290.192708333","1","48","55717","0","0","0","0","0","0","0","0","76","0","1","0.25","290.192708333","48","55717","76","76","76","08/25/17 09:50:13","Default description","yes","<openexp._canvas.legacy.legacy object at 0x049F27F0>","<openexp._canvas.legacy.legacy object at 0x049FD7B0>","<openexp._canvas.legacy.legacy object at 0x049EA370>","<openexp._canvas.legacy.legacy object at 0x04AE09D0>","<openexp._canvas.legacy.legacy object at 0x04AB14B0>","<openexp._canvas.legacy.legacy object at 0x04AE1F90>","<openexp._canvas.legacy.legacy object at 0x04AB2A50>","75","IndividualPriorityWithDis_v1.osexp","C:/Userdata/Michel/SpatialProb/IndividualPriorityMaps/Experiment2","no","mono","no","18","no","white","no","yes","0.09","98","1050","legacy","45","51","51","1","C:/Userdata/Michel/SpatialProb/IndividualPriorityMaps/Experiment2/data/subject-24.csv","legacy","9","192","25","Jazzy James","3.1.3","yes","598477b2b83f69022949e7e9","47","green","circular","green","rectangular","0","\","796","space","14326","14326","(80, 80, 80)","(0, 122, 0)","(179, 0, 0)","(155, 155, 155)","2","legacy","experiment","[7, 0, 1, 2, 3, 4, 5, 6]","\","2500","3000","0","8","252.758751519","1024","2","48000","-16","main","[(0, -252), (178, -178), (252, 0), (178, 178), (0, 252), (-178, 178), (-252, 0), (-178, -178)]","[]","24","even","6","198801","221136","221136","114528","113522","1595","136741","136741","1595","1595","128854","341812","1592","221136","341013","340281","340281","NA","726","study_X","0","14326","1","yes","1680"
"undefined","undefined","14326","14326","black","no","legacy","legacy","legacy","0","green","(0, 122, 0)","color","present","highProb","circular","same","same","swap","swap","red","(179, 0, 0)","lowProb","lowProb1","circular","uniform","1","undefined","0.255208333333","1","1","295.432291667","1","49","56723","0","0","0","0","0","0","0","0","77","0","1","0.255208333333","295.432291667","49","56723","77","77","77","08/25/17 09:50:13","Default description","yes","<openexp._canvas.legacy.legacy object at 0x049F27F0>","<openexp._canvas.legacy.legacy object at 0x049FD7B0>","<openexp._canvas.legacy.legacy object at 0x049EA370>","<openexp._canvas.legacy.legacy object at 0x04AE09D0>","<openexp._canvas.legacy.legacy object at 0x04AB14B0>","<openexp._canvas.legacy.legacy object at 0x049EEFF0>","<openexp._canvas.legacy.legacy object at 0x04AB2A50>","75","IndividualPriorityWithDis_v1.osexp","C:/Userdata/Michel/SpatialProb/IndividualPriorityMaps/Experiment2","no","mono","no","18","no","white","no","yes","0.09","98","1050","legacy","45","52","52","1","C:/Userdata/Michel/SpatialProb/IndividualPriorityMaps/Experiment2/data/subject-24.csv","legacy","9","192","25","Jazzy James","3.1.3","yes","598477b2b83f69022949e7e9","47","green","circular","red","circular","0","\","1006","space","14326","14326","(80, 80, 80)","(0, 122, 0)","(179, 0, 0)","(155, 155, 155)","2","legacy","experiment","[7, 0, 1, 2, 3, 4, 5, 6]","\","2500","3000","0","8","252.758751519","1024","2","48000","-16","main","[(0, -252), (178, -178), (252, 0), (178, 178), (0, 252), (-178, 178), (-252, 0), (-178, -178)]","[]","24","even","0","198801","221136","221136","114528","113522","1595","136741","136741","1595","1595","128854","343972","1592","221136","342963","342231","342231","NA","726","study_X","0","14326","1","yes","1680"
"undefined","undefined","14326","14326","black","no","legacy","legacy","legacy","0","green","(0, 122, 0)","color","present","highProb","circular","same","same","same","same","red","(179, 0, 0)","lowProb","lowProb3","circular","uniform","1","undefined","0.260416666667","1","1","301.84375","1","50","57954","0","0","0","0","0","0","0","0","78","0","1","0.260416666667","301.84375","50","57954","78","78","78","08/25/17 09:50:13","Default description","yes","<openexp._canvas.legacy.legacy object at 0x049F27F0>","<openexp._canvas.legacy.legacy object at 0x049FD7B0>","<openexp._canvas.legacy.legacy object at 0x049EA370>","<openexp._canvas.legacy.legacy object at 0x04AE09D0>","<openexp._canvas.legacy.legacy object at 0x04AB14B0>","<openexp._canvas.legacy.legacy object at 0x049F96B0>","<openexp._canvas.legacy.legacy object at 0x04AB2A50>","75","IndividualPriorityWithDis_v1.osexp","C:/Userdata/Michel/SpatialProb/IndividualPriorityMaps/Experiment2","no","mono","no","18","no","white","no","yes","0.09","98","1050","legacy","45","53","53","1","C:/Userdata/Michel/SpatialProb/IndividualPriorityMaps/Experiment2/data/subject-24.csv","legacy","9","192","25","Jazzy James","3.1.3","yes","598477b2b83f69022949e7e9","47","green","circular","red","circular","0","\","1231","space","14326","14326","(80, 80, 80)","(0, 122, 0)","(179, 0, 0)","(155, 155, 155)","2","legacy","experiment","[7, 0, 1, 2, 3, 4, 5, 6]","\","2500","3000","0","8","252.758751519","1024","2","48000","-16","main","[(0, -252), (178, -178), (252, 0), (178, 178), (0, 252), (-178, 178), (-252, 0), (-178, -178)]","[]","24","even","2","198801","221136","221136","114528","113522","1595","136741","136741","1595","1595","128854","346348","1592","221136","345114","344382","344382","NA","726","study_X","0","14326","1","yes","1680"
