"acc","accuracy","average_response_time","avg_rt","background","bidi","canvas_backend","clock_backend","color_backend","compensation","cond_disColor","cond_disColorRGB","cond_disFeature","cond_disPresent","cond_disProbability","cond_disShape","cond_primingDisColor","cond_primingDisShape","cond_primingTarColor","cond_primingTarShape","cond_tarColor","cond_tarColorRGB","cond_tarLocation","cond_tarLocationLong","cond_tarShape","coordinates","correct","correct_continuePress","count_blockAcc","count_blockFeed","count_blockLoop","count_blockRT","count_blockSeq","count_blockSumCorrect","count_blockSumRT","count_continuePress","count_example","count_expSettings","count_exp_mainLoop","count_experiment","count_instructions","count_instructions1","count_instructions2","count_log","count_main","count_prepCanvas","count_totalAcc","count_totalRT","count_totalSumCorrect","count_totalSumRT","count_trialResp","count_trialSeq","count_trialTask","datetime","description","disable_garbage_collection","dispBlank","dispBlockStart","dispFeedBlock","dispFix","dispInstructions","dispSearch","dispStartScreen","distance2screen","experiment_file","experiment_path","font_bold","font_family","font_italic","font_size","font_underline","foreground","form_clicks","fullscreen","gaborFreq","gaborSize","height","keyboard_backend","lineOriTar","live_row","live_row_blockLoop","live_row_exp_mainLoop","logfile","mouse_backend","noExpBlocks","noExpTrials","noPracTrials","opensesame_codename","opensesame_version","osf_always_upload_experiment","osf_id","physical_screensize","previousDisColor","previousDisShape","previousTarColor","previousTarShape","repeat_cycle","response","responseTime","response_continuePress","response_time","response_time_continuePress","rgb_gray","rgb_green","rgb_red","rgb_white","round_decimals","sampler_backend","set_blockType","set_counterPositions","set_respCorrect","set_respTimeoutExp","set_respTimeoutPrac","set_rotation","set_setSize","sizeImaginary","sound_buf_size","sound_channels","sound_freq","sound_sample_size","start","stimPositions","stimuli","subject_nr","subject_parity","tarIdx","time_blockFeed","time_blockLoop","time_blockSeq","time_continuePress","time_example","time_expSettings","time_exp_mainLoop","time_experiment","time_instructions","time_instructions1","time_instructions2","time_log","time_main","time_prepCanvas","time_trialResp","time_trialSeq","time_trialTask","timing_EEGwait","timing_fix","title","total_correct","total_response_time","total_responses","uniform_coordinates","width"
"undefined","undefined","10468","10468","black","no","legacy","legacy","legacy","0","green","(0, 122, 0)","shape","present","highProb","rectangular","same","swap","same","swap","green","(0, 122, 0)","highProbColor","highProbColor","circular","uniform","1","undefined","0.00520833333333","1","1","5.43229166667","1","1","1043","0","0","0","0","0","0","0","0","25","0","1","0.00520833333333","5.43229166667","1","1043","25","25","25","08/18/17 14:33:25","Default description","yes","<openexp._canvas.legacy.legacy object at 0x049C27F0>","<openexp._canvas.legacy.legacy object at 0x049CD7B0>","<openexp._canvas.legacy.legacy object at 0x049BA410>","<openexp._canvas.legacy.legacy object at 0x04AB09D0>","<openexp._canvas.legacy.legacy object at 0x04A814B0>","<openexp._canvas.legacy.legacy object at 0x049BE550>","<openexp._canvas.legacy.legacy object at 0x04A82D30>","75","IndividualPriorityWithDis_v1.osexp","C:/Userdata/Michel/SpatialProb/IndividualPriorityMaps/Experiment2","no","mono","no","18","no","white","no","yes","0.09","98","1050","legacy","315","0","0","1","C:/Userdata/Michel/SpatialProb/IndividualPriorityMaps/Experiment2/data/subject-8.csv","legacy","9","192","25","Jazzy James","3.1.3","yes","598477b2b83f69022949e7e9","47","green","rectangular","green","circular","0","/","1043","space","10468","10468","(80, 80, 80)","(0, 122, 0)","(179, 0, 0)","(155, 155, 155)","2","legacy","experiment","[7, 0, 1, 2, 3, 4, 5, 6]","/","2500","3000","0","8","252.758751519","1024","2","48000","-16","main","[(0, -252), (178, -178), (252, 0), (178, 178), (0, 252), (-178, 178), (-252, 0), (-178, -178)]","[]","8","even","7","5161965","5211718","5211718","5072821","5071814","1590","5090945","5090945","1590","1591","5083290","5218953","1588","5211718","5217907","5212109","5212109","NA","721","study_X","0","10468","1","yes","1680"
"undefined","undefined","10468","10468","black","no","legacy","legacy","legacy","0","green","(0, 122, 0)","color","present","highProb","circular","same","swap","swap","same","red","(179, 0, 0)","lowProb","lowProb3","circular","uniform","1","undefined","0.0104166666667","1","1","9.77604166667","1","2","1877","0","0","0","0","0","0","0","0","26","0","1","0.0104166666667","9.77604166667","2","1877","26","26","26","08/18/17 14:33:25","Default description","yes","<openexp._canvas.legacy.legacy object at 0x049C27F0>","<openexp._canvas.legacy.legacy object at 0x049CD7B0>","<openexp._canvas.legacy.legacy object at 0x049BA410>","<openexp._canvas.legacy.legacy object at 0x04AB09D0>","<openexp._canvas.legacy.legacy object at 0x04A814B0>","<openexp._canvas.legacy.legacy object at 0x049CDFB0>","<openexp._canvas.legacy.legacy object at 0x04A82D30>","75","IndividualPriorityWithDis_v1.osexp","C:/Userdata/Michel/SpatialProb/IndividualPriorityMaps/Experiment2","no","mono","no","18","no","white","no","yes","0.09","98","1050","legacy","45","1","1","1","C:/Userdata/Michel/SpatialProb/IndividualPriorityMaps/Experiment2/data/subject-8.csv","legacy","9","192","25","Jazzy James","3.1.3","yes","598477b2b83f69022949e7e9","47","green","circular","red","circular","0","\","834","space","10468","10468","(80, 80, 80)","(0, 122, 0)","(179, 0, 0)","(155, 155, 155)","2","legacy","experiment","[7, 0, 1, 2, 3, 4, 5, 6]","\","2500","3000","0","8","252.758751519","1024","2","48000","-16","main","[(0, -252), (178, -178), (252, 0), (178, 178), (0, 252), (-178, 178), (-252, 0), (-178, -178)]","[]","8","even","2","5161965","5211718","5211718","5072821","5071814","1590","5090945","5090945","1590","1591","5083290","5220961","1588","5211718","5220123","5219396","5219396","NA","721","study_X","0","10468","1","yes","1680"
"undefined","undefined","10468","10468","black","no","legacy","legacy","legacy","0","red","(179, 0, 0)","color","present","highProb","rectangular","swap","swap","swap","swap","green","(0, 122, 0)","lowProb","lowProb4","rectangular","uniform","1","undefined","0.015625","1","1","13.2447916667","1","3","2543","0","0","0","0","0","0","0","0","27","0","1","0.015625","13.2447916667","3","2543","27","27","27","08/18/17 14:33:25","Default description","yes","<openexp._canvas.legacy.legacy object at 0x049C27F0>","<openexp._canvas.legacy.legacy object at 0x049CD7B0>","<openexp._canvas.legacy.legacy object at 0x049BA410>","<openexp._canvas.legacy.legacy object at 0x04AB09D0>","<openexp._canvas.legacy.legacy object at 0x04A814B0>","<openexp._canvas.legacy.legacy object at 0x049BF950>","<openexp._canvas.legacy.legacy object at 0x04A82D30>","75","IndividualPriorityWithDis_v1.osexp","C:/Userdata/Michel/SpatialProb/IndividualPriorityMaps/Experiment2","no","mono","no","18","no","white","no","yes","0.09","98","1050","legacy","45","2","2","1","C:/Userdata/Michel/SpatialProb/IndividualPriorityMaps/Experiment2/data/subject-8.csv","legacy","9","192","25","Jazzy James","3.1.3","yes","598477b2b83f69022949e7e9","47","red","rectangular","green","rectangular","0","\","666","space","10468","10468","(80, 80, 80)","(0, 122, 0)","(179, 0, 0)","(155, 155, 155)","2","legacy","experiment","[7, 0, 1, 2, 3, 4, 5, 6]","\","2500","3000","0","8","252.758751519","1024","2","48000","-16","main","[(0, -252), (178, -178), (252, 0), (178, 178), (0, 252), (-178, 178), (-252, 0), (-178, -178)]","[]","8","even","4","5161965","5211718","5211718","5072821","5071814","1590","5090945","5090945","1590","1591","5083290","5222769","1588","5211718","5222099","5221372","5221372","NA","721","study_X","0","10468","1","yes","1680"
"undefined","undefined","10468","10468","black","no","legacy","legacy","legacy","0","red","(179, 0, 0)","shape","present","highProb","circular","same","swap","swap","same","red","(179, 0, 0)","lowProb","lowProb5","rectangular","uniform","1","undefined","0.0208333333333","1","1","25.7916666667","1","4","4952","0","0","0","0","0","0","0","0","28","0","1","0.0208333333333","25.7916666667","4","4952","28","28","28","08/18/17 14:33:25","Default description","yes","<openexp._canvas.legacy.legacy object at 0x049C27F0>","<openexp._canvas.legacy.legacy object at 0x049CD7B0>","<openexp._canvas.legacy.legacy object at 0x049BA410>","<openexp._canvas.legacy.legacy object at 0x04AB09D0>","<openexp._canvas.legacy.legacy object at 0x04A814B0>","<openexp._canvas.legacy.legacy object at 0x049BA510>","<openexp._canvas.legacy.legacy object at 0x04A82D30>","75","IndividualPriorityWithDis_v1.osexp","C:/Userdata/Michel/SpatialProb/IndividualPriorityMaps/Experiment2","no","mono","no","18","no","white","no","yes","0.09","98","1050","legacy","315","3","3","1","C:/Userdata/Michel/SpatialProb/IndividualPriorityMaps/Experiment2/data/subject-8.csv","legacy","9","192","25","Jazzy James","3.1.3","yes","598477b2b83f69022949e7e9","47","red","circular","red","rectangular","0","/","2409","space","10468","10468","(80, 80, 80)","(0, 122, 0)","(179, 0, 0)","(155, 155, 155)","2","legacy","experiment","[7, 0, 1, 2, 3, 4, 5, 6]","/","2500","3000","0","8","252.758751519","1024","2","48000","-16","main","[(0, -252), (178, -178), (252, 0), (178, 178), (0, 252), (-178, 178), (-252, 0), (-178, -178)]","[]","8","even","5","5161965","5211718","5211718","5072821","5071814","1590","5090945","5090945","1590","1591","5083290","5226312","1588","5211718","5223900","5223173","5223174","NA","721","study_X","0","10468","1","yes","1680"
"undefined","undefined","10468","10468","black","no","legacy","legacy","legacy","0","red","(179, 0, 0)","color","present","highProb","circular","same","same","swap","swap","green","(0, 122, 0)","lowProb","lowProb2","circular","uniform","1","undefined","0.0260416666667","1","1","34.2760416667","1","5","6581","0","0","0","0","0","0","0","0","29","0","1","0.0260416666667","34.2760416667","5","6581","29","29","29","08/18/17 14:33:25","Default description","yes","<openexp._canvas.legacy.legacy object at 0x049C27F0>","<openexp._canvas.legacy.legacy object at 0x049CD7B0>","<openexp._canvas.legacy.legacy object at 0x049BA410>","<openexp._canvas.legacy.legacy object at 0x04AB09D0>","<openexp._canvas.legacy.legacy object at 0x04A814B0>","<openexp._canvas.legacy.legacy object at 0x04AB0F70>","<openexp._canvas.legacy.legacy object at 0x04A82D30>","75","IndividualPriorityWithDis_v1.osexp","C:/Userdata/Michel/SpatialProb/IndividualPriorityMaps/Experiment2","no","mono","no","18","no","white","no","yes","0.09","98","1050","legacy","315","4","4","1","C:/Userdata/Michel/SpatialProb/IndividualPriorityMaps/Experiment2/data/subject-8.csv","legacy","9","192","25","Jazzy James","3.1.3","yes","598477b2b83f69022949e7e9","47","red","circular","green","circular","0","/","1629","space","10468","10468","(80, 80, 80)","(0, 122, 0)","(179, 0, 0)","(155, 155, 155)","2","legacy","experiment","[7, 0, 1, 2, 3, 4, 5, 6]","/","2500","3000","0","8","252.758751519","1024","2","48000","-16","main","[(0, -252), (178, -178), (252, 0), (178, 178), (0, 252), (-178, 178), (-252, 0), (-178, -178)]","[]","8","even","1","5161965","5211718","5211718","5072821","5071814","1590","5090945","5090945","1590","1591","5083290","5229105","1588","5211718","5227473","5226746","5226746","NA","721","study_X","0","10468","1","yes","1680"
"undefined","undefined","10468","10468","black","no","legacy","legacy","legacy","0","red","(179, 0, 0)","shape","absent","lowProb3","circular","same","same","swap","same","red","(179, 0, 0)","lowProb","lowProb3","circular","uniform","1","undefined","0.03125","1","1","39.21875","1","6","7530","0","0","0","0","0","0","0","0","30","0","1","0.03125","39.21875","6","7530","30","30","30","08/18/17 14:33:25","Default description","yes","<openexp._canvas.legacy.legacy object at 0x049C27F0>","<openexp._canvas.legacy.legacy object at 0x049CD7B0>","<openexp._canvas.legacy.legacy object at 0x049BA410>","<openexp._canvas.legacy.legacy object at 0x04AB09D0>","<openexp._canvas.legacy.legacy object at 0x04A814B0>","<openexp._canvas.legacy.legacy object at 0x049BE610>","<openexp._canvas.legacy.legacy object at 0x04A82D30>","75","IndividualPriorityWithDis_v1.osexp","C:/Userdata/Michel/SpatialProb/IndividualPriorityMaps/Experiment2","no","mono","no","18","no","white","no","yes","0.09","98","1050","legacy","45","5","5","1","C:/Userdata/Michel/SpatialProb/IndividualPriorityMaps/Experiment2/data/subject-8.csv","legacy","9","192","25","Jazzy James","3.1.3","yes","598477b2b83f69022949e7e9","47","red","circular","red","circular","0","\","949","space","10468","10468","(80, 80, 80)","(0, 122, 0)","(179, 0, 0)","(155, 155, 155)","2","legacy","experiment","[7, 0, 1, 2, 3, 4, 5, 6]","\","2500","3000","0","8","252.758751519","1024","2","48000","-16","main","[(0, -252), (178, -178), (252, 0), (178, 178), (0, 252), (-178, 178), (-252, 0), (-178, -178)]","[]","8","even","2","5161965","5211718","5211718","5072821","5071814","1590","5090945","5090945","1590","1591","5083290","5231193","1588","5211718","5230241","5229515","5229515","NA","721","study_X","0","10468","1","yes","1680"
"undefined","undefined","10468","10468","black","no","legacy","legacy","legacy","0","green","(0, 122, 0)","color","present","highProb","circular","swap","same","same","same","red","(179, 0, 0)","lowProb","lowProb4","circular","uniform","1","undefined","0.0364583333333","1","1","42.203125","1","7","8103","0","0","0","0","0","0","0","0","31","0","1","0.0364583333333","42.203125","7","8103","31","31","31","08/18/17 14:33:25","Default description","yes","<openexp._canvas.legacy.legacy object at 0x049C27F0>","<openexp._canvas.legacy.legacy object at 0x049CD7B0>","<openexp._canvas.legacy.legacy object at 0x049BA410>","<openexp._canvas.legacy.legacy object at 0x04AB09D0>","<openexp._canvas.legacy.legacy object at 0x04A814B0>","<openexp._canvas.legacy.legacy object at 0x049BF930>","<openexp._canvas.legacy.legacy object at 0x04A82D30>","75","IndividualPriorityWithDis_v1.osexp","C:/Userdata/Michel/SpatialProb/IndividualPriorityMaps/Experiment2","no","mono","no","18","no","white","no","yes","0.09","98","1050","legacy","45","6","6","1","C:/Userdata/Michel/SpatialProb/IndividualPriorityMaps/Experiment2/data/subject-8.csv","legacy","9","192","25","Jazzy James","3.1.3","yes","598477b2b83f69022949e7e9","47","green","circular","red","circular","0","\","573","space","10468","10468","(80, 80, 80)","(0, 122, 0)","(179, 0, 0)","(155, 155, 155)","2","legacy","experiment","[7, 0, 1, 2, 3, 4, 5, 6]","\","2500","3000","0","8","252.758751519","1024","2","48000","-16","main","[(0, -252), (178, -178), (252, 0), (178, 178), (0, 252), (-178, 178), (-252, 0), (-178, -178)]","[]","8","even","4","5161965","5211718","5211718","5072821","5071814","1590","5090945","5090945","1590","1591","5083290","5232913","1588","5211718","5232337","5231610","5231610","NA","721","study_X","0","10468","1","yes","1680"
"undefined","undefined","10468","10468","black","no","legacy","legacy","legacy","0","red","(179, 0, 0)","color","present","lowProb6","rectangular","swap","swap","swap","swap","green","(0, 122, 0)","lowProb","lowProb1","rectangular","uniform","1","undefined","0.0416666666667","1","1","49.4375","1","8","9492","0","0","0","0","0","0","0","0","32","0","1","0.0416666666667","49.4375","8","9492","32","32","32","08/18/17 14:33:25","Default description","yes","<openexp._canvas.legacy.legacy object at 0x049C27F0>","<openexp._canvas.legacy.legacy object at 0x049CD7B0>","<openexp._canvas.legacy.legacy object at 0x049BA410>","<openexp._canvas.legacy.legacy object at 0x04AB09D0>","<openexp._canvas.legacy.legacy object at 0x04A814B0>","<openexp._canvas.legacy.legacy object at 0x049BE390>","<openexp._canvas.legacy.legacy object at 0x04A82D30>","75","IndividualPriorityWithDis_v1.osexp","C:/Userdata/Michel/SpatialProb/IndividualPriorityMaps/Experiment2","no","mono","no","18","no","white","no","yes","0.09","98","1050","legacy","315","7","7","1","C:/Userdata/Michel/SpatialProb/IndividualPriorityMaps/Experiment2/data/subject-8.csv","legacy","9","192","25","Jazzy James","3.1.3","yes","598477b2b83f69022949e7e9","47","red","rectangular","green","rectangular","0","/","1389","space","10468","10468","(80, 80, 80)","(0, 122, 0)","(179, 0, 0)","(155, 155, 155)","2","legacy","experiment","[7, 0, 1, 2, 3, 4, 5, 6]","/","2500","3000","0","8","252.758751519","1024","2","48000","-16","main","[(0, -252), (178, -178), (252, 0), (178, 178), (0, 252), (-178, 178), (-252, 0), (-178, -178)]","[]","8","even","0","5161965","5211718","5211718","5072821","5071814","1590","5090945","5090945","1590","1591","5083290","5235441","1588","5211718","5234048","5233321","5233321","NA","721","study_X","0","10468","1","yes","1680"
"undefined","undefined","10468","10468","black","no","legacy","legacy","legacy","0","red","(179, 0, 0)","color","present","lowProb2","circular","same","swap","same","swap","green","(0, 122, 0)","highProbColor","highProbColor","circular","uniform","1","undefined","0.046875","1","1","54.8385416667","1","9","10529","0","0","0","0","0","0","0","0","33","0","1","0.046875","54.8385416667","9","10529","33","33","33","08/18/17 14:33:25","Default description","yes","<openexp._canvas.legacy.legacy object at 0x049C27F0>","<openexp._canvas.legacy.legacy object at 0x049CD7B0>","<openexp._canvas.legacy.legacy object at 0x049BA410>","<openexp._canvas.legacy.legacy object at 0x04AB09D0>","<openexp._canvas.legacy.legacy object at 0x04A814B0>","<openexp._canvas.legacy.legacy object at 0x049BF3B0>","<openexp._canvas.legacy.legacy object at 0x04A82D30>","75","IndividualPriorityWithDis_v1.osexp","C:/Userdata/Michel/SpatialProb/IndividualPriorityMaps/Experiment2","no","mono","no","18","no","white","no","yes","0.09","98","1050","legacy","45","8","8","1","C:/Userdata/Michel/SpatialProb/IndividualPriorityMaps/Experiment2/data/subject-8.csv","legacy","9","192","25","Jazzy James","3.1.3","yes","598477b2b83f69022949e7e9","47","red","circular","green","circular","0","\","1037","space","10468","10468","(80, 80, 80)","(0, 122, 0)","(179, 0, 0)","(155, 155, 155)","2","legacy","experiment","[7, 0, 1, 2, 3, 4, 5, 6]","\","2500","3000","0","8","252.758751519","1024","2","48000","-16","main","[(0, -252), (178, -178), (252, 0), (178, 178), (0, 252), (-178, 178), (-252, 0), (-178, -178)]","[]","8","even","7","5161965","5211718","5211718","5072821","5071814","1590","5090945","5090945","1590","1591","5083290","5237617","1588","5211718","5236576","5235849","5235849","NA","721","study_X","0","10468","1","yes","1680"
"undefined","undefined","10468","10468","black","no","legacy","legacy","legacy","0","red","(179, 0, 0)","shape","present","highProb","rectangular","same","swap","swap","same","red","(179, 0, 0)","lowProb","lowProb1","circular","uniform","1","undefined","0.0520833333333","1","1","58.7083333333","1","10","11272","0","0","0","0","0","0","0","0","34","0","1","0.0520833333333","58.7083333333","10","11272","34","34","34","08/18/17 14:33:25","Default description","yes","<openexp._canvas.legacy.legacy object at 0x049C27F0>","<openexp._canvas.legacy.legacy object at 0x049CD7B0>","<openexp._canvas.legacy.legacy object at 0x049BA410>","<openexp._canvas.legacy.legacy object at 0x04AB09D0>","<openexp._canvas.legacy.legacy object at 0x04A814B0>","<openexp._canvas.legacy.legacy object at 0x04AB00F0>","<openexp._canvas.legacy.legacy object at 0x04A82D30>","75","IndividualPriorityWithDis_v1.osexp","C:/Userdata/Michel/SpatialProb/IndividualPriorityMaps/Experiment2","no","mono","no","18","no","white","no","yes","0.09","98","1050","legacy","45","9","9","1","C:/Userdata/Michel/SpatialProb/IndividualPriorityMaps/Experiment2/data/subject-8.csv","legacy","9","192","25","Jazzy James","3.1.3","yes","598477b2b83f69022949e7e9","47","red","rectangular","red","circular","0","\","743","space","10468","10468","(80, 80, 80)","(0, 122, 0)","(179, 0, 0)","(155, 155, 155)","2","legacy","experiment","[7, 0, 1, 2, 3, 4, 5, 6]","\","2500","3000","0","8","252.758751519","1024","2","48000","-16","main","[(0, -252), (178, -178), (252, 0), (178, 178), (0, 252), (-178, 178), (-252, 0), (-178, -178)]","[]","8","even","0","5161965","5211718","5211718","5072821","5071814","1590","5090945","5090945","1590","1591","5083290","5239497","1588","5211718","5238750","5238023","5238023","NA","721","study_X","0","10468","1","yes","1680"
"undefined","undefined","10468","10468","black","no","legacy","legacy","legacy","0","green","(0, 122, 0)","shape","present","lowProb1","rectangular","swap","same","swap","same","green","(0, 122, 0)","lowProb","lowProb4","circular","uniform","1","undefined","0.0572916666667","1","1","61.6197916667","1","11","11831","0","0","0","0","0","0","0","0","35","0","1","0.0572916666667","61.6197916667","11","11831","35","35","35","08/18/17 14:33:25","Default description","yes","<openexp._canvas.legacy.legacy object at 0x049C27F0>","<openexp._canvas.legacy.legacy object at 0x049CD7B0>","<openexp._canvas.legacy.legacy object at 0x049BA410>","<openexp._canvas.legacy.legacy object at 0x04AB09D0>","<openexp._canvas.legacy.legacy object at 0x04A814B0>","<openexp._canvas.legacy.legacy object at 0x049C9110>","<openexp._canvas.legacy.legacy object at 0x04A82D30>","75","IndividualPriorityWithDis_v1.osexp","C:/Userdata/Michel/SpatialProb/IndividualPriorityMaps/Experiment2","no","mono","no","18","no","white","no","yes","0.09","98","1050","legacy","45","10","10","1","C:/Userdata/Michel/SpatialProb/IndividualPriorityMaps/Experiment2/data/subject-8.csv","legacy","9","192","25","Jazzy James","3.1.3","yes","598477b2b83f69022949e7e9","47","green","rectangular","green","circular","0","\","559","space","10468","10468","(80, 80, 80)","(0, 122, 0)","(179, 0, 0)","(155, 155, 155)","2","legacy","experiment","[7, 0, 1, 2, 3, 4, 5, 6]","\","2500","3000","0","8","252.758751519","1024","2","48000","-16","main","[(0, -252), (178, -178), (252, 0), (178, 178), (0, 252), (-178, 178), (-252, 0), (-178, -178)]","[]","8","even","4","5161965","5211718","5211718","5072821","5071814","1590","5090945","5090945","1590","1591","5083290","5241200","1588","5211718","5240638","5239911","5239911","NA","721","study_X","0","10468","1","yes","1680"
"undefined","undefined","10468","10468","black","no","legacy","legacy","legacy","0","red","(179, 0, 0)","shape","present","highProb","circular","swap","swap","swap","swap","red","(179, 0, 0)","lowProb","lowProb1","rectangular","uniform","1","undefined","0.0625","1","1","67.2083333333","1","12","12904","0","0","0","0","0","0","0","0","36","0","1","0.0625","67.2083333333","12","12904","36","36","36","08/18/17 14:33:25","Default description","yes","<openexp._canvas.legacy.legacy object at 0x049C27F0>","<openexp._canvas.legacy.legacy object at 0x049CD7B0>","<openexp._canvas.legacy.legacy object at 0x049BA410>","<openexp._canvas.legacy.legacy object at 0x04AB09D0>","<openexp._canvas.legacy.legacy object at 0x04A814B0>","<openexp._canvas.legacy.legacy object at 0x049BFEB0>","<openexp._canvas.legacy.legacy object at 0x04A82D30>","75","IndividualPriorityWithDis_v1.osexp","C:/Userdata/Michel/SpatialProb/IndividualPriorityMaps/Experiment2","no","mono","no","18","no","white","no","yes","0.09","98","1050","legacy","45","11","11","1","C:/Userdata/Michel/SpatialProb/IndividualPriorityMaps/Experiment2/data/subject-8.csv","legacy","9","192","25","Jazzy James","3.1.3","yes","598477b2b83f69022949e7e9","47","red","circular","red","rectangular","0","\","1073","space","10468","10468","(80, 80, 80)","(0, 122, 0)","(179, 0, 0)","(155, 155, 155)","2","legacy","experiment","[7, 0, 1, 2, 3, 4, 5, 6]","\","2500","3000","0","8","252.758751519","1024","2","48000","-16","main","[(0, -252), (178, -178), (252, 0), (178, 178), (0, 252), (-178, 178), (-252, 0), (-178, -178)]","[]","8","even","0","5161965","5211718","5211718","5072821","5071814","1590","5090945","5090945","1590","1591","5083290","5243416","1588","5211718","5242340","5241613","5241613","NA","721","study_X","0","10468","1","yes","1680"
"undefined","undefined","10468","10468","black","no","legacy","legacy","legacy","0","red","(179, 0, 0)","shape","present","lowProb3","circular","same","same","same","same","red","(179, 0, 0)","highProbShape","highProbShape","rectangular","uniform","1","undefined","0.0677083333333","1","1","73.3697916667","1","13","14087","0","0","0","0","0","0","0","0","37","0","1","0.0677083333333","73.3697916667","13","14087","37","37","37","08/18/17 14:33:25","Default description","yes","<openexp._canvas.legacy.legacy object at 0x049C27F0>","<openexp._canvas.legacy.legacy object at 0x049CD7B0>","<openexp._canvas.legacy.legacy object at 0x049BA410>","<openexp._canvas.legacy.legacy object at 0x04AB09D0>","<openexp._canvas.legacy.legacy object at 0x04A814B0>","<openexp._canvas.legacy.legacy object at 0x049D2710>","<openexp._canvas.legacy.legacy object at 0x04A82D30>","75","IndividualPriorityWithDis_v1.osexp","C:/Userdata/Michel/SpatialProb/IndividualPriorityMaps/Experiment2","no","mono","no","18","no","white","no","yes","0.09","98","1050","legacy","45","12","12","1","C:/Userdata/Michel/SpatialProb/IndividualPriorityMaps/Experiment2/data/subject-8.csv","legacy","9","192","25","Jazzy James","3.1.3","yes","598477b2b83f69022949e7e9","47","red","circular","red","rectangular","0","\","1183","space","10468","10468","(80, 80, 80)","(0, 122, 0)","(179, 0, 0)","(155, 155, 155)","2","legacy","experiment","[7, 0, 1, 2, 3, 4, 5, 6]","\","2500","3000","0","8","252.758751519","1024","2","48000","-16","main","[(0, -252), (178, -178), (252, 0), (178, 178), (0, 252), (-178, 178), (-252, 0), (-178, -178)]","[]","8","even","3","5161965","5211718","5211718","5072821","5071814","1590","5090945","5090945","1590","1591","5083290","5245745","1588","5211718","5244559","5243832","5243832","NA","721","study_X","0","10468","1","yes","1680"
"undefined","undefined","10468","10468","black","no","legacy","legacy","legacy","0","red","(179, 0, 0)","color","present","lowProb3","circular","same","same","swap","swap","green","(0, 122, 0)","highProbShape","highProbShape","circular","uniform","1","undefined","0.0729166666667","1","1","77.9635416667","1","14","14969","0","0","0","0","0","0","0","0","38","0","1","0.0729166666667","77.9635416667","14","14969","38","38","38","08/18/17 14:33:25","Default description","yes","<openexp._canvas.legacy.legacy object at 0x049C27F0>","<openexp._canvas.legacy.legacy object at 0x049CD7B0>","<openexp._canvas.legacy.legacy object at 0x049BA410>","<openexp._canvas.legacy.legacy object at 0x04AB09D0>","<openexp._canvas.legacy.legacy object at 0x04A814B0>","<openexp._canvas.legacy.legacy object at 0x049BF8D0>","<openexp._canvas.legacy.legacy object at 0x04A82D30>","75","IndividualPriorityWithDis_v1.osexp","C:/Userdata/Michel/SpatialProb/IndividualPriorityMaps/Experiment2","no","mono","no","18","no","white","no","yes","0.09","98","1050","legacy","315","13","13","1","C:/Userdata/Michel/SpatialProb/IndividualPriorityMaps/Experiment2/data/subject-8.csv","legacy","9","192","25","Jazzy James","3.1.3","yes","598477b2b83f69022949e7e9","47","red","circular","green","circular","0","/","882","space","10468","10468","(80, 80, 80)","(0, 122, 0)","(179, 0, 0)","(155, 155, 155)","2","legacy","experiment","[7, 0, 1, 2, 3, 4, 5, 6]","/","2500","3000","0","8","252.758751519","1024","2","48000","-16","main","[(0, -252), (178, -178), (252, 0), (178, 178), (0, 252), (-178, 178), (-252, 0), (-178, -178)]","[]","8","even","3","5161965","5211718","5211718","5072821","5071814","1590","5090945","5090945","1590","1591","5083290","5247761","1588","5211718","5246876","5246149","5246149","NA","721","study_X","0","10468","1","yes","1680"
"undefined","undefined","10468","10468","black","no","legacy","legacy","legacy","0","green","(0, 122, 0)","color","absent","lowProb2","circular","swap","same","same","same","green","(0, 122, 0)","lowProb","lowProb4","circular","uniform","1","undefined","0.078125","1","1","80.6145833333","1","15","15478","0","0","0","0","0","0","0","0","39","0","1","0.078125","80.6145833333","15","15478","39","39","39","08/18/17 14:33:25","Default description","yes","<openexp._canvas.legacy.legacy object at 0x049C27F0>","<openexp._canvas.legacy.legacy object at 0x049CD7B0>","<openexp._canvas.legacy.legacy object at 0x049BA410>","<openexp._canvas.legacy.legacy object at 0x04AB09D0>","<openexp._canvas.legacy.legacy object at 0x04A814B0>","<openexp._canvas.legacy.legacy object at 0x049BF910>","<openexp._canvas.legacy.legacy object at 0x04A82D30>","75","IndividualPriorityWithDis_v1.osexp","C:/Userdata/Michel/SpatialProb/IndividualPriorityMaps/Experiment2","no","mono","no","18","no","white","no","yes","0.09","98","1050","legacy","45","14","14","1","C:/Userdata/Michel/SpatialProb/IndividualPriorityMaps/Experiment2/data/subject-8.csv","legacy","9","192","25","Jazzy James","3.1.3","yes","598477b2b83f69022949e7e9","47","green","circular","green","circular","0","\","509","space","10468","10468","(80, 80, 80)","(0, 122, 0)","(179, 0, 0)","(155, 155, 155)","2","legacy","experiment","[7, 0, 1, 2, 3, 4, 5, 6]","\","2500","3000","0","8","252.758751519","1024","2","48000","-16","main","[(0, -252), (178, -178), (252, 0), (178, 178), (0, 252), (-178, 178), (-252, 0), (-178, -178)]","[]","8","even","4","5161965","5211718","5211718","5072821","5071814","1590","5090945","5090945","1590","1591","5083290","5249409","1588","5211718","5248897","5248170","5248170","NA","721","study_X","0","10468","1","yes","1680"
"undefined","undefined","10468","10468","black","no","legacy","legacy","legacy","0","green","(0, 122, 0)","shape","present","lowProb1","rectangular","same","swap","same","same","green","(0, 122, 0)","lowProb","lowProb4","circular","uniform","1","undefined","0.0833333333333","1","1","83.2708333333","1","16","15988","0","0","0","0","0","0","0","0","40","0","1","0.0833333333333","83.2708333333","16","15988","40","40","40","08/18/17 14:33:25","Default description","yes","<openexp._canvas.legacy.legacy object at 0x049C27F0>","<openexp._canvas.legacy.legacy object at 0x049CD7B0>","<openexp._canvas.legacy.legacy object at 0x049BA410>","<openexp._canvas.legacy.legacy object at 0x04AB09D0>","<openexp._canvas.legacy.legacy object at 0x04A814B0>","<openexp._canvas.legacy.legacy object at 0x049BE850>","<openexp._canvas.legacy.legacy object at 0x04A82D30>","75","IndividualPriorityWithDis_v1.osexp","C:/Userdata/Michel/SpatialProb/IndividualPriorityMaps/Experiment2","no","mono","no","18","no","white","no","yes","0.09","98","1050","legacy","45","15","15","1","C:/Userdata/Michel/SpatialProb/IndividualPriorityMaps/Experiment2/data/subject-8.csv","legacy","9","192","25","Jazzy James","3.1.3","yes","598477b2b83f69022949e7e9","47","green","rectangular","green","circular","0","\","510","space","10468","10468","(80, 80, 80)","(0, 122, 0)","(179, 0, 0)","(155, 155, 155)","2","legacy","experiment","[7, 0, 1, 2, 3, 4, 5, 6]","\","2500","3000","0","8","252.758751519","1024","2","48000","-16","main","[(0, -252), (178, -178), (252, 0), (178, 178), (0, 252), (-178, 178), (-252, 0), (-178, -178)]","[]","8","even","4","5161965","5211718","5211718","5072821","5071814","1590","5090945","5090945","1590","1591","5083290","5251065","1588","5211718","5250551","5249824","5249824","NA","721","study_X","0","10468","1","yes","1680"
"undefined","undefined","10468","10468","black","no","legacy","legacy","legacy","0","red","(179, 0, 0)","shape","absent","lowProb2","circular","swap","swap","swap","same","red","(179, 0, 0)","highProbShape","highProbShape","circular","uniform","1","undefined","0.0885416666667","1","1","86.2552083333","1","17","16561","0","0","0","0","0","0","0","0","41","0","1","0.0885416666667","86.2552083333","17","16561","41","41","41","08/18/17 14:33:25","Default description","yes","<openexp._canvas.legacy.legacy object at 0x049C27F0>","<openexp._canvas.legacy.legacy object at 0x049CD7B0>","<openexp._canvas.legacy.legacy object at 0x049BA410>","<openexp._canvas.legacy.legacy object at 0x04AB09D0>","<openexp._canvas.legacy.legacy object at 0x04A814B0>","<openexp._canvas.legacy.legacy object at 0x049CD950>","<openexp._canvas.legacy.legacy object at 0x04A82D30>","75","IndividualPriorityWithDis_v1.osexp","C:/Userdata/Michel/SpatialProb/IndividualPriorityMaps/Experiment2","no","mono","no","18","no","white","no","yes","0.09","98","1050","legacy","315","16","16","1","C:/Userdata/Michel/SpatialProb/IndividualPriorityMaps/Experiment2/data/subject-8.csv","legacy","9","192","25","Jazzy James","3.1.3","yes","598477b2b83f69022949e7e9","47","red","circular","red","circular","0","/","573","space","10468","10468","(80, 80, 80)","(0, 122, 0)","(179, 0, 0)","(155, 155, 155)","2","legacy","experiment","[7, 0, 1, 2, 3, 4, 5, 6]","/","2500","3000","0","8","252.758751519","1024","2","48000","-16","main","[(0, -252), (178, -178), (252, 0), (178, 178), (0, 252), (-178, 178), (-252, 0), (-178, -178)]","[]","8","even","3","5161965","5211718","5211718","5072821","5071814","1590","5090945","5090945","1590","1591","5083290","5252777","1588","5211718","5252200","5251473","5251473","NA","721","study_X","0","10468","1","yes","1680"
"undefined","undefined","10468","10468","black","no","legacy","legacy","legacy","0","red","(179, 0, 0)","color","present","highProb","rectangular","same","swap","swap","swap","green","(0, 122, 0)","lowProb","lowProb1","rectangular","uniform","1","undefined","0.09375","1","1","94.9114583333","1","18","18223","0","0","0","0","0","0","0","0","42","0","1","0.09375","94.9114583333","18","18223","42","42","42","08/18/17 14:33:25","Default description","yes","<openexp._canvas.legacy.legacy object at 0x049C27F0>","<openexp._canvas.legacy.legacy object at 0x049CD7B0>","<openexp._canvas.legacy.legacy object at 0x049BA410>","<openexp._canvas.legacy.legacy object at 0x04AB09D0>","<openexp._canvas.legacy.legacy object at 0x04A814B0>","<openexp._canvas.legacy.legacy object at 0x049BFBB0>","<openexp._canvas.legacy.legacy object at 0x04A82D30>","75","IndividualPriorityWithDis_v1.osexp","C:/Userdata/Michel/SpatialProb/IndividualPriorityMaps/Experiment2","no","mono","no","18","no","white","no","yes","0.09","98","1050","legacy","45","17","17","1","C:/Userdata/Michel/SpatialProb/IndividualPriorityMaps/Experiment2/data/subject-8.csv","legacy","9","192","25","Jazzy James","3.1.3","yes","598477b2b83f69022949e7e9","47","red","rectangular","green","rectangular","0","\","1662","space","10468","10468","(80, 80, 80)","(0, 122, 0)","(179, 0, 0)","(155, 155, 155)","2","legacy","experiment","[7, 0, 1, 2, 3, 4, 5, 6]","\","2500","3000","0","8","252.758751519","1024","2","48000","-16","main","[(0, -252), (178, -178), (252, 0), (178, 178), (0, 252), (-178, 178), (-252, 0), (-178, -178)]","[]","8","even","0","5161965","5211718","5211718","5072821","5071814","1590","5090945","5090945","1590","1591","5083290","5255577","1588","5211718","5253911","5253184","5253185","NA","721","study_X","0","10468","1","yes","1680"
"undefined","undefined","10468","10468","black","no","legacy","legacy","legacy","0","red","(179, 0, 0)","color","present","highProb","rectangular","same","same","same","same","green","(0, 122, 0)","lowProb","lowProb1","rectangular","uniform","1","undefined","0.0989583333333","1","1","97.90625","1","19","18798","0","0","0","0","0","0","0","0","43","0","1","0.0989583333333","97.90625","19","18798","43","43","43","08/18/17 14:33:25","Default description","yes","<openexp._canvas.legacy.legacy object at 0x049C27F0>","<openexp._canvas.legacy.legacy object at 0x049CD7B0>","<openexp._canvas.legacy.legacy object at 0x049BA410>","<openexp._canvas.legacy.legacy object at 0x04AB09D0>","<openexp._canvas.legacy.legacy object at 0x04A814B0>","<openexp._canvas.legacy.legacy object at 0x04AB0430>","<openexp._canvas.legacy.legacy object at 0x04A82D30>","75","IndividualPriorityWithDis_v1.osexp","C:/Userdata/Michel/SpatialProb/IndividualPriorityMaps/Experiment2","no","mono","no","18","no","white","no","yes","0.09","98","1050","legacy","45","18","18","1","C:/Userdata/Michel/SpatialProb/IndividualPriorityMaps/Experiment2/data/subject-8.csv","legacy","9","192","25","Jazzy James","3.1.3","yes","598477b2b83f69022949e7e9","47","red","rectangular","green","rectangular","0","\","575","space","10468","10468","(80, 80, 80)","(0, 122, 0)","(179, 0, 0)","(155, 155, 155)","2","legacy","experiment","[7, 0, 1, 2, 3, 4, 5, 6]","\","2500","3000","0","8","252.758751519","1024","2","48000","-16","main","[(0, -252), (178, -178), (252, 0), (178, 178), (0, 252), (-178, 178), (-252, 0), (-178, -178)]","[]","8","even","0","5161965","5211718","5211718","5072821","5071814","1590","5090945","5090945","1590","1591","5083290","5257288","1588","5211718","5256710","5255983","5255983","NA","721","study_X","0","10468","1","yes","1680"
"undefined","undefined","10468","10468","black","no","legacy","legacy","legacy","0","green","(0, 122, 0)","color","present","lowProb6","rectangular","swap","same","swap","same","red","(179, 0, 0)","lowProb","lowProb1","rectangular","uniform","1","undefined","0.104166666667","1","1","101.734375","1","20","19533","0","0","0","0","0","0","0","0","44","0","1","0.104166666667","101.734375","20","19533","44","44","44","08/18/17 14:33:25","Default description","yes","<openexp._canvas.legacy.legacy object at 0x049C27F0>","<openexp._canvas.legacy.legacy object at 0x049CD7B0>","<openexp._canvas.legacy.legacy object at 0x049BA410>","<openexp._canvas.legacy.legacy object at 0x04AB09D0>","<openexp._canvas.legacy.legacy object at 0x04A814B0>","<openexp._canvas.legacy.legacy object at 0x049BE310>","<openexp._canvas.legacy.legacy object at 0x04A82D30>","75","IndividualPriorityWithDis_v1.osexp","C:/Userdata/Michel/SpatialProb/IndividualPriorityMaps/Experiment2","no","mono","no","18","no","white","no","yes","0.09","98","1050","legacy","45","19","19","1","C:/Userdata/Michel/SpatialProb/IndividualPriorityMaps/Experiment2/data/subject-8.csv","legacy","9","192","25","Jazzy James","3.1.3","yes","598477b2b83f69022949e7e9","47","green","rectangular","red","rectangular","0","\","735","space","10468","10468","(80, 80, 80)","(0, 122, 0)","(179, 0, 0)","(155, 155, 155)","2","legacy","experiment","[7, 0, 1, 2, 3, 4, 5, 6]","\","2500","3000","0","8","252.758751519","1024","2","48000","-16","main","[(0, -252), (178, -178), (252, 0), (178, 178), (0, 252), (-178, 178), (-252, 0), (-178, -178)]","[]","8","even","0","5161965","5211718","5211718","5072821","5071814","1590","5090945","5090945","1590","1591","5083290","5259168","1588","5211718","5258430","5257703","5257703","NA","721","study_X","0","10468","1","yes","1680"
"undefined","undefined","10468","10468","black","no","legacy","legacy","legacy","0","green","(0, 122, 0)","color","absent","highProb","rectangular","same","same","swap","same","green","(0, 122, 0)","highProbColor","highProbColor","rectangular","uniform","1","undefined","0.109375","1","1","107.911458333","1","21","20719","0","0","0","0","0","0","0","0","45","0","1","0.109375","107.911458333","21","20719","45","45","45","08/18/17 14:33:25","Default description","yes","<openexp._canvas.legacy.legacy object at 0x049C27F0>","<openexp._canvas.legacy.legacy object at 0x049CD7B0>","<openexp._canvas.legacy.legacy object at 0x049BA410>","<openexp._canvas.legacy.legacy object at 0x04AB09D0>","<openexp._canvas.legacy.legacy object at 0x04A814B0>","<openexp._canvas.legacy.legacy object at 0x049C9590>","<openexp._canvas.legacy.legacy object at 0x04A82D30>","75","IndividualPriorityWithDis_v1.osexp","C:/Userdata/Michel/SpatialProb/IndividualPriorityMaps/Experiment2","no","mono","no","18","no","white","no","yes","0.09","98","1050","legacy","45","20","20","1","C:/Userdata/Michel/SpatialProb/IndividualPriorityMaps/Experiment2/data/subject-8.csv","legacy","9","192","25","Jazzy James","3.1.3","yes","598477b2b83f69022949e7e9","47","green","rectangular","green","rectangular","0","\","1186","space","10468","10468","(80, 80, 80)","(0, 122, 0)","(179, 0, 0)","(155, 155, 155)","2","legacy","experiment","[7, 0, 1, 2, 3, 4, 5, 6]","\","2500","3000","0","8","252.758751519","1024","2","48000","-16","main","[(0, -252), (178, -178), (252, 0), (178, 178), (0, 252), (-178, 178), (-252, 0), (-178, -178)]","[]","8","even","7","5161965","5211718","5211718","5072821","5071814","1590","5090945","5090945","1590","1591","5083290","5261496","1588","5211718","5260307","5259581","5259581","NA","721","study_X","0","10468","1","yes","1680"
"undefined","undefined","10468","10468","black","no","legacy","legacy","legacy","0","red","(179, 0, 0)","color","present","highProb","rectangular","swap","same","same","same","green","(0, 122, 0)","lowProb","lowProb4","rectangular","uniform","0","undefined","0.109375","1","1","112.270833333","1","21","21556","0","0","0","0","0","0","0","0","46","0","1","0.109375","112.270833333","21","21556","46","46","46","08/18/17 14:33:25","Default description","yes","<openexp._canvas.legacy.legacy object at 0x049C27F0>","<openexp._canvas.legacy.legacy object at 0x049CD7B0>","<openexp._canvas.legacy.legacy object at 0x049BA410>","<openexp._canvas.legacy.legacy object at 0x04AB09D0>","<openexp._canvas.legacy.legacy object at 0x04A814B0>","<openexp._canvas.legacy.legacy object at 0x049BE070>","<openexp._canvas.legacy.legacy object at 0x04A82D30>","75","IndividualPriorityWithDis_v1.osexp","C:/Userdata/Michel/SpatialProb/IndividualPriorityMaps/Experiment2","no","mono","no","18","no","white","no","yes","0.09","98","1050","legacy","315","21","21","1","C:/Userdata/Michel/SpatialProb/IndividualPriorityMaps/Experiment2/data/subject-8.csv","legacy","9","192","25","Jazzy James","3.1.3","yes","598477b2b83f69022949e7e9","47","red","rectangular","green","rectangular","0","\","837","space","10468","10468","(80, 80, 80)","(0, 122, 0)","(179, 0, 0)","(155, 155, 155)","2","legacy","experiment","[7, 0, 1, 2, 3, 4, 5, 6]","/","2500","3000","0","8","252.758751519","1024","2","48000","-16","main","[(0, -252), (178, -178), (252, 0), (178, 178), (0, 252), (-178, 178), (-252, 0), (-178, -178)]","[]","8","even","4","5161965","5211718","5211718","5072821","5071814","1590","5090945","5090945","1590","1591","5083290","5263473","1588","5211718","5262633","5261906","5261906","NA","721","study_X","0","10468","1","yes","1680"
"undefined","undefined","10468","10468","black","no","legacy","legacy","legacy","0","green","(0, 122, 0)","color","present","highProb","rectangular","swap","same","swap","same","red","(179, 0, 0)","lowProb","lowProb2","rectangular","uniform","1","undefined","0.114583333333","1","1","118.96875","1","22","22842","0","0","0","0","0","0","0","0","47","0","1","0.114583333333","118.96875","22","22842","47","47","47","08/18/17 14:33:25","Default description","yes","<openexp._canvas.legacy.legacy object at 0x049C27F0>","<openexp._canvas.legacy.legacy object at 0x049CD7B0>","<openexp._canvas.legacy.legacy object at 0x049BA410>","<openexp._canvas.legacy.legacy object at 0x04AB09D0>","<openexp._canvas.legacy.legacy object at 0x04A814B0>","<openexp._canvas.legacy.legacy object at 0x049C9450>","<openexp._canvas.legacy.legacy object at 0x04A82D30>","75","IndividualPriorityWithDis_v1.osexp","C:/Userdata/Michel/SpatialProb/IndividualPriorityMaps/Experiment2","no","mono","no","18","no","white","no","yes","0.09","98","1050","legacy","45","22","22","1","C:/Userdata/Michel/SpatialProb/IndividualPriorityMaps/Experiment2/data/subject-8.csv","legacy","9","192","25","Jazzy James","3.1.3","yes","598477b2b83f69022949e7e9","47","green","rectangular","red","rectangular","0","\","1286","space","10468","10468","(80, 80, 80)","(0, 122, 0)","(179, 0, 0)","(155, 155, 155)","2","legacy","experiment","[7, 0, 1, 2, 3, 4, 5, 6]","\","2500","3000","0","8","252.758751519","1024","2","48000","-16","main","[(0, -252), (178, -178), (252, 0), (178, 178), (0, 252), (-178, 178), (-252, 0), (-178, -178)]","[]","8","even","1","5161965","5211718","5211718","5072821","5071814","1590","5090945","5090945","1590","1591","5083290","5265881","1588","5211718","5264593","5263866","5263866","NA","721","study_X","0","10468","1","yes","1680"
"undefined","undefined","10468","10468","black","no","legacy","legacy","legacy","0","green","(0, 122, 0)","color","present","highProb","rectangular","same","same","same","same","red","(179, 0, 0)","lowProb","lowProb1","rectangular","uniform","1","undefined","0.119791666667","1","1","122.28125","1","23","23478","0","0","0","0","0","0","0","0","48","0","1","0.119791666667","122.28125","23","23478","48","48","48","08/18/17 14:33:25","Default description","yes","<openexp._canvas.legacy.legacy object at 0x049C27F0>","<openexp._canvas.legacy.legacy object at 0x049CD7B0>","<openexp._canvas.legacy.legacy object at 0x049BA410>","<openexp._canvas.legacy.legacy object at 0x04AB09D0>","<openexp._canvas.legacy.legacy object at 0x04A814B0>","<openexp._canvas.legacy.legacy object at 0x049BE410>","<openexp._canvas.legacy.legacy object at 0x04A82D30>","75","IndividualPriorityWithDis_v1.osexp","C:/Userdata/Michel/SpatialProb/IndividualPriorityMaps/Experiment2","no","mono","no","18","no","white","no","yes","0.09","98","1050","legacy","315","23","23","1","C:/Userdata/Michel/SpatialProb/IndividualPriorityMaps/Experiment2/data/subject-8.csv","legacy","9","192","25","Jazzy James","3.1.3","yes","598477b2b83f69022949e7e9","47","green","rectangular","red","rectangular","0","/","636","space","10468","10468","(80, 80, 80)","(0, 122, 0)","(179, 0, 0)","(155, 155, 155)","2","legacy","experiment","[7, 0, 1, 2, 3, 4, 5, 6]","/","2500","3000","0","8","252.758751519","1024","2","48000","-16","main","[(0, -252), (178, -178), (252, 0), (178, 178), (0, 252), (-178, 178), (-252, 0), (-178, -178)]","[]","8","even","0","5161965","5211718","5211718","5072821","5071814","1590","5090945","5090945","1590","1591","5083290","5267673","1588","5211718","5267033","5266306","5266306","NA","721","study_X","0","10468","1","yes","1680"
"undefined","undefined","10468","10468","black","no","legacy","legacy","legacy","0","red","(179, 0, 0)","color","present","highProb","rectangular","swap","same","swap","same","green","(0, 122, 0)","lowProb","lowProb6","rectangular","uniform","1","undefined","0.125","1","1","125.651041667","1","24","24125","0","0","0","0","0","0","0","0","49","0","1","0.125","125.651041667","24","24125","49","49","49","08/18/17 14:33:25","Default description","yes","<openexp._canvas.legacy.legacy object at 0x049C27F0>","<openexp._canvas.legacy.legacy object at 0x049CD7B0>","<openexp._canvas.legacy.legacy object at 0x049BA410>","<openexp._canvas.legacy.legacy object at 0x04AB09D0>","<openexp._canvas.legacy.legacy object at 0x04A814B0>","<openexp._canvas.legacy.legacy object at 0x049BAAB0>","<openexp._canvas.legacy.legacy object at 0x04A82D30>","75","IndividualPriorityWithDis_v1.osexp","C:/Userdata/Michel/SpatialProb/IndividualPriorityMaps/Experiment2","no","mono","no","18","no","white","no","yes","0.09","98","1050","legacy","45","24","24","1","C:/Userdata/Michel/SpatialProb/IndividualPriorityMaps/Experiment2/data/subject-8.csv","legacy","9","192","25","Jazzy James","3.1.3","yes","598477b2b83f69022949e7e9","47","red","rectangular","green","rectangular","0","\","647","space","10468","10468","(80, 80, 80)","(0, 122, 0)","(179, 0, 0)","(155, 155, 155)","2","legacy","experiment","[7, 0, 1, 2, 3, 4, 5, 6]","\","2500","3000","0","8","252.758751519","1024","2","48000","-16","main","[(0, -252), (178, -178), (252, 0), (178, 178), (0, 252), (-178, 178), (-252, 0), (-178, -178)]","[]","8","even","6","5161965","5211718","5211718","5072821","5071814","1590","5090945","5090945","1590","1591","5083290","5269449","1588","5211718","5268798","5268072","5268072","NA","721","study_X","0","10468","1","yes","1680"
"undefined","undefined","10468","10468","black","no","legacy","legacy","legacy","0","red","(179, 0, 0)","color","present","highProbOther","circular","same","swap","same","swap","green","(0, 122, 0)","lowProb","lowProb2","circular","uniform","1","undefined","0.130208333333","1","1","130.682291667","1","25","25091","0","0","0","0","0","0","0","0","50","0","1","0.130208333333","130.682291667","25","25091","50","50","50","08/18/17 14:33:25","Default description","yes","<openexp._canvas.legacy.legacy object at 0x049C27F0>","<openexp._canvas.legacy.legacy object at 0x049CD7B0>","<openexp._canvas.legacy.legacy object at 0x049BA410>","<openexp._canvas.legacy.legacy object at 0x04AB09D0>","<openexp._canvas.legacy.legacy object at 0x04A814B0>","<openexp._canvas.legacy.legacy object at 0x049BE070>","<openexp._canvas.legacy.legacy object at 0x04A82D30>","75","IndividualPriorityWithDis_v1.osexp","C:/Userdata/Michel/SpatialProb/IndividualPriorityMaps/Experiment2","no","mono","no","18","no","white","no","yes","0.09","98","1050","legacy","315","25","25","1","C:/Userdata/Michel/SpatialProb/IndividualPriorityMaps/Experiment2/data/subject-8.csv","legacy","9","192","25","Jazzy James","3.1.3","yes","598477b2b83f69022949e7e9","47","red","circular","green","circular","0","/","966","space","10468","10468","(80, 80, 80)","(0, 122, 0)","(179, 0, 0)","(155, 155, 155)","2","legacy","experiment","[7, 0, 1, 2, 3, 4, 5, 6]","/","2500","3000","0","8","252.758751519","1024","2","48000","-16","main","[(0, -252), (178, -178), (252, 0), (178, 178), (0, 252), (-178, 178), (-252, 0), (-178, -178)]","[]","8","even","1","5161965","5211718","5211718","5072821","5071814","1590","5090945","5090945","1590","1591","5083290","5271561","1588","5211718","5270591","5269864","5269864","NA","721","study_X","0","10468","1","yes","1680"
"undefined","undefined","10468","10468","black","no","legacy","legacy","legacy","0","green","(0, 122, 0)","shape","present","lowProb2","circular","swap","same","same","swap","green","(0, 122, 0)","lowProb","lowProb3","rectangular","uniform","1","undefined","0.135416666667","1","1","137.416666667","1","26","26384","0","0","0","0","0","0","0","0","51","0","1","0.135416666667","137.416666667","26","26384","51","51","51","08/18/17 14:33:25","Default description","yes","<openexp._canvas.legacy.legacy object at 0x049C27F0>","<openexp._canvas.legacy.legacy object at 0x049CD7B0>","<openexp._canvas.legacy.legacy object at 0x049BA410>","<openexp._canvas.legacy.legacy object at 0x04AB09D0>","<openexp._canvas.legacy.legacy object at 0x04A814B0>","<openexp._canvas.legacy.legacy object at 0x049C9690>","<openexp._canvas.legacy.legacy object at 0x04A82D30>","75","IndividualPriorityWithDis_v1.osexp","C:/Userdata/Michel/SpatialProb/IndividualPriorityMaps/Experiment2","no","mono","no","18","no","white","no","yes","0.09","98","1050","legacy","45","26","26","1","C:/Userdata/Michel/SpatialProb/IndividualPriorityMaps/Experiment2/data/subject-8.csv","legacy","9","192","25","Jazzy James","3.1.3","yes","598477b2b83f69022949e7e9","47","green","circular","green","rectangular","0","\","1293","space","10468","10468","(80, 80, 80)","(0, 122, 0)","(179, 0, 0)","(155, 155, 155)","2","legacy","experiment","[7, 0, 1, 2, 3, 4, 5, 6]","\","2500","3000","0","8","252.758751519","1024","2","48000","-16","main","[(0, -252), (178, -178), (252, 0), (178, 178), (0, 252), (-178, 178), (-252, 0), (-178, -178)]","[]","8","even","2","5161965","5211718","5211718","5072821","5071814","1590","5090945","5090945","1590","1591","5083290","5273984","1588","5211718","5272688","5271961","5271962","NA","721","study_X","0","10468","1","yes","1680"
"undefined","undefined","10468","10468","black","no","legacy","legacy","legacy","0","green","(0, 122, 0)","shape","absent","lowProb3","rectangular","same","swap","same","same","green","(0, 122, 0)","lowProb","lowProb4","rectangular","uniform","1","undefined","0.140625","1","1","143.067708333","1","27","27469","0","0","0","0","0","0","0","0","52","0","1","0.140625","143.067708333","27","27469","52","52","52","08/18/17 14:33:25","Default description","yes","<openexp._canvas.legacy.legacy object at 0x049C27F0>","<openexp._canvas.legacy.legacy object at 0x049CD7B0>","<openexp._canvas.legacy.legacy object at 0x049BA410>","<openexp._canvas.legacy.legacy object at 0x04AB09D0>","<openexp._canvas.legacy.legacy object at 0x04A814B0>","<openexp._canvas.legacy.legacy object at 0x049BEA50>","<openexp._canvas.legacy.legacy object at 0x04A82D30>","75","IndividualPriorityWithDis_v1.osexp","C:/Userdata/Michel/SpatialProb/IndividualPriorityMaps/Experiment2","no","mono","no","18","no","white","no","yes","0.09","98","1050","legacy","45","27","27","1","C:/Userdata/Michel/SpatialProb/IndividualPriorityMaps/Experiment2/data/subject-8.csv","legacy","9","192","25","Jazzy James","3.1.3","yes","598477b2b83f69022949e7e9","47","green","rectangular","green","rectangular","0","\","1085","space","10468","10468","(80, 80, 80)","(0, 122, 0)","(179, 0, 0)","(155, 155, 155)","2","legacy","experiment","[7, 0, 1, 2, 3, 4, 5, 6]","\","2500","3000","0","8","252.758751519","1024","2","48000","-16","main","[(0, -252), (178, -178), (252, 0), (178, 178), (0, 252), (-178, 178), (-252, 0), (-178, -178)]","[]","8","even","4","5161965","5211718","5211718","5072821","5071814","1590","5090945","5090945","1590","1591","5083290","5276224","1588","5211718","5275136","5274409","5274409","NA","721","study_X","0","10468","1","yes","1680"
"undefined","undefined","10468","10468","black","no","legacy","legacy","legacy","0","red","(179, 0, 0)","color","present","lowProb4","circular","swap","swap","same","swap","green","(0, 122, 0)","lowProb","lowProb6","circular","uniform","1","undefined","0.145833333333","1","1","151.744791667","1","28","29135","0","0","0","0","0","0","0","0","53","0","1","0.145833333333","151.744791667","28","29135","53","53","53","08/18/17 14:33:25","Default description","yes","<openexp._canvas.legacy.legacy object at 0x049C27F0>","<openexp._canvas.legacy.legacy object at 0x049CD7B0>","<openexp._canvas.legacy.legacy object at 0x049BA410>","<openexp._canvas.legacy.legacy object at 0x04AB09D0>","<openexp._canvas.legacy.legacy object at 0x04A814B0>","<openexp._canvas.legacy.legacy object at 0x04AABEB0>","<openexp._canvas.legacy.legacy object at 0x04A82D30>","75","IndividualPriorityWithDis_v1.osexp","C:/Userdata/Michel/SpatialProb/IndividualPriorityMaps/Experiment2","no","mono","no","18","no","white","no","yes","0.09","98","1050","legacy","315","28","28","1","C:/Userdata/Michel/SpatialProb/IndividualPriorityMaps/Experiment2/data/subject-8.csv","legacy","9","192","25","Jazzy James","3.1.3","yes","598477b2b83f69022949e7e9","47","red","circular","green","circular","0","/","1666","space","10468","10468","(80, 80, 80)","(0, 122, 0)","(179, 0, 0)","(155, 155, 155)","2","legacy","experiment","[7, 0, 1, 2, 3, 4, 5, 6]","/","2500","3000","0","8","252.758751519","1024","2","48000","-16","main","[(0, -252), (178, -178), (252, 0), (178, 178), (0, 252), (-178, 178), (-252, 0), (-178, -178)]","[]","8","even","6","5161965","5211718","5211718","5072821","5071814","1590","5090945","5090945","1590","1591","5083290","5279040","1588","5211718","5277372","5276645","5276645","NA","721","study_X","0","10468","1","yes","1680"
"undefined","undefined","10468","10468","black","no","legacy","legacy","legacy","0","green","(0, 122, 0)","color","present","highProb","rectangular","swap","swap","swap","swap","red","(179, 0, 0)","highProbShape","highProbShape","rectangular","uniform","1","undefined","0.151041666667","1","1","157.015625","1","29","30147","0","0","0","0","0","0","0","0","54","0","1","0.151041666667","157.015625","29","30147","54","54","54","08/18/17 14:33:25","Default description","yes","<openexp._canvas.legacy.legacy object at 0x049C27F0>","<openexp._canvas.legacy.legacy object at 0x049CD7B0>","<openexp._canvas.legacy.legacy object at 0x049BA410>","<openexp._canvas.legacy.legacy object at 0x04AB09D0>","<openexp._canvas.legacy.legacy object at 0x04A814B0>","<openexp._canvas.legacy.legacy object at 0x049BFA50>","<openexp._canvas.legacy.legacy object at 0x04A82D30>","75","IndividualPriorityWithDis_v1.osexp","C:/Userdata/Michel/SpatialProb/IndividualPriorityMaps/Experiment2","no","mono","no","18","no","white","no","yes","0.09","98","1050","legacy","315","29","29","1","C:/Userdata/Michel/SpatialProb/IndividualPriorityMaps/Experiment2/data/subject-8.csv","legacy","9","192","25","Jazzy James","3.1.3","yes","598477b2b83f69022949e7e9","47","green","rectangular","red","rectangular","0","/","1012","space","10468","10468","(80, 80, 80)","(0, 122, 0)","(179, 0, 0)","(155, 155, 155)","2","legacy","experiment","[7, 0, 1, 2, 3, 4, 5, 6]","/","2500","3000","0","8","252.758751519","1024","2","48000","-16","main","[(0, -252), (178, -178), (252, 0), (178, 178), (0, 252), (-178, 178), (-252, 0), (-178, -178)]","[]","8","even","3","5161965","5211718","5211718","5072821","5071814","1590","5090945","5090945","1590","1591","5083290","5281185","1588","5211718","5280170","5279443","5279443","NA","721","study_X","0","10468","1","yes","1680"
"undefined","undefined","10468","10468","black","no","legacy","legacy","legacy","0","green","(0, 122, 0)","color","present","lowProb5","rectangular","same","same","same","same","red","(179, 0, 0)","lowProb","lowProb3","rectangular","uniform","1","undefined","0.15625","1","1","161.625","1","30","31032","0","0","0","0","0","0","0","0","55","0","1","0.15625","161.625","30","31032","55","55","55","08/18/17 14:33:25","Default description","yes","<openexp._canvas.legacy.legacy object at 0x049C27F0>","<openexp._canvas.legacy.legacy object at 0x049CD7B0>","<openexp._canvas.legacy.legacy object at 0x049BA410>","<openexp._canvas.legacy.legacy object at 0x04AB09D0>","<openexp._canvas.legacy.legacy object at 0x04A814B0>","<openexp._canvas.legacy.legacy object at 0x049BE390>","<openexp._canvas.legacy.legacy object at 0x04A82D30>","75","IndividualPriorityWithDis_v1.osexp","C:/Userdata/Michel/SpatialProb/IndividualPriorityMaps/Experiment2","no","mono","no","18","no","white","no","yes","0.09","98","1050","legacy","45","30","30","1","C:/Userdata/Michel/SpatialProb/IndividualPriorityMaps/Experiment2/data/subject-8.csv","legacy","9","192","25","Jazzy James","3.1.3","yes","598477b2b83f69022949e7e9","47","green","rectangular","red","rectangular","0","\","885","space","10468","10468","(80, 80, 80)","(0, 122, 0)","(179, 0, 0)","(155, 155, 155)","2","legacy","experiment","[7, 0, 1, 2, 3, 4, 5, 6]","\","2500","3000","0","8","252.758751519","1024","2","48000","-16","main","[(0, -252), (178, -178), (252, 0), (178, 178), (0, 252), (-178, 178), (-252, 0), (-178, -178)]","[]","8","even","2","5161965","5211718","5211718","5072821","5071814","1590","5090945","5090945","1590","1591","5083290","5283225","1588","5211718","5282336","5281609","5281609","NA","721","study_X","0","10468","1","yes","1680"
"undefined","undefined","10468","10468","black","no","legacy","legacy","legacy","0","green","(0, 122, 0)","shape","present","highProb","circular","same","swap","swap","same","green","(0, 122, 0)","lowProb","lowProb2","rectangular","uniform","1","undefined","0.161458333333","1","1","166.609375","1","31","31989","0","0","0","0","0","0","0","0","56","0","1","0.161458333333","166.609375","31","31989","56","56","56","08/18/17 14:33:25","Default description","yes","<openexp._canvas.legacy.legacy object at 0x049C27F0>","<openexp._canvas.legacy.legacy object at 0x049CD7B0>","<openexp._canvas.legacy.legacy object at 0x049BA410>","<openexp._canvas.legacy.legacy object at 0x04AB09D0>","<openexp._canvas.legacy.legacy object at 0x04A814B0>","<openexp._canvas.legacy.legacy object at 0x049D2070>","<openexp._canvas.legacy.legacy object at 0x04A82D30>","75","IndividualPriorityWithDis_v1.osexp","C:/Userdata/Michel/SpatialProb/IndividualPriorityMaps/Experiment2","no","mono","no","18","no","white","no","yes","0.09","98","1050","legacy","315","31","31","1","C:/Userdata/Michel/SpatialProb/IndividualPriorityMaps/Experiment2/data/subject-8.csv","legacy","9","192","25","Jazzy James","3.1.3","yes","598477b2b83f69022949e7e9","47","green","circular","green","rectangular","0","/","957","space","10468","10468","(80, 80, 80)","(0, 122, 0)","(179, 0, 0)","(155, 155, 155)","2","legacy","experiment","[7, 0, 1, 2, 3, 4, 5, 6]","/","2500","3000","0","8","252.758751519","1024","2","48000","-16","main","[(0, -252), (178, -178), (252, 0), (178, 178), (0, 252), (-178, 178), (-252, 0), (-178, -178)]","[]","8","even","1","5161965","5211718","5211718","5072821","5071814","1590","5090945","5090945","1590","1591","5083290","5285321","1588","5211718","5284360","5283633","5283633","NA","721","study_X","0","10468","1","yes","1680"
"undefined","undefined","10468","10468","black","no","legacy","legacy","legacy","0","red","(179, 0, 0)","shape","present","highProb","rectangular","swap","swap","swap","swap","red","(179, 0, 0)","highProbColor","highProbColor","circular","uniform","1","undefined","0.166666666667","1","1","170.645833333","1","32","32764","0","0","0","0","0","0","0","0","57","0","1","0.166666666667","170.645833333","32","32764","57","57","57","08/18/17 14:33:25","Default description","yes","<openexp._canvas.legacy.legacy object at 0x049C27F0>","<openexp._canvas.legacy.legacy object at 0x049CD7B0>","<openexp._canvas.legacy.legacy object at 0x049BA410>","<openexp._canvas.legacy.legacy object at 0x04AB09D0>","<openexp._canvas.legacy.legacy object at 0x04A814B0>","<openexp._canvas.legacy.legacy object at 0x049BFF50>","<openexp._canvas.legacy.legacy object at 0x04A82D30>","75","IndividualPriorityWithDis_v1.osexp","C:/Userdata/Michel/SpatialProb/IndividualPriorityMaps/Experiment2","no","mono","no","18","no","white","no","yes","0.09","98","1050","legacy","315","32","32","1","C:/Userdata/Michel/SpatialProb/IndividualPriorityMaps/Experiment2/data/subject-8.csv","legacy","9","192","25","Jazzy James","3.1.3","yes","598477b2b83f69022949e7e9","47","red","rectangular","red","circular","0","/","775","space","10468","10468","(80, 80, 80)","(0, 122, 0)","(179, 0, 0)","(155, 155, 155)","2","legacy","experiment","[7, 0, 1, 2, 3, 4, 5, 6]","/","2500","3000","0","8","252.758751519","1024","2","48000","-16","main","[(0, -252), (178, -178), (252, 0), (178, 178), (0, 252), (-178, 178), (-252, 0), (-178, -178)]","[]","8","even","7","5161965","5211718","5211718","5072821","5071814","1590","5090945","5090945","1590","1591","5083290","5287241","1588","5211718","5286462","5285735","5285735","NA","721","study_X","0","10468","1","yes","1680"
"undefined","undefined","10468","10468","black","no","legacy","legacy","legacy","0","red","(179, 0, 0)","shape","present","highProb","rectangular","same","same","same","same","red","(179, 0, 0)","lowProb","lowProb6","circular","uniform","1","undefined","0.171875","1","1","176.713541667","1","33","33929","0","0","0","0","0","0","0","0","58","0","1","0.171875","176.713541667","33","33929","58","58","58","08/18/17 14:33:25","Default description","yes","<openexp._canvas.legacy.legacy object at 0x049C27F0>","<openexp._canvas.legacy.legacy object at 0x049CD7B0>","<openexp._canvas.legacy.legacy object at 0x049BA410>","<openexp._canvas.legacy.legacy object at 0x04AB09D0>","<openexp._canvas.legacy.legacy object at 0x04A814B0>","<openexp._canvas.legacy.legacy object at 0x049D9450>","<openexp._canvas.legacy.legacy object at 0x04A82D30>","75","IndividualPriorityWithDis_v1.osexp","C:/Userdata/Michel/SpatialProb/IndividualPriorityMaps/Experiment2","no","mono","no","18","no","white","no","yes","0.09","98","1050","legacy","315","33","33","1","C:/Userdata/Michel/SpatialProb/IndividualPriorityMaps/Experiment2/data/subject-8.csv","legacy","9","192","25","Jazzy James","3.1.3","yes","598477b2b83f69022949e7e9","47","red","rectangular","red","circular","0","/","1165","space","10468","10468","(80, 80, 80)","(0, 122, 0)","(179, 0, 0)","(155, 155, 155)","2","legacy","experiment","[7, 0, 1, 2, 3, 4, 5, 6]","/","2500","3000","0","8","252.758751519","1024","2","48000","-16","main","[(0, -252), (178, -178), (252, 0), (178, 178), (0, 252), (-178, 178), (-252, 0), (-178, -178)]","[]","8","even","6","5161965","5211718","5211718","5072821","5071814","1590","5090945","5090945","1590","1591","5083290","5289568","1588","5211718","5288400","5287673","5287673","NA","721","study_X","0","10468","1","yes","1680"
"undefined","undefined","10468","10468","black","no","legacy","legacy","legacy","0","red","(179, 0, 0)","shape","present","highProb","circular","same","swap","same","swap","red","(179, 0, 0)","lowProb","lowProb1","rectangular","uniform","1","undefined","0.177083333333","1","1","182.182291667","1","34","34979","0","0","0","0","0","0","0","0","59","0","1","0.177083333333","182.182291667","34","34979","59","59","59","08/18/17 14:33:25","Default description","yes","<openexp._canvas.legacy.legacy object at 0x049C27F0>","<openexp._canvas.legacy.legacy object at 0x049CD7B0>","<openexp._canvas.legacy.legacy object at 0x049BA410>","<openexp._canvas.legacy.legacy object at 0x04AB09D0>","<openexp._canvas.legacy.legacy object at 0x04A814B0>","<openexp._canvas.legacy.legacy object at 0x049D2910>","<openexp._canvas.legacy.legacy object at 0x04A82D30>","75","IndividualPriorityWithDis_v1.osexp","C:/Userdata/Michel/SpatialProb/IndividualPriorityMaps/Experiment2","no","mono","no","18","no","white","no","yes","0.09","98","1050","legacy","45","34","34","1","C:/Userdata/Michel/SpatialProb/IndividualPriorityMaps/Experiment2/data/subject-8.csv","legacy","9","192","25","Jazzy James","3.1.3","yes","598477b2b83f69022949e7e9","47","red","circular","red","rectangular","0","\","1050","space","10468","10468","(80, 80, 80)","(0, 122, 0)","(179, 0, 0)","(155, 155, 155)","2","legacy","experiment","[7, 0, 1, 2, 3, 4, 5, 6]","\","2500","3000","0","8","252.758751519","1024","2","48000","-16","main","[(0, -252), (178, -178), (252, 0), (178, 178), (0, 252), (-178, 178), (-252, 0), (-178, -178)]","[]","8","even","0","5161965","5211718","5211718","5072821","5071814","1590","5090945","5090945","1590","1591","5083290","5291760","1588","5211718","5290707","5289980","5289980","NA","721","study_X","0","10468","1","yes","1680"
"undefined","undefined","10468","10468","black","no","legacy","legacy","legacy","0","red","(179, 0, 0)","shape","present","highProb","rectangular","same","swap","same","swap","red","(179, 0, 0)","lowProb","lowProb5","circular","uniform","1","undefined","0.182291666667","1","1","185.369791667","1","35","35591","0","0","0","0","0","0","0","0","60","0","1","0.182291666667","185.369791667","35","35591","60","60","60","08/18/17 14:33:25","Default description","yes","<openexp._canvas.legacy.legacy object at 0x049C27F0>","<openexp._canvas.legacy.legacy object at 0x049CD7B0>","<openexp._canvas.legacy.legacy object at 0x049BA410>","<openexp._canvas.legacy.legacy object at 0x04AB09D0>","<openexp._canvas.legacy.legacy object at 0x04A814B0>","<openexp._canvas.legacy.legacy object at 0x04AB1A50>","<openexp._canvas.legacy.legacy object at 0x04A82D30>","75","IndividualPriorityWithDis_v1.osexp","C:/Userdata/Michel/SpatialProb/IndividualPriorityMaps/Experiment2","no","mono","no","18","no","white","no","yes","0.09","98","1050","legacy","45","35","35","1","C:/Userdata/Michel/SpatialProb/IndividualPriorityMaps/Experiment2/data/subject-8.csv","legacy","9","192","25","Jazzy James","3.1.3","yes","598477b2b83f69022949e7e9","47","red","rectangular","red","circular","0","\","612","space","10468","10468","(80, 80, 80)","(0, 122, 0)","(179, 0, 0)","(155, 155, 155)","2","legacy","experiment","[7, 0, 1, 2, 3, 4, 5, 6]","\","2500","3000","0","8","252.758751519","1024","2","48000","-16","main","[(0, -252), (178, -178), (252, 0), (178, 178), (0, 252), (-178, 178), (-252, 0), (-178, -178)]","[]","8","even","5","5161965","5211718","5211718","5072821","5071814","1590","5090945","5090945","1590","1591","5083290","5293504","1588","5211718","5292889","5292163","5292163","NA","721","study_X","0","10468","1","yes","1680"
"undefined","undefined","10468","10468","black","no","legacy","legacy","legacy","0","red","(179, 0, 0)","color","present","highProb","circular","same","swap","swap","same","green","(0, 122, 0)","lowProb","lowProb2","circular","uniform","1","undefined","0.1875","1","1","193.208333333","1","36","37096","0","0","0","0","0","0","0","0","61","0","1","0.1875","193.208333333","36","37096","61","61","61","08/18/17 14:33:25","Default description","yes","<openexp._canvas.legacy.legacy object at 0x049C27F0>","<openexp._canvas.legacy.legacy object at 0x049CD7B0>","<openexp._canvas.legacy.legacy object at 0x049BA410>","<openexp._canvas.legacy.legacy object at 0x04AB09D0>","<openexp._canvas.legacy.legacy object at 0x04A814B0>","<openexp._canvas.legacy.legacy object at 0x049C24D0>","<openexp._canvas.legacy.legacy object at 0x04A82D30>","75","IndividualPriorityWithDis_v1.osexp","C:/Userdata/Michel/SpatialProb/IndividualPriorityMaps/Experiment2","no","mono","no","18","no","white","no","yes","0.09","98","1050","legacy","315","36","36","1","C:/Userdata/Michel/SpatialProb/IndividualPriorityMaps/Experiment2/data/subject-8.csv","legacy","9","192","25","Jazzy James","3.1.3","yes","598477b2b83f69022949e7e9","47","red","circular","green","circular","0","/","1505","space","10468","10468","(80, 80, 80)","(0, 122, 0)","(179, 0, 0)","(155, 155, 155)","2","legacy","experiment","[7, 0, 1, 2, 3, 4, 5, 6]","/","2500","3000","0","8","252.758751519","1024","2","48000","-16","main","[(0, -252), (178, -178), (252, 0), (178, 178), (0, 252), (-178, 178), (-252, 0), (-178, -178)]","[]","8","even","1","5161965","5211718","5211718","5072821","5071814","1590","5090945","5090945","1590","1591","5083290","5296144","1588","5211718","5294636","5293909","5293909","NA","721","study_X","0","10468","1","yes","1680"
"undefined","undefined","10468","10468","black","no","legacy","legacy","legacy","0","green","(0, 122, 0)","shape","present","highProb","rectangular","swap","swap","same","same","green","(0, 122, 0)","lowProb","lowProb2","circular","uniform","1","undefined","0.192708333333","1","1","201.458333333","1","37","38680","0","0","0","0","0","0","0","0","62","0","1","0.192708333333","201.458333333","37","38680","62","62","62","08/18/17 14:33:25","Default description","yes","<openexp._canvas.legacy.legacy object at 0x049C27F0>","<openexp._canvas.legacy.legacy object at 0x049CD7B0>","<openexp._canvas.legacy.legacy object at 0x049BA410>","<openexp._canvas.legacy.legacy object at 0x04AB09D0>","<openexp._canvas.legacy.legacy object at 0x04A814B0>","<openexp._canvas.legacy.legacy object at 0x049C97B0>","<openexp._canvas.legacy.legacy object at 0x04A82D30>","75","IndividualPriorityWithDis_v1.osexp","C:/Userdata/Michel/SpatialProb/IndividualPriorityMaps/Experiment2","no","mono","no","18","no","white","no","yes","0.09","98","1050","legacy","45","37","37","1","C:/Userdata/Michel/SpatialProb/IndividualPriorityMaps/Experiment2/data/subject-8.csv","legacy","9","192","25","Jazzy James","3.1.3","yes","598477b2b83f69022949e7e9","47","green","rectangular","green","circular","0","\","1584","space","10468","10468","(80, 80, 80)","(0, 122, 0)","(179, 0, 0)","(155, 155, 155)","2","legacy","experiment","[7, 0, 1, 2, 3, 4, 5, 6]","\","2500","3000","0","8","252.758751519","1024","2","48000","-16","main","[(0, -252), (178, -178), (252, 0), (178, 178), (0, 252), (-178, 178), (-252, 0), (-178, -178)]","[]","8","even","1","5161965","5211718","5211718","5072821","5071814","1590","5090945","5090945","1590","1591","5083290","5298881","1588","5211718","5297293","5296566","5296566","NA","721","study_X","0","10468","1","yes","1680"
"undefined","undefined","10468","10468","black","no","legacy","legacy","legacy","0","green","(0, 122, 0)","shape","absent","lowProb4","circular","same","swap","same","same","green","(0, 122, 0)","lowProb","lowProb5","circular","uniform","1","undefined","0.197916666667","1","1","204.869791667","1","38","39335","0","0","0","0","0","0","0","0","63","0","1","0.197916666667","204.869791667","38","39335","63","63","63","08/18/17 14:33:25","Default description","yes","<openexp._canvas.legacy.legacy object at 0x049C27F0>","<openexp._canvas.legacy.legacy object at 0x049CD7B0>","<openexp._canvas.legacy.legacy object at 0x049BA410>","<openexp._canvas.legacy.legacy object at 0x04AB09D0>","<openexp._canvas.legacy.legacy object at 0x04A814B0>","<openexp._canvas.legacy.legacy object at 0x049D2AF0>","<openexp._canvas.legacy.legacy object at 0x04A82D30>","75","IndividualPriorityWithDis_v1.osexp","C:/Userdata/Michel/SpatialProb/IndividualPriorityMaps/Experiment2","no","mono","no","18","no","white","no","yes","0.09","98","1050","legacy","45","38","38","1","C:/Userdata/Michel/SpatialProb/IndividualPriorityMaps/Experiment2/data/subject-8.csv","legacy","9","192","25","Jazzy James","3.1.3","yes","598477b2b83f69022949e7e9","47","green","circular","green","circular","0","\","655","space","10468","10468","(80, 80, 80)","(0, 122, 0)","(179, 0, 0)","(155, 155, 155)","2","legacy","experiment","[7, 0, 1, 2, 3, 4, 5, 6]","\","2500","3000","0","8","252.758751519","1024","2","48000","-16","main","[(0, -252), (178, -178), (252, 0), (178, 178), (0, 252), (-178, 178), (-252, 0), (-178, -178)]","[]","8","even","5","5161965","5211718","5211718","5072821","5071814","1590","5090945","5090945","1590","1591","5083290","5300681","1588","5211718","5300023","5299296","5299296","NA","721","study_X","0","10468","1","yes","1680"
"undefined","undefined","10468","10468","black","no","legacy","legacy","legacy","0","green","(0, 122, 0)","shape","present","highProb","rectangular","same","swap","same","same","green","(0, 122, 0)","lowProb","lowProb6","circular","uniform","1","undefined","0.203125","1","1","211.661458333","1","39","40639","0","0","0","0","0","0","0","0","64","0","1","0.203125","211.661458333","39","40639","64","64","64","08/18/17 14:33:25","Default description","yes","<openexp._canvas.legacy.legacy object at 0x049C27F0>","<openexp._canvas.legacy.legacy object at 0x049CD7B0>","<openexp._canvas.legacy.legacy object at 0x049BA410>","<openexp._canvas.legacy.legacy object at 0x04AB09D0>","<openexp._canvas.legacy.legacy object at 0x04A814B0>","<openexp._canvas.legacy.legacy object at 0x04AABD50>","<openexp._canvas.legacy.legacy object at 0x04A82D30>","75","IndividualPriorityWithDis_v1.osexp","C:/Userdata/Michel/SpatialProb/IndividualPriorityMaps/Experiment2","no","mono","no","18","no","white","no","yes","0.09","98","1050","legacy","45","39","39","1","C:/Userdata/Michel/SpatialProb/IndividualPriorityMaps/Experiment2/data/subject-8.csv","legacy","9","192","25","Jazzy James","3.1.3","yes","598477b2b83f69022949e7e9","47","green","rectangular","green","circular","0","\","1304","space","10468","10468","(80, 80, 80)","(0, 122, 0)","(179, 0, 0)","(155, 155, 155)","2","legacy","experiment","[7, 0, 1, 2, 3, 4, 5, 6]","\","2500","3000","0","8","252.758751519","1024","2","48000","-16","main","[(0, -252), (178, -178), (252, 0), (178, 178), (0, 252), (-178, 178), (-252, 0), (-178, -178)]","[]","8","even","6","5161965","5211718","5211718","5072821","5071814","1590","5090945","5090945","1590","1591","5083290","5303128","1588","5211718","5301821","5301094","5301094","NA","721","study_X","0","10468","1","yes","1680"
"undefined","undefined","10468","10468","black","no","legacy","legacy","legacy","0","red","(179, 0, 0)","shape","present","highProb","rectangular","swap","same","swap","same","red","(179, 0, 0)","lowProb","lowProb4","circular","uniform","1","undefined","0.208333333333","1","1","215.057291667","1","40","41291","0","0","0","0","0","0","0","0","65","0","1","0.208333333333","215.057291667","40","41291","65","65","65","08/18/17 14:33:25","Default description","yes","<openexp._canvas.legacy.legacy object at 0x049C27F0>","<openexp._canvas.legacy.legacy object at 0x049CD7B0>","<openexp._canvas.legacy.legacy object at 0x049BA410>","<openexp._canvas.legacy.legacy object at 0x04AB09D0>","<openexp._canvas.legacy.legacy object at 0x04A814B0>","<openexp._canvas.legacy.legacy object at 0x049BED50>","<openexp._canvas.legacy.legacy object at 0x04A82D30>","75","IndividualPriorityWithDis_v1.osexp","C:/Userdata/Michel/SpatialProb/IndividualPriorityMaps/Experiment2","no","mono","no","18","no","white","no","yes","0.09","98","1050","legacy","45","40","40","1","C:/Userdata/Michel/SpatialProb/IndividualPriorityMaps/Experiment2/data/subject-8.csv","legacy","9","192","25","Jazzy James","3.1.3","yes","598477b2b83f69022949e7e9","47","red","rectangular","red","circular","0","\","652","space","10468","10468","(80, 80, 80)","(0, 122, 0)","(179, 0, 0)","(155, 155, 155)","2","legacy","experiment","[7, 0, 1, 2, 3, 4, 5, 6]","\","2500","3000","0","8","252.758751519","1024","2","48000","-16","main","[(0, -252), (178, -178), (252, 0), (178, 178), (0, 252), (-178, 178), (-252, 0), (-178, -178)]","[]","8","even","4","5161965","5211718","5211718","5072821","5071814","1590","5090945","5090945","1590","1591","5083290","5304928","1588","5211718","5304273","5303547","5303547","NA","721","study_X","0","10468","1","yes","1680"
"undefined","undefined","10468","10468","black","no","legacy","legacy","legacy","0","red","(179, 0, 0)","shape","present","highProb","circular","same","swap","same","swap","red","(179, 0, 0)","lowProb","lowProb5","rectangular","uniform","1","undefined","0.213541666667","1","1","221.729166667","1","41","42572","0","0","0","0","0","0","0","0","66","0","1","0.213541666667","221.729166667","41","42572","66","66","66","08/18/17 14:33:25","Default description","yes","<openexp._canvas.legacy.legacy object at 0x049C27F0>","<openexp._canvas.legacy.legacy object at 0x049CD7B0>","<openexp._canvas.legacy.legacy object at 0x049BA410>","<openexp._canvas.legacy.legacy object at 0x04AB09D0>","<openexp._canvas.legacy.legacy object at 0x04A814B0>","<openexp._canvas.legacy.legacy object at 0x04AABB30>","<openexp._canvas.legacy.legacy object at 0x04A82D30>","75","IndividualPriorityWithDis_v1.osexp","C:/Userdata/Michel/SpatialProb/IndividualPriorityMaps/Experiment2","no","mono","no","18","no","white","no","yes","0.09","98","1050","legacy","45","41","41","1","C:/Userdata/Michel/SpatialProb/IndividualPriorityMaps/Experiment2/data/subject-8.csv","legacy","9","192","25","Jazzy James","3.1.3","yes","598477b2b83f69022949e7e9","47","red","circular","red","rectangular","0","\","1281","space","10468","10468","(80, 80, 80)","(0, 122, 0)","(179, 0, 0)","(155, 155, 155)","2","legacy","experiment","[7, 0, 1, 2, 3, 4, 5, 6]","\","2500","3000","0","8","252.758751519","1024","2","48000","-16","main","[(0, -252), (178, -178), (252, 0), (178, 178), (0, 252), (-178, 178), (-252, 0), (-178, -178)]","[]","8","even","5","5161965","5211718","5211718","5072821","5071814","1590","5090945","5090945","1590","1591","5083290","5307344","1588","5211718","5306060","5305333","5305333","NA","721","study_X","0","10468","1","yes","1680"
"undefined","undefined","10468","10468","black","no","legacy","legacy","legacy","0","red","(179, 0, 0)","color","absent","lowProb4","circular","same","same","same","swap","red","(179, 0, 0)","lowProb","lowProb2","circular","uniform","1","undefined","0.21875","1","1","225.46875","1","42","43290","0","0","0","0","0","0","0","0","67","0","1","0.21875","225.46875","42","43290","67","67","67","08/18/17 14:33:25","Default description","yes","<openexp._canvas.legacy.legacy object at 0x049C27F0>","<openexp._canvas.legacy.legacy object at 0x049CD7B0>","<openexp._canvas.legacy.legacy object at 0x049BA410>","<openexp._canvas.legacy.legacy object at 0x04AB09D0>","<openexp._canvas.legacy.legacy object at 0x04A814B0>","<openexp._canvas.legacy.legacy object at 0x04AABE70>","<openexp._canvas.legacy.legacy object at 0x04A82D30>","75","IndividualPriorityWithDis_v1.osexp","C:/Userdata/Michel/SpatialProb/IndividualPriorityMaps/Experiment2","no","mono","no","18","no","white","no","yes","0.09","98","1050","legacy","315","42","42","1","C:/Userdata/Michel/SpatialProb/IndividualPriorityMaps/Experiment2/data/subject-8.csv","legacy","9","192","25","Jazzy James","3.1.3","yes","598477b2b83f69022949e7e9","47","red","circular","red","circular","0","/","718","space","10468","10468","(80, 80, 80)","(0, 122, 0)","(179, 0, 0)","(155, 155, 155)","2","legacy","experiment","[7, 0, 1, 2, 3, 4, 5, 6]","/","2500","3000","0","8","252.758751519","1024","2","48000","-16","main","[(0, -252), (178, -178), (252, 0), (178, 178), (0, 252), (-178, 178), (-252, 0), (-178, -178)]","[]","8","even","1","5161965","5211718","5211718","5072821","5071814","1590","5090945","5090945","1590","1591","5083290","5309208","1588","5211718","5308487","5307760","5307760","NA","721","study_X","0","10468","1","yes","1680"
"undefined","undefined","10468","10468","black","no","legacy","legacy","legacy","0","green","(0, 122, 0)","color","absent","lowProb1","circular","swap","same","swap","same","green","(0, 122, 0)","lowProb","lowProb2","circular","uniform","1","undefined","0.223958333333","1","1","229.151041667","1","43","43997","0","0","0","0","0","0","0","0","68","0","1","0.223958333333","229.151041667","43","43997","68","68","68","08/18/17 14:33:25","Default description","yes","<openexp._canvas.legacy.legacy object at 0x049C27F0>","<openexp._canvas.legacy.legacy object at 0x049CD7B0>","<openexp._canvas.legacy.legacy object at 0x049BA410>","<openexp._canvas.legacy.legacy object at 0x04AB09D0>","<openexp._canvas.legacy.legacy object at 0x04A814B0>","<openexp._canvas.legacy.legacy object at 0x049D2270>","<openexp._canvas.legacy.legacy object at 0x04A82D30>","75","IndividualPriorityWithDis_v1.osexp","C:/Userdata/Michel/SpatialProb/IndividualPriorityMaps/Experiment2","no","mono","no","18","no","white","no","yes","0.09","98","1050","legacy","45","43","43","1","C:/Userdata/Michel/SpatialProb/IndividualPriorityMaps/Experiment2/data/subject-8.csv","legacy","9","192","25","Jazzy James","3.1.3","yes","598477b2b83f69022949e7e9","47","green","circular","green","circular","0","\","707","space","10468","10468","(80, 80, 80)","(0, 122, 0)","(179, 0, 0)","(155, 155, 155)","2","legacy","experiment","[7, 0, 1, 2, 3, 4, 5, 6]","\","2500","3000","0","8","252.758751519","1024","2","48000","-16","main","[(0, -252), (178, -178), (252, 0), (178, 178), (0, 252), (-178, 178), (-252, 0), (-178, -178)]","[]","8","even","1","5161965","5211718","5211718","5072821","5071814","1590","5090945","5090945","1590","1591","5083290","5311064","1588","5211718","5310354","5309628","5309628","NA","721","study_X","0","10468","1","yes","1680"
"undefined","undefined","10468","10468","black","no","legacy","legacy","legacy","0","green","(0, 122, 0)","shape","present","lowProb2","circular","same","same","same","swap","green","(0, 122, 0)","lowProb","lowProb3","rectangular","uniform","1","undefined","0.229166666667","1","1","235.458333333","1","44","45208","0","0","0","0","0","0","0","0","69","0","1","0.229166666667","235.458333333","44","45208","69","69","69","08/18/17 14:33:25","Default description","yes","<openexp._canvas.legacy.legacy object at 0x049C27F0>","<openexp._canvas.legacy.legacy object at 0x049CD7B0>","<openexp._canvas.legacy.legacy object at 0x049BA410>","<openexp._canvas.legacy.legacy object at 0x04AB09D0>","<openexp._canvas.legacy.legacy object at 0x04A814B0>","<openexp._canvas.legacy.legacy object at 0x049BEE10>","<openexp._canvas.legacy.legacy object at 0x04A82D30>","75","IndividualPriorityWithDis_v1.osexp","C:/Userdata/Michel/SpatialProb/IndividualPriorityMaps/Experiment2","no","mono","no","18","no","white","no","yes","0.09","98","1050","legacy","315","44","44","1","C:/Userdata/Michel/SpatialProb/IndividualPriorityMaps/Experiment2/data/subject-8.csv","legacy","9","192","25","Jazzy James","3.1.3","yes","598477b2b83f69022949e7e9","47","green","circular","green","rectangular","0","/","1211","space","10468","10468","(80, 80, 80)","(0, 122, 0)","(179, 0, 0)","(155, 155, 155)","2","legacy","experiment","[7, 0, 1, 2, 3, 4, 5, 6]","/","2500","3000","0","8","252.758751519","1024","2","48000","-16","main","[(0, -252), (178, -178), (252, 0), (178, 178), (0, 252), (-178, 178), (-252, 0), (-178, -178)]","[]","8","even","2","5161965","5211718","5211718","5072821","5071814","1590","5090945","5090945","1590","1591","5083290","5313416","1588","5211718","5312201","5311474","5311474","NA","721","study_X","0","10468","1","yes","1680"
"undefined","undefined","10468","10468","black","no","legacy","legacy","legacy","0","green","(0, 122, 0)","shape","present","lowProb2","rectangular","same","swap","same","swap","green","(0, 122, 0)","lowProb","lowProb3","circular","uniform","1","undefined","0.234375","1","1","239.541666667","1","45","45992","0","0","0","0","0","0","0","0","70","0","1","0.234375","239.541666667","45","45992","70","70","70","08/18/17 14:33:25","Default description","yes","<openexp._canvas.legacy.legacy object at 0x049C27F0>","<openexp._canvas.legacy.legacy object at 0x049CD7B0>","<openexp._canvas.legacy.legacy object at 0x049BA410>","<openexp._canvas.legacy.legacy object at 0x04AB09D0>","<openexp._canvas.legacy.legacy object at 0x04A814B0>","<openexp._canvas.legacy.legacy object at 0x049D2270>","<openexp._canvas.legacy.legacy object at 0x04A82D30>","75","IndividualPriorityWithDis_v1.osexp","C:/Userdata/Michel/SpatialProb/IndividualPriorityMaps/Experiment2","no","mono","no","18","no","white","no","yes","0.09","98","1050","legacy","45","45","45","1","C:/Userdata/Michel/SpatialProb/IndividualPriorityMaps/Experiment2/data/subject-8.csv","legacy","9","192","25","Jazzy James","3.1.3","yes","598477b2b83f69022949e7e9","47","green","rectangular","green","circular","0","\","784","space","10468","10468","(80, 80, 80)","(0, 122, 0)","(179, 0, 0)","(155, 155, 155)","2","legacy","experiment","[7, 0, 1, 2, 3, 4, 5, 6]","\","2500","3000","0","8","252.758751519","1024","2","48000","-16","main","[(0, -252), (178, -178), (252, 0), (178, 178), (0, 252), (-178, 178), (-252, 0), (-178, -178)]","[]","8","even","2","5161965","5211718","5211718","5072821","5071814","1590","5090945","5090945","1590","1591","5083290","5315345","1588","5211718","5314557","5313830","5313830","NA","721","study_X","0","10468","1","yes","1680"
"undefined","undefined","10468","10468","black","no","legacy","legacy","legacy","0","green","(0, 122, 0)","color","present","highProb","rectangular","same","same","swap","swap","red","(179, 0, 0)","lowProb","lowProb5","rectangular","uniform","1","undefined","0.239583333333","1","1","244.15625","1","46","46878","0","0","0","0","0","0","0","0","71","0","1","0.239583333333","244.15625","46","46878","71","71","71","08/18/17 14:33:25","Default description","yes","<openexp._canvas.legacy.legacy object at 0x049C27F0>","<openexp._canvas.legacy.legacy object at 0x049CD7B0>","<openexp._canvas.legacy.legacy object at 0x049BA410>","<openexp._canvas.legacy.legacy object at 0x04AB09D0>","<openexp._canvas.legacy.legacy object at 0x04A814B0>","<openexp._canvas.legacy.legacy object at 0x049BA910>","<openexp._canvas.legacy.legacy object at 0x04A82D30>","75","IndividualPriorityWithDis_v1.osexp","C:/Userdata/Michel/SpatialProb/IndividualPriorityMaps/Experiment2","no","mono","no","18","no","white","no","yes","0.09","98","1050","legacy","315","46","46","1","C:/Userdata/Michel/SpatialProb/IndividualPriorityMaps/Experiment2/data/subject-8.csv","legacy","9","192","25","Jazzy James","3.1.3","yes","598477b2b83f69022949e7e9","47","green","rectangular","red","rectangular","0","/","886","space","10468","10468","(80, 80, 80)","(0, 122, 0)","(179, 0, 0)","(155, 155, 155)","2","legacy","experiment","[7, 0, 1, 2, 3, 4, 5, 6]","/","2500","3000","0","8","252.758751519","1024","2","48000","-16","main","[(0, -252), (178, -178), (252, 0), (178, 178), (0, 252), (-178, 178), (-252, 0), (-178, -178)]","[]","8","even","5","5161965","5211718","5211718","5072821","5071814","1590","5090945","5090945","1590","1591","5083290","5317369","1588","5211718","5316479","5315752","5315752","NA","721","study_X","0","10468","1","yes","1680"
"undefined","undefined","10468","10468","black","no","legacy","legacy","legacy","0","red","(179, 0, 0)","color","present","highProb","circular","swap","swap","swap","swap","green","(0, 122, 0)","lowProb","lowProb4","circular","uniform","1","undefined","0.244791666667","1","1","247.020833333","1","47","47428","0","0","0","0","0","0","0","0","72","0","1","0.244791666667","247.020833333","47","47428","72","72","72","08/18/17 14:33:25","Default description","yes","<openexp._canvas.legacy.legacy object at 0x049C27F0>","<openexp._canvas.legacy.legacy object at 0x049CD7B0>","<openexp._canvas.legacy.legacy object at 0x049BA410>","<openexp._canvas.legacy.legacy object at 0x04AB09D0>","<openexp._canvas.legacy.legacy object at 0x04A814B0>","<openexp._canvas.legacy.legacy object at 0x049D29B0>","<openexp._canvas.legacy.legacy object at 0x04A82D30>","75","IndividualPriorityWithDis_v1.osexp","C:/Userdata/Michel/SpatialProb/IndividualPriorityMaps/Experiment2","no","mono","no","18","no","white","no","yes","0.09","98","1050","legacy","315","47","47","1","C:/Userdata/Michel/SpatialProb/IndividualPriorityMaps/Experiment2/data/subject-8.csv","legacy","9","192","25","Jazzy James","3.1.3","yes","598477b2b83f69022949e7e9","47","red","circular","green","circular","0","/","550","space","10468","10468","(80, 80, 80)","(0, 122, 0)","(179, 0, 0)","(155, 155, 155)","2","legacy","experiment","[7, 0, 1, 2, 3, 4, 5, 6]","/","2500","3000","0","8","252.758751519","1024","2","48000","-16","main","[(0, -252), (178, -178), (252, 0), (178, 178), (0, 252), (-178, 178), (-252, 0), (-178, -178)]","[]","8","even","4","5161965","5211718","5211718","5072821","5071814","1590","5090945","5090945","1590","1591","5083290","5319056","1588","5211718","5318503","5317776","5317776","NA","721","study_X","0","10468","1","yes","1680"
"undefined","undefined","10468","10468","black","no","legacy","legacy","legacy","0","green","(0, 122, 0)","color","present","highProb","circular","swap","same","swap","same","red","(179, 0, 0)","lowProb","lowProb5","circular","uniform","0","undefined","0.244791666667","1","1","250.515625","1","47","48099","0","0","0","0","0","0","0","0","73","0","1","0.244791666667","250.515625","47","48099","73","73","73","08/18/17 14:33:25","Default description","yes","<openexp._canvas.legacy.legacy object at 0x049C27F0>","<openexp._canvas.legacy.legacy object at 0x049CD7B0>","<openexp._canvas.legacy.legacy object at 0x049BA410>","<openexp._canvas.legacy.legacy object at 0x04AB09D0>","<openexp._canvas.legacy.legacy object at 0x04A814B0>","<openexp._canvas.legacy.legacy object at 0x04AB1170>","<openexp._canvas.legacy.legacy object at 0x04A82D30>","75","IndividualPriorityWithDis_v1.osexp","C:/Userdata/Michel/SpatialProb/IndividualPriorityMaps/Experiment2","no","mono","no","18","no","white","no","yes","0.09","98","1050","legacy","315","48","48","1","C:/Userdata/Michel/SpatialProb/IndividualPriorityMaps/Experiment2/data/subject-8.csv","legacy","9","192","25","Jazzy James","3.1.3","yes","598477b2b83f69022949e7e9","47","green","circular","red","circular","0","\","671","space","10468","10468","(80, 80, 80)","(0, 122, 0)","(179, 0, 0)","(155, 155, 155)","2","legacy","experiment","[7, 0, 1, 2, 3, 4, 5, 6]","/","2500","3000","0","8","252.758751519","1024","2","48000","-16","main","[(0, -252), (178, -178), (252, 0), (178, 178), (0, 252), (-178, 178), (-252, 0), (-178, -178)]","[]","8","even","5","5161965","5211718","5211718","5072821","5071814","1590","5090945","5090945","1590","1591","5083290","5320872","1588","5211718","5320198","5319472","5319472","NA","721","study_X","0","10468","1","yes","1680"
"undefined","undefined","10468","10468","black","no","legacy","legacy","legacy","0","red","(179, 0, 0)","shape","absent","lowProb6","rectangular","swap","swap","same","swap","red","(179, 0, 0)","lowProb","lowProb2","rectangular","uniform","1","undefined","0.25","1","1","255.046875","1","48","48969","0","0","0","0","0","0","0","0","74","0","1","0.25","255.046875","48","48969","74","74","74","08/18/17 14:33:25","Default description","yes","<openexp._canvas.legacy.legacy object at 0x049C27F0>","<openexp._canvas.legacy.legacy object at 0x049CD7B0>","<openexp._canvas.legacy.legacy object at 0x049BA410>","<openexp._canvas.legacy.legacy object at 0x04AB09D0>","<openexp._canvas.legacy.legacy object at 0x04A814B0>","<openexp._canvas.legacy.legacy object at 0x049D9D50>","<openexp._canvas.legacy.legacy object at 0x04A82D30>","75","IndividualPriorityWithDis_v1.osexp","C:/Userdata/Michel/SpatialProb/IndividualPriorityMaps/Experiment2","no","mono","no","18","no","white","no","yes","0.09","98","1050","legacy","315","49","49","1","C:/Userdata/Michel/SpatialProb/IndividualPriorityMaps/Experiment2/data/subject-8.csv","legacy","9","192","25","Jazzy James","3.1.3","yes","598477b2b83f69022949e7e9","47","red","rectangular","red","rectangular","0","/","870","space","10468","10468","(80, 80, 80)","(0, 122, 0)","(179, 0, 0)","(155, 155, 155)","2","legacy","experiment","[7, 0, 1, 2, 3, 4, 5, 6]","/","2500","3000","0","8","252.758751519","1024","2","48000","-16","main","[(0, -252), (178, -178), (252, 0), (178, 178), (0, 252), (-178, 178), (-252, 0), (-178, -178)]","[]","8","even","1","5161965","5211718","5211718","5072821","5071814","1590","5090945","5090945","1590","1591","5083290","5322880","1588","5211718","5322007","5321280","5321280","NA","721","study_X","0","10468","1","yes","1680"
"undefined","undefined","10468","10468","black","no","legacy","legacy","legacy","0","red","(179, 0, 0)","color","present","highProb","rectangular","same","same","swap","same","green","(0, 122, 0)","lowProb","lowProb3","rectangular","uniform","1","undefined","0.255208333333","1","1","259.552083333","1","49","49834","0","0","0","0","0","0","0","0","75","0","1","0.255208333333","259.552083333","49","49834","75","75","75","08/18/17 14:33:25","Default description","yes","<openexp._canvas.legacy.legacy object at 0x049C27F0>","<openexp._canvas.legacy.legacy object at 0x049CD7B0>","<openexp._canvas.legacy.legacy object at 0x049BA410>","<openexp._canvas.legacy.legacy object at 0x04AB09D0>","<openexp._canvas.legacy.legacy object at 0x04A814B0>","<openexp._canvas.legacy.legacy object at 0x049C9CF0>","<openexp._canvas.legacy.legacy object at 0x04A82D30>","75","IndividualPriorityWithDis_v1.osexp","C:/Userdata/Michel/SpatialProb/IndividualPriorityMaps/Experiment2","no","mono","no","18","no","white","no","yes","0.09","98","1050","legacy","45","50","50","1","C:/Userdata/Michel/SpatialProb/IndividualPriorityMaps/Experiment2/data/subject-8.csv","legacy","9","192","25","Jazzy James","3.1.3","yes","598477b2b83f69022949e7e9","47","red","rectangular","green","rectangular","0","\","865","space","10468","10468","(80, 80, 80)","(0, 122, 0)","(179, 0, 0)","(155, 155, 155)","2","legacy","experiment","[7, 0, 1, 2, 3, 4, 5, 6]","\","2500","3000","0","8","252.758751519","1024","2","48000","-16","main","[(0, -252), (178, -178), (252, 0), (178, 178), (0, 252), (-178, 178), (-252, 0), (-178, -178)]","[]","8","even","2","5161965","5211718","5211718","5072821","5071814","1590","5090945","5090945","1590","1591","5083290","5324872","1588","5211718","5324004","5323277","5323277","NA","721","study_X","0","10468","1","yes","1680"
"undefined","undefined","10468","10468","black","no","legacy","legacy","legacy","0","green","(0, 122, 0)","shape","present","highProb","circular","swap","swap","same","same","green","(0, 122, 0)","lowProb","lowProb6","rectangular","uniform","1","undefined","0.260416666667","1","1","268.088541667","1","50","51473","0","0","0","0","0","0","0","0","76","0","1","0.260416666667","268.088541667","50","51473","76","76","76","08/18/17 14:33:25","Default description","yes","<openexp._canvas.legacy.legacy object at 0x049C27F0>","<openexp._canvas.legacy.legacy object at 0x049CD7B0>","<openexp._canvas.legacy.legacy object at 0x049BA410>","<openexp._canvas.legacy.legacy object at 0x04AB09D0>","<openexp._canvas.legacy.legacy object at 0x04A814B0>","<openexp._canvas.legacy.legacy object at 0x049CDE10>","<openexp._canvas.legacy.legacy object at 0x04A82D30>","75","IndividualPriorityWithDis_v1.osexp","C:/Userdata/Michel/SpatialProb/IndividualPriorityMaps/Experiment2","no","mono","no","18","no","white","no","yes","0.09","98","1050","legacy","315","51","51","1","C:/Userdata/Michel/SpatialProb/IndividualPriorityMaps/Experiment2/data/subject-8.csv","legacy","9","192","25","Jazzy James","3.1.3","yes","598477b2b83f69022949e7e9","47","green","circular","green","rectangular","0","/","1639","space","10468","10468","(80, 80, 80)","(0, 122, 0)","(179, 0, 0)","(155, 155, 155)","2","legacy","experiment","[7, 0, 1, 2, 3, 4, 5, 6]","/","2500","3000","0","8","252.758751519","1024","2","48000","-16","main","[(0, -252), (178, -178), (252, 0), (178, 178), (0, 252), (-178, 178), (-252, 0), (-178, -178)]","[]","8","even","6","5161965","5211718","5211718","5072821","5071814","1590","5090945","5090945","1590","1591","5083290","5327648","1588","5211718","5326006","5325279","5325280","NA","721","study_X","0","10468","1","yes","1680"
"undefined","undefined","10468","10468","black","no","legacy","legacy","legacy","0","red","(179, 0, 0)","color","present","highProb","circular","swap","same","same","swap","green","(0, 122, 0)","lowProb","lowProb4","circular","uniform","1","undefined","0.265625","1","1","271.536458333","1","51","52135","0","0","0","0","0","0","0","0","77","0","1","0.265625","271.536458333","51","52135","77","77","77","08/18/17 14:33:25","Default description","yes","<openexp._canvas.legacy.legacy object at 0x049C27F0>","<openexp._canvas.legacy.legacy object at 0x049CD7B0>","<openexp._canvas.legacy.legacy object at 0x049BA410>","<openexp._canvas.legacy.legacy object at 0x04AB09D0>","<openexp._canvas.legacy.legacy object at 0x04A814B0>","<openexp._canvas.legacy.legacy object at 0x049C90F0>","<openexp._canvas.legacy.legacy object at 0x04A82D30>","75","IndividualPriorityWithDis_v1.osexp","C:/Userdata/Michel/SpatialProb/IndividualPriorityMaps/Experiment2","no","mono","no","18","no","white","no","yes","0.09","98","1050","legacy","45","52","52","1","C:/Userdata/Michel/SpatialProb/IndividualPriorityMaps/Experiment2/data/subject-8.csv","legacy","9","192","25","Jazzy James","3.1.3","yes","598477b2b83f69022949e7e9","47","red","circular","green","circular","0","\","662","space","10468","10468","(80, 80, 80)","(0, 122, 0)","(179, 0, 0)","(155, 155, 155)","2","legacy","experiment","[7, 0, 1, 2, 3, 4, 5, 6]","\","2500","3000","0","8","252.758751519","1024","2","48000","-16","main","[(0, -252), (178, -178), (252, 0), (178, 178), (0, 252), (-178, 178), (-252, 0), (-178, -178)]","[]","8","even","4","5161965","5211718","5211718","5072821","5071814","1590","5090945","5090945","1590","1591","5083290","5329448","1588","5211718","5328782","5328055","5328055","NA","721","study_X","0","10468","1","yes","1680"
