"acc","accuracy","average_response_time","avg_rt","background","bidi","canvas_backend","clock_backend","color_backend","compensation","cond_disColor","cond_disColorRGB","cond_disFeature","cond_disPresent","cond_disProbability","cond_disShape","cond_primingDisColor","cond_primingDisShape","cond_primingTarColor","cond_primingTarShape","cond_tarColor","cond_tarColorRGB","cond_tarLocation","cond_tarLocationLong","cond_tarShape","coordinates","correct","correct_continuePress","count_blockAcc","count_blockFeed","count_blockLoop","count_blockRT","count_blockSeq","count_blockSumCorrect","count_blockSumRT","count_continuePress","count_example","count_expSettings","count_exp_mainLoop","count_experiment","count_instructions","count_instructions1","count_instructions2","count_log","count_main","count_prepCanvas","count_totalAcc","count_totalRT","count_totalSumCorrect","count_totalSumRT","count_trialResp","count_trialSeq","count_trialTask","datetime","description","disable_garbage_collection","dispBlank","dispBlockStart","dispFeedBlock","dispFix","dispInstructions","dispSearch","dispStartScreen","distance2screen","experiment_file","experiment_path","font_bold","font_family","font_italic","font_size","font_underline","foreground","form_clicks","fullscreen","gaborFreq","gaborSize","height","keyboard_backend","lineOriTar","live_row","live_row_blockLoop","live_row_exp_mainLoop","logfile","mouse_backend","noExpBlocks","noExpTrials","noPracTrials","opensesame_codename","opensesame_version","osf_always_upload_experiment","osf_id","physical_screensize","previousDisColor","previousDisShape","previousTarColor","previousTarShape","repeat_cycle","response","responseTime","response_continuePress","response_time","response_time_continuePress","rgb_gray","rgb_green","rgb_red","rgb_white","round_decimals","sampler_backend","set_blockType","set_counterPositions","set_respCorrect","set_respTimeoutExp","set_respTimeoutPrac","set_rotation","set_setSize","sizeImaginary","sound_buf_size","sound_channels","sound_freq","sound_sample_size","start","stimPositions","stimuli","subject_nr","subject_parity","tarIdx","time_blockFeed","time_blockLoop","time_blockSeq","time_continuePress","time_example","time_expSettings","time_exp_mainLoop","time_experiment","time_instructions","time_instructions1","time_instructions2","time_log","time_main","time_prepCanvas","time_trialResp","time_trialSeq","time_trialTask","timing_EEGwait","timing_fix","title","total_correct","total_response_time","total_responses","uniform_coordinates","width"
"undefined","undefined","11245","11245","black","no","legacy","legacy","legacy","0","red","(179, 0, 0)","shape","absent","highProbOther","rectangular","swap","swap","swap","same","red","(179, 0, 0)","lowProb","lowProb2","rectangular","uniform","1","undefined","0.00520833333333","1","1","7.10416666667","1","1","1364","0","0","0","0","0","0","0","0","25","0","1","0.00520833333333","7.10416666667","1","1364","25","25","25","08/17/17 10:36:55","Default description","yes","<openexp._canvas.legacy.legacy object at 0x047F27F0>","<openexp._canvas.legacy.legacy object at 0x047FE7B0>","<openexp._canvas.legacy.legacy object at 0x047EA510>","<openexp._canvas.legacy.legacy object at 0x048E09D0>","<openexp._canvas.legacy.legacy object at 0x048B14B0>","<openexp._canvas.legacy.legacy object at 0x047EE550>","<openexp._canvas.legacy.legacy object at 0x048B2BD0>","75","IndividualPriorityWithDis_v1.osexp","C:/Userdata/Michel/SpatialProb/IndividualPriorityMaps/Experiment2","no","mono","no","18","no","white","no","yes","0.09","98","1050","legacy","45","0","0","1","C:/Userdata/Michel/SpatialProb/IndividualPriorityMaps/Experiment2/data/subject-5.csv","legacy","9","192","25","Jazzy James","3.1.3","yes","598477b2b83f69022949e7e9","47","red","rectangular","red","rectangular","0","\","1364","space","11245","11245","(80, 80, 80)","(0, 122, 0)","(179, 0, 0)","(155, 155, 155)","2","legacy","experiment","[4, 5, 6, 7, 0, 1, 2, 3]","\","2500","3000","0","8","252.758751519","1024","2","48000","-16","main","[(0, -252), (178, -178), (252, 0), (178, 178), (0, 252), (-178, 178), (-252, 0), (-178, -178)]","[]","5","odd","6","1189207","1214679","1214678","1084318","1083311","1779","1111987","1111987","1779","1779","1095564","1222330","1778","1214679","1220963","1215062","1215062","NA","825","study_X","0","11245","1","yes","1680"
"undefined","undefined","11245","11245","black","no","legacy","legacy","legacy","0","red","(179, 0, 0)","shape","absent","lowProb1","circular","same","swap","same","swap","red","(179, 0, 0)","highProbColor","highProbColor","circular","uniform","1","undefined","0.0104166666667","1","1","13.75","1","2","2640","0","0","0","0","0","0","0","0","26","0","1","0.0104166666667","13.75","2","2640","26","26","26","08/17/17 10:36:55","Default description","yes","<openexp._canvas.legacy.legacy object at 0x047F27F0>","<openexp._canvas.legacy.legacy object at 0x047FE7B0>","<openexp._canvas.legacy.legacy object at 0x047EA510>","<openexp._canvas.legacy.legacy object at 0x048E09D0>","<openexp._canvas.legacy.legacy object at 0x048B14B0>","<openexp._canvas.legacy.legacy object at 0x047FEFB0>","<openexp._canvas.legacy.legacy object at 0x048B2BD0>","75","IndividualPriorityWithDis_v1.osexp","C:/Userdata/Michel/SpatialProb/IndividualPriorityMaps/Experiment2","no","mono","no","18","no","white","no","yes","0.09","98","1050","legacy","45","1","1","1","C:/Userdata/Michel/SpatialProb/IndividualPriorityMaps/Experiment2/data/subject-5.csv","legacy","9","192","25","Jazzy James","3.1.3","yes","598477b2b83f69022949e7e9","47","red","circular","red","circular","0","\","1276","space","11245","11245","(80, 80, 80)","(0, 122, 0)","(179, 0, 0)","(155, 155, 155)","2","legacy","experiment","[4, 5, 6, 7, 0, 1, 2, 3]","\","2500","3000","0","8","252.758751519","1024","2","48000","-16","main","[(0, -252), (178, -178), (252, 0), (178, 178), (0, 252), (-178, 178), (-252, 0), (-178, -178)]","[]","5","odd","4","1189207","1214679","1214678","1084318","1083311","1779","1111987","1111987","1779","1779","1095564","1224875","1778","1214679","1223596","1222765","1222765","NA","825","study_X","0","11245","1","yes","1680"
"undefined","undefined","11245","11245","black","no","legacy","legacy","legacy","0","green","(0, 122, 0)","color","present","highProb","rectangular","swap","swap","same","swap","red","(179, 0, 0)","lowProb","lowProb4","rectangular","uniform","1","undefined","0.015625","1","1","20.078125","1","3","3855","0","0","0","0","0","0","0","0","27","0","1","0.015625","20.078125","3","3855","27","27","27","08/17/17 10:36:55","Default description","yes","<openexp._canvas.legacy.legacy object at 0x047F27F0>","<openexp._canvas.legacy.legacy object at 0x047FE7B0>","<openexp._canvas.legacy.legacy object at 0x047EA510>","<openexp._canvas.legacy.legacy object at 0x048E09D0>","<openexp._canvas.legacy.legacy object at 0x048B14B0>","<openexp._canvas.legacy.legacy object at 0x047EF950>","<openexp._canvas.legacy.legacy object at 0x048B2BD0>","75","IndividualPriorityWithDis_v1.osexp","C:/Userdata/Michel/SpatialProb/IndividualPriorityMaps/Experiment2","no","mono","no","18","no","white","no","yes","0.09","98","1050","legacy","315","2","2","1","C:/Userdata/Michel/SpatialProb/IndividualPriorityMaps/Experiment2/data/subject-5.csv","legacy","9","192","25","Jazzy James","3.1.3","yes","598477b2b83f69022949e7e9","47","green","rectangular","red","rectangular","0","/","1215","space","11245","11245","(80, 80, 80)","(0, 122, 0)","(179, 0, 0)","(155, 155, 155)","2","legacy","experiment","[4, 5, 6, 7, 0, 1, 2, 3]","/","2500","3000","0","8","252.758751519","1024","2","48000","-16","main","[(0, -252), (178, -178), (252, 0), (178, 178), (0, 252), (-178, 178), (-252, 0), (-178, -178)]","[]","5","odd","1","1189207","1214679","1214678","1084318","1083311","1779","1111987","1111987","1779","1779","1095564","1227331","1778","1214679","1226113","1225283","1225283","NA","825","study_X","0","11245","1","yes","1680"
"undefined","undefined","11245","11245","black","no","legacy","legacy","legacy","0","green","(0, 122, 0)","shape","present","lowProb6","circular","same","swap","swap","same","green","(0, 122, 0)","highProbColor","highProbColor","rectangular","uniform","1","undefined","0.0208333333333","1","1","27.4270833333","1","4","5266","0","0","0","0","0","0","0","0","28","0","1","0.0208333333333","27.4270833333","4","5266","28","28","28","08/17/17 10:36:55","Default description","yes","<openexp._canvas.legacy.legacy object at 0x047F27F0>","<openexp._canvas.legacy.legacy object at 0x047FE7B0>","<openexp._canvas.legacy.legacy object at 0x047EA510>","<openexp._canvas.legacy.legacy object at 0x048E09D0>","<openexp._canvas.legacy.legacy object at 0x048B14B0>","<openexp._canvas.legacy.legacy object at 0x047EA250>","<openexp._canvas.legacy.legacy object at 0x048B2BD0>","75","IndividualPriorityWithDis_v1.osexp","C:/Userdata/Michel/SpatialProb/IndividualPriorityMaps/Experiment2","no","mono","no","18","no","white","no","yes","0.09","98","1050","legacy","315","3","3","1","C:/Userdata/Michel/SpatialProb/IndividualPriorityMaps/Experiment2/data/subject-5.csv","legacy","9","192","25","Jazzy James","3.1.3","yes","598477b2b83f69022949e7e9","47","green","circular","green","rectangular","0","/","1411","space","11245","11245","(80, 80, 80)","(0, 122, 0)","(179, 0, 0)","(155, 155, 155)","2","legacy","experiment","[4, 5, 6, 7, 0, 1, 2, 3]","/","2500","3000","0","8","252.758751519","1024","2","48000","-16","main","[(0, -252), (178, -178), (252, 0), (178, 178), (0, 252), (-178, 178), (-252, 0), (-178, -178)]","[]","5","odd","4","1189207","1214679","1214678","1084318","1083311","1779","1111987","1111987","1779","1779","1095564","1230011","1778","1214679","1228597","1227766","1227766","NA","825","study_X","0","11245","1","yes","1680"
"undefined","undefined","11245","11245","black","no","legacy","legacy","legacy","0","green","(0, 122, 0)","color","present","highProb","circular","same","same","swap","swap","red","(179, 0, 0)","lowProb","lowProb2","circular","uniform","1","undefined","0.0260416666667","1","1","31.9895833333","1","5","6142","0","0","0","0","0","0","0","0","29","0","1","0.0260416666667","31.9895833333","5","6142","29","29","29","08/17/17 10:36:55","Default description","yes","<openexp._canvas.legacy.legacy object at 0x047F27F0>","<openexp._canvas.legacy.legacy object at 0x047FE7B0>","<openexp._canvas.legacy.legacy object at 0x047EA510>","<openexp._canvas.legacy.legacy object at 0x048E09D0>","<openexp._canvas.legacy.legacy object at 0x048B14B0>","<openexp._canvas.legacy.legacy object at 0x047EFF50>","<openexp._canvas.legacy.legacy object at 0x048B2BD0>","75","IndividualPriorityWithDis_v1.osexp","C:/Userdata/Michel/SpatialProb/IndividualPriorityMaps/Experiment2","no","mono","no","18","no","white","no","yes","0.09","98","1050","legacy","315","4","4","1","C:/Userdata/Michel/SpatialProb/IndividualPriorityMaps/Experiment2/data/subject-5.csv","legacy","9","192","25","Jazzy James","3.1.3","yes","598477b2b83f69022949e7e9","47","green","circular","red","circular","0","/","876","space","11245","11245","(80, 80, 80)","(0, 122, 0)","(179, 0, 0)","(155, 155, 155)","2","legacy","experiment","[4, 5, 6, 7, 0, 1, 2, 3]","/","2500","3000","0","8","252.758751519","1024","2","48000","-16","main","[(0, -252), (178, -178), (252, 0), (178, 178), (0, 252), (-178, 178), (-252, 0), (-178, -178)]","[]","5","odd","6","1189207","1214679","1214678","1084318","1083311","1779","1111987","1111987","1779","1779","1095564","1232139","1778","1214679","1231260","1230429","1230429","NA","825","study_X","0","11245","1","yes","1680"
"undefined","undefined","11245","11245","black","no","legacy","legacy","legacy","0","red","(179, 0, 0)","color","absent","lowProb2","rectangular","swap","swap","same","swap","red","(179, 0, 0)","lowProb","lowProb4","rectangular","uniform","1","undefined","0.03125","1","1","37.7708333333","1","6","7252","0","0","0","0","0","0","0","0","30","0","1","0.03125","37.7708333333","6","7252","30","30","30","08/17/17 10:36:55","Default description","yes","<openexp._canvas.legacy.legacy object at 0x047F27F0>","<openexp._canvas.legacy.legacy object at 0x047FE7B0>","<openexp._canvas.legacy.legacy object at 0x047EA510>","<openexp._canvas.legacy.legacy object at 0x048E09D0>","<openexp._canvas.legacy.legacy object at 0x048B14B0>","<openexp._canvas.legacy.legacy object at 0x048E02B0>","<openexp._canvas.legacy.legacy object at 0x048B2BD0>","75","IndividualPriorityWithDis_v1.osexp","C:/Userdata/Michel/SpatialProb/IndividualPriorityMaps/Experiment2","no","mono","no","18","no","white","no","yes","0.09","98","1050","legacy","315","5","5","1","C:/Userdata/Michel/SpatialProb/IndividualPriorityMaps/Experiment2/data/subject-5.csv","legacy","9","192","25","Jazzy James","3.1.3","yes","598477b2b83f69022949e7e9","47","red","rectangular","red","rectangular","0","/","1110","space","11245","11245","(80, 80, 80)","(0, 122, 0)","(179, 0, 0)","(155, 155, 155)","2","legacy","experiment","[4, 5, 6, 7, 0, 1, 2, 3]","/","2500","3000","0","8","252.758751519","1024","2","48000","-16","main","[(0, -252), (178, -178), (252, 0), (178, 178), (0, 252), (-178, 178), (-252, 0), (-178, -178)]","[]","5","odd","1","1189207","1214679","1214678","1084318","1083311","1779","1111987","1111987","1779","1779","1095564","1234491","1778","1214679","1233377","1232546","1232547","NA","825","study_X","0","11245","1","yes","1680"
"undefined","undefined","11245","11245","black","no","legacy","legacy","legacy","0","red","(179, 0, 0)","color","present","lowProb5","rectangular","same","same","swap","same","green","(0, 122, 0)","lowProb","lowProb3","rectangular","uniform","1","undefined","0.0364583333333","1","1","42.578125","1","7","8175","0","0","0","0","0","0","0","0","31","0","1","0.0364583333333","42.578125","7","8175","31","31","31","08/17/17 10:36:55","Default description","yes","<openexp._canvas.legacy.legacy object at 0x047F27F0>","<openexp._canvas.legacy.legacy object at 0x047FE7B0>","<openexp._canvas.legacy.legacy object at 0x047EA510>","<openexp._canvas.legacy.legacy object at 0x048E09D0>","<openexp._canvas.legacy.legacy object at 0x048B14B0>","<openexp._canvas.legacy.legacy object at 0x047EAED0>","<openexp._canvas.legacy.legacy object at 0x048B2BD0>","75","IndividualPriorityWithDis_v1.osexp","C:/Userdata/Michel/SpatialProb/IndividualPriorityMaps/Experiment2","no","mono","no","18","no","white","no","yes","0.09","98","1050","legacy","45","6","6","1","C:/Userdata/Michel/SpatialProb/IndividualPriorityMaps/Experiment2/data/subject-5.csv","legacy","9","192","25","Jazzy James","3.1.3","yes","598477b2b83f69022949e7e9","47","red","rectangular","green","rectangular","0","\","923","space","11245","11245","(80, 80, 80)","(0, 122, 0)","(179, 0, 0)","(155, 155, 155)","2","legacy","experiment","[4, 5, 6, 7, 0, 1, 2, 3]","\","2500","3000","0","8","252.758751519","1024","2","48000","-16","main","[(0, -252), (178, -178), (252, 0), (178, 178), (0, 252), (-178, 178), (-252, 0), (-178, -178)]","[]","5","odd","7","1189207","1214679","1214678","1084318","1083311","1779","1111987","1111987","1779","1779","1095564","1236659","1778","1214679","1235732","1234901","1234901","NA","825","study_X","0","11245","1","yes","1680"
"undefined","undefined","11245","11245","black","no","legacy","legacy","legacy","0","green","(0, 122, 0)","shape","present","highProb","circular","swap","swap","same","same","green","(0, 122, 0)","lowProb","lowProb4","rectangular","uniform","1","undefined","0.0416666666667","1","1","48.4895833333","1","8","9310","0","0","0","0","0","0","0","0","32","0","1","0.0416666666667","48.4895833333","8","9310","32","32","32","08/17/17 10:36:55","Default description","yes","<openexp._canvas.legacy.legacy object at 0x047F27F0>","<openexp._canvas.legacy.legacy object at 0x047FE7B0>","<openexp._canvas.legacy.legacy object at 0x047EA510>","<openexp._canvas.legacy.legacy object at 0x048E09D0>","<openexp._canvas.legacy.legacy object at 0x048B14B0>","<openexp._canvas.legacy.legacy object at 0x047EE550>","<openexp._canvas.legacy.legacy object at 0x048B2BD0>","75","IndividualPriorityWithDis_v1.osexp","C:/Userdata/Michel/SpatialProb/IndividualPriorityMaps/Experiment2","no","mono","no","18","no","white","no","yes","0.09","98","1050","legacy","45","7","7","1","C:/Userdata/Michel/SpatialProb/IndividualPriorityMaps/Experiment2/data/subject-5.csv","legacy","9","192","25","Jazzy James","3.1.3","yes","598477b2b83f69022949e7e9","47","green","circular","green","rectangular","0","\","1135","space","11245","11245","(80, 80, 80)","(0, 122, 0)","(179, 0, 0)","(155, 155, 155)","2","legacy","experiment","[4, 5, 6, 7, 0, 1, 2, 3]","\","2500","3000","0","8","252.758751519","1024","2","48000","-16","main","[(0, -252), (178, -178), (252, 0), (178, 178), (0, 252), (-178, 178), (-252, 0), (-178, -178)]","[]","5","odd","1","1189207","1214679","1214678","1084318","1083311","1779","1111987","1111987","1779","1779","1095564","1239058","1778","1214679","1237921","1237090","1237090","NA","825","study_X","0","11245","1","yes","1680"
"undefined","undefined","11245","11245","black","no","legacy","legacy","legacy","0","red","(179, 0, 0)","color","present","highProb","rectangular","swap","swap","same","same","green","(0, 122, 0)","lowProb","lowProb2","rectangular","uniform","1","undefined","0.046875","1","1","53.9270833333","1","9","10354","0","0","0","0","0","0","0","0","33","0","1","0.046875","53.9270833333","9","10354","33","33","33","08/17/17 10:36:55","Default description","yes","<openexp._canvas.legacy.legacy object at 0x047F27F0>","<openexp._canvas.legacy.legacy object at 0x047FE7B0>","<openexp._canvas.legacy.legacy object at 0x047EA510>","<openexp._canvas.legacy.legacy object at 0x048E09D0>","<openexp._canvas.legacy.legacy object at 0x048B14B0>","<openexp._canvas.legacy.legacy object at 0x048E0AB0>","<openexp._canvas.legacy.legacy object at 0x048B2BD0>","75","IndividualPriorityWithDis_v1.osexp","C:/Userdata/Michel/SpatialProb/IndividualPriorityMaps/Experiment2","no","mono","no","18","no","white","no","yes","0.09","98","1050","legacy","45","8","8","1","C:/Userdata/Michel/SpatialProb/IndividualPriorityMaps/Experiment2/data/subject-5.csv","legacy","9","192","25","Jazzy James","3.1.3","yes","598477b2b83f69022949e7e9","47","red","rectangular","green","rectangular","0","\","1044","space","11245","11245","(80, 80, 80)","(0, 122, 0)","(179, 0, 0)","(155, 155, 155)","2","legacy","experiment","[4, 5, 6, 7, 0, 1, 2, 3]","\","2500","3000","0","8","252.758751519","1024","2","48000","-16","main","[(0, -252), (178, -178), (252, 0), (178, 178), (0, 252), (-178, 178), (-252, 0), (-178, -178)]","[]","5","odd","6","1189207","1214679","1214678","1084318","1083311","1779","1111987","1111987","1779","1779","1095564","1241339","1778","1214679","1240293","1239463","1239463","NA","825","study_X","0","11245","1","yes","1680"
"undefined","undefined","11245","11245","black","no","legacy","legacy","legacy","0","green","(0, 122, 0)","color","present","lowProb5","rectangular","swap","same","swap","same","red","(179, 0, 0)","highProbColor","highProbColor","rectangular","uniform","1","undefined","0.0520833333333","1","1","64.5572916667","1","10","12395","0","0","0","0","0","0","0","0","34","0","1","0.0520833333333","64.5572916667","10","12395","34","34","34","08/17/17 10:36:55","Default description","yes","<openexp._canvas.legacy.legacy object at 0x047F27F0>","<openexp._canvas.legacy.legacy object at 0x047FE7B0>","<openexp._canvas.legacy.legacy object at 0x047EA510>","<openexp._canvas.legacy.legacy object at 0x048E09D0>","<openexp._canvas.legacy.legacy object at 0x048B14B0>","<openexp._canvas.legacy.legacy object at 0x048E0250>","<openexp._canvas.legacy.legacy object at 0x048B2BD0>","75","IndividualPriorityWithDis_v1.osexp","C:/Userdata/Michel/SpatialProb/IndividualPriorityMaps/Experiment2","no","mono","no","18","no","white","no","yes","0.09","98","1050","legacy","315","9","9","1","C:/Userdata/Michel/SpatialProb/IndividualPriorityMaps/Experiment2/data/subject-5.csv","legacy","9","192","25","Jazzy James","3.1.3","yes","598477b2b83f69022949e7e9","47","green","rectangular","red","rectangular","0","/","2041","space","11245","11245","(80, 80, 80)","(0, 122, 0)","(179, 0, 0)","(155, 155, 155)","2","legacy","experiment","[4, 5, 6, 7, 0, 1, 2, 3]","/","2500","3000","0","8","252.758751519","1024","2","48000","-16","main","[(0, -252), (178, -178), (252, 0), (178, 178), (0, 252), (-178, 178), (-252, 0), (-178, -178)]","[]","5","odd","4","1189207","1214679","1214678","1084318","1083311","1779","1111987","1111987","1779","1779","1095564","1244643","1778","1214679","1242599","1241768","1241768","NA","825","study_X","0","11245","1","yes","1680"
"undefined","undefined","11245","11245","black","no","legacy","legacy","legacy","0","red","(179, 0, 0)","color","absent","lowProb3","circular","swap","swap","same","swap","red","(179, 0, 0)","lowProb","lowProb1","circular","uniform","1","undefined","0.0572916666667","1","1","75.8802083333","1","11","14569","0","0","0","0","0","0","0","0","35","0","1","0.0572916666667","75.8802083333","11","14569","35","35","35","08/17/17 10:36:55","Default description","yes","<openexp._canvas.legacy.legacy object at 0x047F27F0>","<openexp._canvas.legacy.legacy object at 0x047FE7B0>","<openexp._canvas.legacy.legacy object at 0x047EA510>","<openexp._canvas.legacy.legacy object at 0x048E09D0>","<openexp._canvas.legacy.legacy object at 0x048B14B0>","<openexp._canvas.legacy.legacy object at 0x047EA790>","<openexp._canvas.legacy.legacy object at 0x048B2BD0>","75","IndividualPriorityWithDis_v1.osexp","C:/Userdata/Michel/SpatialProb/IndividualPriorityMaps/Experiment2","no","mono","no","18","no","white","no","yes","0.09","98","1050","legacy","315","10","10","1","C:/Userdata/Michel/SpatialProb/IndividualPriorityMaps/Experiment2/data/subject-5.csv","legacy","9","192","25","Jazzy James","3.1.3","yes","598477b2b83f69022949e7e9","47","red","circular","red","circular","0","/","2174","space","11245","11245","(80, 80, 80)","(0, 122, 0)","(179, 0, 0)","(155, 155, 155)","2","legacy","experiment","[4, 5, 6, 7, 0, 1, 2, 3]","/","2500","3000","0","8","252.758751519","1024","2","48000","-16","main","[(0, -252), (178, -178), (252, 0), (178, 178), (0, 252), (-178, 178), (-252, 0), (-178, -178)]","[]","5","odd","5","1189207","1214679","1214678","1084318","1083311","1779","1111987","1111987","1779","1779","1095564","1248067","1778","1214679","1245889","1245058","1245058","NA","825","study_X","0","11245","1","yes","1680"
"undefined","undefined","11245","11245","black","no","legacy","legacy","legacy","0","red","(179, 0, 0)","color","present","lowProb4","rectangular","same","swap","swap","swap","green","(0, 122, 0)","highProbColor","highProbColor","rectangular","uniform","1","undefined","0.0625","1","1","82.53125","1","12","15846","0","0","0","0","0","0","0","0","36","0","1","0.0625","82.53125","12","15846","36","36","36","08/17/17 10:36:55","Default description","yes","<openexp._canvas.legacy.legacy object at 0x047F27F0>","<openexp._canvas.legacy.legacy object at 0x047FE7B0>","<openexp._canvas.legacy.legacy object at 0x047EA510>","<openexp._canvas.legacy.legacy object at 0x048E09D0>","<openexp._canvas.legacy.legacy object at 0x048B14B0>","<openexp._canvas.legacy.legacy object at 0x047EAC90>","<openexp._canvas.legacy.legacy object at 0x048B2BD0>","75","IndividualPriorityWithDis_v1.osexp","C:/Userdata/Michel/SpatialProb/IndividualPriorityMaps/Experiment2","no","mono","no","18","no","white","no","yes","0.09","98","1050","legacy","45","11","11","1","C:/Userdata/Michel/SpatialProb/IndividualPriorityMaps/Experiment2/data/subject-5.csv","legacy","9","192","25","Jazzy James","3.1.3","yes","598477b2b83f69022949e7e9","47","red","rectangular","green","rectangular","0","\","1277","space","11245","11245","(80, 80, 80)","(0, 122, 0)","(179, 0, 0)","(155, 155, 155)","2","legacy","experiment","[4, 5, 6, 7, 0, 1, 2, 3]","\","2500","3000","0","8","252.758751519","1024","2","48000","-16","main","[(0, -252), (178, -178), (252, 0), (178, 178), (0, 252), (-178, 178), (-252, 0), (-178, -178)]","[]","5","odd","4","1189207","1214679","1214678","1084318","1083311","1779","1111987","1111987","1779","1779","1095564","1250587","1778","1214679","1249306","1248475","1248476","NA","825","study_X","0","11245","1","yes","1680"
"undefined","undefined","11245","11245","black","no","legacy","legacy","legacy","0","red","(179, 0, 0)","shape","present","lowProb6","rectangular","same","same","swap","swap","red","(179, 0, 0)","lowProb","lowProb3","circular","uniform","1","undefined","0.0677083333333","1","1","93.234375","1","13","17901","0","0","0","0","0","0","0","0","37","0","1","0.0677083333333","93.234375","13","17901","37","37","37","08/17/17 10:36:55","Default description","yes","<openexp._canvas.legacy.legacy object at 0x047F27F0>","<openexp._canvas.legacy.legacy object at 0x047FE7B0>","<openexp._canvas.legacy.legacy object at 0x047EA510>","<openexp._canvas.legacy.legacy object at 0x048E09D0>","<openexp._canvas.legacy.legacy object at 0x048B14B0>","<openexp._canvas.legacy.legacy object at 0x048E08B0>","<openexp._canvas.legacy.legacy object at 0x048B2BD0>","75","IndividualPriorityWithDis_v1.osexp","C:/Userdata/Michel/SpatialProb/IndividualPriorityMaps/Experiment2","no","mono","no","18","no","white","no","yes","0.09","98","1050","legacy","315","12","12","1","C:/Userdata/Michel/SpatialProb/IndividualPriorityMaps/Experiment2/data/subject-5.csv","legacy","9","192","25","Jazzy James","3.1.3","yes","598477b2b83f69022949e7e9","47","red","rectangular","red","circular","0","/","2055","space","11245","11245","(80, 80, 80)","(0, 122, 0)","(179, 0, 0)","(155, 155, 155)","2","legacy","experiment","[4, 5, 6, 7, 0, 1, 2, 3]","/","2500","3000","0","8","252.758751519","1024","2","48000","-16","main","[(0, -252), (178, -178), (252, 0), (178, 178), (0, 252), (-178, 178), (-252, 0), (-178, -178)]","[]","5","odd","7","1189207","1214679","1214678","1084318","1083311","1779","1111987","1111987","1779","1779","1095564","1253898","1778","1214679","1251841","1251010","1251011","NA","825","study_X","0","11245","1","yes","1680"
"undefined","undefined","11245","11245","black","no","legacy","legacy","legacy","0","red","(179, 0, 0)","shape","present","lowProb2","rectangular","same","same","same","same","red","(179, 0, 0)","lowProb","lowProb3","circular","uniform","1","undefined","0.0729166666667","1","1","99.0364583333","1","14","19015","0","0","0","0","0","0","0","0","38","0","1","0.0729166666667","99.0364583333","14","19015","38","38","38","08/17/17 10:36:55","Default description","yes","<openexp._canvas.legacy.legacy object at 0x047F27F0>","<openexp._canvas.legacy.legacy object at 0x047FE7B0>","<openexp._canvas.legacy.legacy object at 0x047EA510>","<openexp._canvas.legacy.legacy object at 0x048E09D0>","<openexp._canvas.legacy.legacy object at 0x048B14B0>","<openexp._canvas.legacy.legacy object at 0x047FEE70>","<openexp._canvas.legacy.legacy object at 0x048B2BD0>","75","IndividualPriorityWithDis_v1.osexp","C:/Userdata/Michel/SpatialProb/IndividualPriorityMaps/Experiment2","no","mono","no","18","no","white","no","yes","0.09","98","1050","legacy","45","13","13","1","C:/Userdata/Michel/SpatialProb/IndividualPriorityMaps/Experiment2/data/subject-5.csv","legacy","9","192","25","Jazzy James","3.1.3","yes","598477b2b83f69022949e7e9","47","red","rectangular","red","circular","0","\","1114","space","11245","11245","(80, 80, 80)","(0, 122, 0)","(179, 0, 0)","(155, 155, 155)","2","legacy","experiment","[4, 5, 6, 7, 0, 1, 2, 3]","\","2500","3000","0","8","252.758751519","1024","2","48000","-16","main","[(0, -252), (178, -178), (252, 0), (178, 178), (0, 252), (-178, 178), (-252, 0), (-178, -178)]","[]","5","odd","7","1189207","1214679","1214678","1084318","1083311","1779","1111987","1111987","1779","1779","1095564","1256258","1778","1214679","1255142","1254311","1254311","NA","825","study_X","0","11245","1","yes","1680"
"undefined","undefined","11245","11245","black","no","legacy","legacy","legacy","0","red","(179, 0, 0)","color","present","highProb","circular","same","swap","swap","same","green","(0, 122, 0)","lowProb","lowProb4","circular","uniform","1","undefined","0.078125","1","1","103.401041667","1","15","19853","0","0","0","0","0","0","0","0","39","0","1","0.078125","103.401041667","15","19853","39","39","39","08/17/17 10:36:55","Default description","yes","<openexp._canvas.legacy.legacy object at 0x047F27F0>","<openexp._canvas.legacy.legacy object at 0x047FE7B0>","<openexp._canvas.legacy.legacy object at 0x047EA510>","<openexp._canvas.legacy.legacy object at 0x048E09D0>","<openexp._canvas.legacy.legacy object at 0x048B14B0>","<openexp._canvas.legacy.legacy object at 0x047EEE70>","<openexp._canvas.legacy.legacy object at 0x048B2BD0>","75","IndividualPriorityWithDis_v1.osexp","C:/Userdata/Michel/SpatialProb/IndividualPriorityMaps/Experiment2","no","mono","no","18","no","white","no","yes","0.09","98","1050","legacy","315","14","14","1","C:/Userdata/Michel/SpatialProb/IndividualPriorityMaps/Experiment2/data/subject-5.csv","legacy","9","192","25","Jazzy James","3.1.3","yes","598477b2b83f69022949e7e9","47","red","circular","green","circular","0","/","838","space","11245","11245","(80, 80, 80)","(0, 122, 0)","(179, 0, 0)","(155, 155, 155)","2","legacy","experiment","[4, 5, 6, 7, 0, 1, 2, 3]","/","2500","3000","0","8","252.758751519","1024","2","48000","-16","main","[(0, -252), (178, -178), (252, 0), (178, 178), (0, 252), (-178, 178), (-252, 0), (-178, -178)]","[]","5","odd","1","1189207","1214679","1214678","1084318","1083311","1779","1111987","1111987","1779","1779","1095564","1258346","1778","1214679","1257505","1256674","1256674","NA","825","study_X","0","11245","1","yes","1680"
"undefined","undefined","11245","11245","black","no","legacy","legacy","legacy","0","red","(179, 0, 0)","shape","present","highProb","circular","same","same","swap","swap","red","(179, 0, 0)","lowProb","lowProb1","rectangular","uniform","1","undefined","0.0833333333333","1","1","113.385416667","1","16","21770","0","0","0","0","0","0","0","0","40","0","1","0.0833333333333","113.385416667","16","21770","40","40","40","08/17/17 10:36:55","Default description","yes","<openexp._canvas.legacy.legacy object at 0x047F27F0>","<openexp._canvas.legacy.legacy object at 0x047FE7B0>","<openexp._canvas.legacy.legacy object at 0x047EA510>","<openexp._canvas.legacy.legacy object at 0x048E09D0>","<openexp._canvas.legacy.legacy object at 0x048B14B0>","<openexp._canvas.legacy.legacy object at 0x047EAF50>","<openexp._canvas.legacy.legacy object at 0x048B2BD0>","75","IndividualPriorityWithDis_v1.osexp","C:/Userdata/Michel/SpatialProb/IndividualPriorityMaps/Experiment2","no","mono","no","18","no","white","no","yes","0.09","98","1050","legacy","315","15","15","1","C:/Userdata/Michel/SpatialProb/IndividualPriorityMaps/Experiment2/data/subject-5.csv","legacy","9","192","25","Jazzy James","3.1.3","yes","598477b2b83f69022949e7e9","47","red","circular","red","rectangular","0","/","1917","space","11245","11245","(80, 80, 80)","(0, 122, 0)","(179, 0, 0)","(155, 155, 155)","2","legacy","experiment","[4, 5, 6, 7, 0, 1, 2, 3]","/","2500","3000","0","8","252.758751519","1024","2","48000","-16","main","[(0, -252), (178, -178), (252, 0), (178, 178), (0, 252), (-178, 178), (-252, 0), (-178, -178)]","[]","5","odd","5","1189207","1214679","1214678","1084318","1083311","1779","1111987","1111987","1779","1779","1095564","1261499","1778","1214679","1259580","1258749","1258750","NA","825","study_X","0","11245","1","yes","1680"
"undefined","undefined","11245","11245","black","no","legacy","legacy","legacy","0","green","(0, 122, 0)","shape","present","lowProb3","circular","swap","same","swap","same","green","(0, 122, 0)","highProbShape","highProbShape","rectangular","uniform","1","undefined","0.0885416666667","1","1","120.807291667","1","17","23195","0","0","0","0","0","0","0","0","41","0","1","0.0885416666667","120.807291667","17","23195","41","41","41","08/17/17 10:36:55","Default description","yes","<openexp._canvas.legacy.legacy object at 0x047F27F0>","<openexp._canvas.legacy.legacy object at 0x047FE7B0>","<openexp._canvas.legacy.legacy object at 0x047EA510>","<openexp._canvas.legacy.legacy object at 0x048E09D0>","<openexp._canvas.legacy.legacy object at 0x048B14B0>","<openexp._canvas.legacy.legacy object at 0x047EA6B0>","<openexp._canvas.legacy.legacy object at 0x048B2BD0>","75","IndividualPriorityWithDis_v1.osexp","C:/Userdata/Michel/SpatialProb/IndividualPriorityMaps/Experiment2","no","mono","no","18","no","white","no","yes","0.09","98","1050","legacy","315","16","16","1","C:/Userdata/Michel/SpatialProb/IndividualPriorityMaps/Experiment2/data/subject-5.csv","legacy","9","192","25","Jazzy James","3.1.3","yes","598477b2b83f69022949e7e9","47","green","circular","green","rectangular","0","/","1425","space","11245","11245","(80, 80, 80)","(0, 122, 0)","(179, 0, 0)","(155, 155, 155)","2","legacy","experiment","[4, 5, 6, 7, 0, 1, 2, 3]","/","2500","3000","0","8","252.758751519","1024","2","48000","-16","main","[(0, -252), (178, -178), (252, 0), (178, 178), (0, 252), (-178, 178), (-252, 0), (-178, -178)]","[]","5","odd","0","1189207","1214679","1214678","1084318","1083311","1779","1111987","1111987","1779","1779","1095564","1264163","1778","1214679","1262735","1261904","1261904","NA","825","study_X","0","11245","1","yes","1680"
"undefined","undefined","11245","11245","black","no","legacy","legacy","legacy","0","green","(0, 122, 0)","color","present","highProb","circular","same","same","swap","swap","red","(179, 0, 0)","highProbShape","highProbShape","circular","uniform","1","undefined","0.09375","1","1","126.098958333","1","18","24211","0","0","0","0","0","0","0","0","42","0","1","0.09375","126.098958333","18","24211","42","42","42","08/17/17 10:36:55","Default description","yes","<openexp._canvas.legacy.legacy object at 0x047F27F0>","<openexp._canvas.legacy.legacy object at 0x047FE7B0>","<openexp._canvas.legacy.legacy object at 0x047EA510>","<openexp._canvas.legacy.legacy object at 0x048E09D0>","<openexp._canvas.legacy.legacy object at 0x048B14B0>","<openexp._canvas.legacy.legacy object at 0x047FE950>","<openexp._canvas.legacy.legacy object at 0x048B2BD0>","75","IndividualPriorityWithDis_v1.osexp","C:/Userdata/Michel/SpatialProb/IndividualPriorityMaps/Experiment2","no","mono","no","18","no","white","no","yes","0.09","98","1050","legacy","45","17","17","1","C:/Userdata/Michel/SpatialProb/IndividualPriorityMaps/Experiment2/data/subject-5.csv","legacy","9","192","25","Jazzy James","3.1.3","yes","598477b2b83f69022949e7e9","47","green","circular","red","circular","0","\","1016","space","11245","11245","(80, 80, 80)","(0, 122, 0)","(179, 0, 0)","(155, 155, 155)","2","legacy","experiment","[4, 5, 6, 7, 0, 1, 2, 3]","\","2500","3000","0","8","252.758751519","1024","2","48000","-16","main","[(0, -252), (178, -178), (252, 0), (178, 178), (0, 252), (-178, 178), (-252, 0), (-178, -178)]","[]","5","odd","0","1189207","1214679","1214678","1084318","1083311","1779","1111987","1111987","1779","1779","1095564","1266427","1778","1214679","1265407","1264577","1264577","NA","825","study_X","0","11245","1","yes","1680"
"undefined","undefined","11245","11245","black","no","legacy","legacy","legacy","0","green","(0, 122, 0)","shape","present","highProb","rectangular","same","swap","swap","same","green","(0, 122, 0)","lowProb","lowProb2","circular","uniform","1","undefined","0.0989583333333","1","1","132.109375","1","19","25365","0","0","0","0","0","0","0","0","43","0","1","0.0989583333333","132.109375","19","25365","43","43","43","08/17/17 10:36:55","Default description","yes","<openexp._canvas.legacy.legacy object at 0x047F27F0>","<openexp._canvas.legacy.legacy object at 0x047FE7B0>","<openexp._canvas.legacy.legacy object at 0x047EA510>","<openexp._canvas.legacy.legacy object at 0x048E09D0>","<openexp._canvas.legacy.legacy object at 0x048B14B0>","<openexp._canvas.legacy.legacy object at 0x048E0250>","<openexp._canvas.legacy.legacy object at 0x048B2BD0>","75","IndividualPriorityWithDis_v1.osexp","C:/Userdata/Michel/SpatialProb/IndividualPriorityMaps/Experiment2","no","mono","no","18","no","white","no","yes","0.09","98","1050","legacy","315","18","18","1","C:/Userdata/Michel/SpatialProb/IndividualPriorityMaps/Experiment2/data/subject-5.csv","legacy","9","192","25","Jazzy James","3.1.3","yes","598477b2b83f69022949e7e9","47","green","rectangular","green","circular","0","/","1154","space","11245","11245","(80, 80, 80)","(0, 122, 0)","(179, 0, 0)","(155, 155, 155)","2","legacy","experiment","[4, 5, 6, 7, 0, 1, 2, 3]","/","2500","3000","0","8","252.758751519","1024","2","48000","-16","main","[(0, -252), (178, -178), (252, 0), (178, 178), (0, 252), (-178, 178), (-252, 0), (-178, -178)]","[]","5","odd","6","1189207","1214679","1214678","1084318","1083311","1779","1111987","1111987","1779","1779","1095564","1268843","1778","1214679","1267685","1266855","1266855","NA","825","study_X","0","11245","1","yes","1680"
"undefined","undefined","11245","11245","black","no","legacy","legacy","legacy","0","green","(0, 122, 0)","color","present","lowProb3","rectangular","same","same","swap","swap","red","(179, 0, 0)","highProbShape","highProbShape","rectangular","uniform","1","undefined","0.104166666667","1","1","142.359375","1","20","27333","0","0","0","0","0","0","0","0","44","0","1","0.104166666667","142.359375","20","27333","44","44","44","08/17/17 10:36:55","Default description","yes","<openexp._canvas.legacy.legacy object at 0x047F27F0>","<openexp._canvas.legacy.legacy object at 0x047FE7B0>","<openexp._canvas.legacy.legacy object at 0x047EA510>","<openexp._canvas.legacy.legacy object at 0x048E09D0>","<openexp._canvas.legacy.legacy object at 0x048B14B0>","<openexp._canvas.legacy.legacy object at 0x047FE9F0>","<openexp._canvas.legacy.legacy object at 0x048B2BD0>","75","IndividualPriorityWithDis_v1.osexp","C:/Userdata/Michel/SpatialProb/IndividualPriorityMaps/Experiment2","no","mono","no","18","no","white","no","yes","0.09","98","1050","legacy","45","19","19","1","C:/Userdata/Michel/SpatialProb/IndividualPriorityMaps/Experiment2/data/subject-5.csv","legacy","9","192","25","Jazzy James","3.1.3","yes","598477b2b83f69022949e7e9","47","green","rectangular","red","rectangular","0","\","1968","space","11245","11245","(80, 80, 80)","(0, 122, 0)","(179, 0, 0)","(155, 155, 155)","2","legacy","experiment","[4, 5, 6, 7, 0, 1, 2, 3]","\","2500","3000","0","8","252.758751519","1024","2","48000","-16","main","[(0, -252), (178, -178), (252, 0), (178, 178), (0, 252), (-178, 178), (-252, 0), (-178, -178)]","[]","5","odd","0","1189207","1214679","1214678","1084318","1083311","1779","1111987","1111987","1779","1779","1095564","1272058","1778","1214679","1270087","1269256","1269256","NA","825","study_X","0","11245","1","yes","1680"
"undefined","undefined","11245","11245","black","no","legacy","legacy","legacy","0","red","(179, 0, 0)","shape","present","lowProb4","circular","swap","swap","same","same","red","(179, 0, 0)","lowProb","lowProb1","rectangular","uniform","1","undefined","0.109375","1","1","153.390625","1","21","29451","0","0","0","0","0","0","0","0","45","0","1","0.109375","153.390625","21","29451","45","45","45","08/17/17 10:36:55","Default description","yes","<openexp._canvas.legacy.legacy object at 0x047F27F0>","<openexp._canvas.legacy.legacy object at 0x047FE7B0>","<openexp._canvas.legacy.legacy object at 0x047EA510>","<openexp._canvas.legacy.legacy object at 0x048E09D0>","<openexp._canvas.legacy.legacy object at 0x048B14B0>","<openexp._canvas.legacy.legacy object at 0x047EEC70>","<openexp._canvas.legacy.legacy object at 0x048B2BD0>","75","IndividualPriorityWithDis_v1.osexp","C:/Userdata/Michel/SpatialProb/IndividualPriorityMaps/Experiment2","no","mono","no","18","no","white","no","yes","0.09","98","1050","legacy","315","20","20","1","C:/Userdata/Michel/SpatialProb/IndividualPriorityMaps/Experiment2/data/subject-5.csv","legacy","9","192","25","Jazzy James","3.1.3","yes","598477b2b83f69022949e7e9","47","red","circular","red","rectangular","0","/","2118","space","11245","11245","(80, 80, 80)","(0, 122, 0)","(179, 0, 0)","(155, 155, 155)","2","legacy","experiment","[4, 5, 6, 7, 0, 1, 2, 3]","/","2500","3000","0","8","252.758751519","1024","2","48000","-16","main","[(0, -252), (178, -178), (252, 0), (178, 178), (0, 252), (-178, 178), (-252, 0), (-178, -178)]","[]","5","odd","5","1189207","1214679","1214678","1084318","1083311","1779","1111987","1111987","1779","1779","1095564","1275418","1778","1214679","1273297","1272467","1272468","NA","825","study_X","0","11245","1","yes","1680"
"undefined","undefined","11245","11245","black","no","legacy","legacy","legacy","0","green","(0, 122, 0)","color","present","lowProb5","rectangular","swap","swap","same","same","red","(179, 0, 0)","lowProb","lowProb3","rectangular","uniform","1","undefined","0.114583333333","1","1","158.260416667","1","22","30386","0","0","0","0","0","0","0","0","46","0","1","0.114583333333","158.260416667","22","30386","46","46","46","08/17/17 10:36:55","Default description","yes","<openexp._canvas.legacy.legacy object at 0x047F27F0>","<openexp._canvas.legacy.legacy object at 0x047FE7B0>","<openexp._canvas.legacy.legacy object at 0x047EA510>","<openexp._canvas.legacy.legacy object at 0x048E09D0>","<openexp._canvas.legacy.legacy object at 0x048B14B0>","<openexp._canvas.legacy.legacy object at 0x047F4750>","<openexp._canvas.legacy.legacy object at 0x048B2BD0>","75","IndividualPriorityWithDis_v1.osexp","C:/Userdata/Michel/SpatialProb/IndividualPriorityMaps/Experiment2","no","mono","no","18","no","white","no","yes","0.09","98","1050","legacy","315","21","21","1","C:/Userdata/Michel/SpatialProb/IndividualPriorityMaps/Experiment2/data/subject-5.csv","legacy","9","192","25","Jazzy James","3.1.3","yes","598477b2b83f69022949e7e9","47","green","rectangular","red","rectangular","0","/","935","space","11245","11245","(80, 80, 80)","(0, 122, 0)","(179, 0, 0)","(155, 155, 155)","2","legacy","experiment","[4, 5, 6, 7, 0, 1, 2, 3]","/","2500","3000","0","8","252.758751519","1024","2","48000","-16","main","[(0, -252), (178, -178), (252, 0), (178, 178), (0, 252), (-178, 178), (-252, 0), (-178, -178)]","[]","5","odd","7","1189207","1214679","1214678","1084318","1083311","1779","1111987","1111987","1779","1779","1095564","1277595","1778","1214679","1276657","1275826","1275826","NA","825","study_X","0","11245","1","yes","1680"
"undefined","undefined","11245","11245","black","no","legacy","legacy","legacy","0","red","(179, 0, 0)","shape","present","highProb","circular","swap","swap","same","same","red","(179, 0, 0)","lowProb","lowProb6","rectangular","uniform","0","undefined","0.114583333333","1","1","171.28125","1","22","32886","0","0","0","0","0","0","0","0","47","0","1","0.114583333333","171.28125","22","32886","47","47","47","08/17/17 10:36:55","Default description","yes","<openexp._canvas.legacy.legacy object at 0x047F27F0>","<openexp._canvas.legacy.legacy object at 0x047FE7B0>","<openexp._canvas.legacy.legacy object at 0x047EA510>","<openexp._canvas.legacy.legacy object at 0x048E09D0>","<openexp._canvas.legacy.legacy object at 0x048B14B0>","<openexp._canvas.legacy.legacy object at 0x048DBCF0>","<openexp._canvas.legacy.legacy object at 0x048B2BD0>","75","IndividualPriorityWithDis_v1.osexp","C:/Userdata/Michel/SpatialProb/IndividualPriorityMaps/Experiment2","no","mono","no","18","no","white","no","yes","0.09","98","1050","legacy","315","22","22","1","C:/Userdata/Michel/SpatialProb/IndividualPriorityMaps/Experiment2/data/subject-5.csv","legacy","9","192","25","Jazzy James","3.1.3","yes","598477b2b83f69022949e7e9","47","red","circular","red","rectangular","0","None","2500","space","11245","11245","(80, 80, 80)","(0, 122, 0)","(179, 0, 0)","(155, 155, 155)","2","legacy","experiment","[4, 5, 6, 7, 0, 1, 2, 3]","/","2500","3000","0","8","252.758751519","1024","2","48000","-16","main","[(0, -252), (178, -178), (252, 0), (178, 178), (0, 252), (-178, 178), (-252, 0), (-178, -178)]","[]","5","odd","3","1189207","1214679","1214678","1084318","1083311","1779","1111987","1111987","1779","1779","1095564","1281346","1778","1214679","1278844","1278013","1278013","NA","825","study_X","0","11245","1","yes","1680"
"undefined","undefined","11245","11245","black","no","legacy","legacy","legacy","0","green","(0, 122, 0)","color","absent","lowProb2","rectangular","swap","swap","swap","same","green","(0, 122, 0)","highProbColor","highProbColor","rectangular","uniform","1","undefined","0.119791666667","1","1","179.598958333","1","23","34483","0","0","0","0","0","0","0","0","48","0","1","0.119791666667","179.598958333","23","34483","48","48","48","08/17/17 10:36:55","Default description","yes","<openexp._canvas.legacy.legacy object at 0x047F27F0>","<openexp._canvas.legacy.legacy object at 0x047FE7B0>","<openexp._canvas.legacy.legacy object at 0x047EA510>","<openexp._canvas.legacy.legacy object at 0x048E09D0>","<openexp._canvas.legacy.legacy object at 0x048B14B0>","<openexp._canvas.legacy.legacy object at 0x047FE1B0>","<openexp._canvas.legacy.legacy object at 0x048B2BD0>","75","IndividualPriorityWithDis_v1.osexp","C:/Userdata/Michel/SpatialProb/IndividualPriorityMaps/Experiment2","no","mono","no","18","no","white","no","yes","0.09","98","1050","legacy","315","23","23","1","C:/Userdata/Michel/SpatialProb/IndividualPriorityMaps/Experiment2/data/subject-5.csv","legacy","9","192","25","Jazzy James","3.1.3","yes","598477b2b83f69022949e7e9","47","green","rectangular","green","rectangular","0","/","1597","space","11245","11245","(80, 80, 80)","(0, 122, 0)","(179, 0, 0)","(155, 155, 155)","2","legacy","experiment","[4, 5, 6, 7, 0, 1, 2, 3]","/","2500","3000","0","8","252.758751519","1024","2","48000","-16","main","[(0, -252), (178, -178), (252, 0), (178, 178), (0, 252), (-178, 178), (-252, 0), (-178, -178)]","[]","5","odd","4","1189207","1214679","1214678","1084318","1083311","1779","1111987","1111987","1779","1779","1095564","1284187","1778","1214679","1282586","1281755","1281755","NA","825","study_X","0","11245","1","yes","1680"
"undefined","undefined","11245","11245","black","no","legacy","legacy","legacy","0","red","(179, 0, 0)","color","absent","lowProb1","rectangular","swap","same","swap","same","red","(179, 0, 0)","lowProb","lowProb1","rectangular","uniform","1","undefined","0.125","1","1","184.53125","1","24","35430","0","0","0","0","0","0","0","0","49","0","1","0.125","184.53125","24","35430","49","49","49","08/17/17 10:36:55","Default description","yes","<openexp._canvas.legacy.legacy object at 0x047F27F0>","<openexp._canvas.legacy.legacy object at 0x047FE7B0>","<openexp._canvas.legacy.legacy object at 0x047EA510>","<openexp._canvas.legacy.legacy object at 0x048E09D0>","<openexp._canvas.legacy.legacy object at 0x048B14B0>","<openexp._canvas.legacy.legacy object at 0x048DBE50>","<openexp._canvas.legacy.legacy object at 0x048B2BD0>","75","IndividualPriorityWithDis_v1.osexp","C:/Userdata/Michel/SpatialProb/IndividualPriorityMaps/Experiment2","no","mono","no","18","no","white","no","yes","0.09","98","1050","legacy","45","24","24","1","C:/Userdata/Michel/SpatialProb/IndividualPriorityMaps/Experiment2/data/subject-5.csv","legacy","9","192","25","Jazzy James","3.1.3","yes","598477b2b83f69022949e7e9","47","red","rectangular","red","rectangular","0","\","947","space","11245","11245","(80, 80, 80)","(0, 122, 0)","(179, 0, 0)","(155, 155, 155)","2","legacy","experiment","[4, 5, 6, 7, 0, 1, 2, 3]","\","2500","3000","0","8","252.758751519","1024","2","48000","-16","main","[(0, -252), (178, -178), (252, 0), (178, 178), (0, 252), (-178, 178), (-252, 0), (-178, -178)]","[]","5","odd","5","1189207","1214679","1214678","1084318","1083311","1779","1111987","1111987","1779","1779","1095564","1286370","1778","1214679","1285420","1284589","1284589","NA","825","study_X","0","11245","1","yes","1680"
"undefined","undefined","11245","11245","black","no","legacy","legacy","legacy","0","green","(0, 122, 0)","color","present","lowProb2","circular","swap","swap","same","swap","red","(179, 0, 0)","lowProb","lowProb5","circular","uniform","1","undefined","0.130208333333","1","1","191.203125","1","25","36711","0","0","0","0","0","0","0","0","50","0","1","0.130208333333","191.203125","25","36711","50","50","50","08/17/17 10:36:55","Default description","yes","<openexp._canvas.legacy.legacy object at 0x047F27F0>","<openexp._canvas.legacy.legacy object at 0x047FE7B0>","<openexp._canvas.legacy.legacy object at 0x047EA510>","<openexp._canvas.legacy.legacy object at 0x048E09D0>","<openexp._canvas.legacy.legacy object at 0x048B14B0>","<openexp._canvas.legacy.legacy object at 0x048E1DD0>","<openexp._canvas.legacy.legacy object at 0x048B2BD0>","75","IndividualPriorityWithDis_v1.osexp","C:/Userdata/Michel/SpatialProb/IndividualPriorityMaps/Experiment2","no","mono","no","18","no","white","no","yes","0.09","98","1050","legacy","315","25","25","1","C:/Userdata/Michel/SpatialProb/IndividualPriorityMaps/Experiment2/data/subject-5.csv","legacy","9","192","25","Jazzy James","3.1.3","yes","598477b2b83f69022949e7e9","47","green","circular","red","circular","0","/","1281","space","11245","11245","(80, 80, 80)","(0, 122, 0)","(179, 0, 0)","(155, 155, 155)","2","legacy","experiment","[4, 5, 6, 7, 0, 1, 2, 3]","/","2500","3000","0","8","252.758751519","1024","2","48000","-16","main","[(0, -252), (178, -178), (252, 0), (178, 178), (0, 252), (-178, 178), (-252, 0), (-178, -178)]","[]","5","odd","2","1189207","1214679","1214678","1084318","1083311","1779","1111987","1111987","1779","1779","1095564","1288898","1778","1214679","1287614","1286783","1286784","NA","825","study_X","0","11245","1","yes","1680"
"undefined","undefined","11245","11245","black","no","legacy","legacy","legacy","0","green","(0, 122, 0)","shape","present","highProb","circular","same","same","swap","swap","green","(0, 122, 0)","lowProb","lowProb5","rectangular","uniform","1","undefined","0.135416666667","1","1","199.286458333","1","26","38263","0","0","0","0","0","0","0","0","51","0","1","0.135416666667","199.286458333","26","38263","51","51","51","08/17/17 10:36:55","Default description","yes","<openexp._canvas.legacy.legacy object at 0x047F27F0>","<openexp._canvas.legacy.legacy object at 0x047FE7B0>","<openexp._canvas.legacy.legacy object at 0x047EA510>","<openexp._canvas.legacy.legacy object at 0x048E09D0>","<openexp._canvas.legacy.legacy object at 0x048B14B0>","<openexp._canvas.legacy.legacy object at 0x047EF0F0>","<openexp._canvas.legacy.legacy object at 0x048B2BD0>","75","IndividualPriorityWithDis_v1.osexp","C:/Userdata/Michel/SpatialProb/IndividualPriorityMaps/Experiment2","no","mono","no","18","no","white","no","yes","0.09","98","1050","legacy","45","26","26","1","C:/Userdata/Michel/SpatialProb/IndividualPriorityMaps/Experiment2/data/subject-5.csv","legacy","9","192","25","Jazzy James","3.1.3","yes","598477b2b83f69022949e7e9","47","green","circular","green","rectangular","0","\","1552","space","11245","11245","(80, 80, 80)","(0, 122, 0)","(179, 0, 0)","(155, 155, 155)","2","legacy","experiment","[4, 5, 6, 7, 0, 1, 2, 3]","\","2500","3000","0","8","252.758751519","1024","2","48000","-16","main","[(0, -252), (178, -178), (252, 0), (178, 178), (0, 252), (-178, 178), (-252, 0), (-178, -178)]","[]","5","odd","2","1189207","1214679","1214678","1084318","1083311","1779","1111987","1111987","1779","1779","1095564","1291690","1778","1214679","1290135","1289304","1289304","NA","825","study_X","0","11245","1","yes","1680"
"undefined","undefined","11245","11245","black","no","legacy","legacy","legacy","0","red","(179, 0, 0)","color","present","highProb","circular","swap","same","same","swap","green","(0, 122, 0)","lowProb","lowProb1","circular","uniform","1","undefined","0.140625","1","1","204.25","1","27","39216","0","0","0","0","0","0","0","0","52","0","1","0.140625","204.25","27","39216","52","52","52","08/17/17 10:36:55","Default description","yes","<openexp._canvas.legacy.legacy object at 0x047F27F0>","<openexp._canvas.legacy.legacy object at 0x047FE7B0>","<openexp._canvas.legacy.legacy object at 0x047EA510>","<openexp._canvas.legacy.legacy object at 0x048E09D0>","<openexp._canvas.legacy.legacy object at 0x048B14B0>","<openexp._canvas.legacy.legacy object at 0x047F9B70>","<openexp._canvas.legacy.legacy object at 0x048B2BD0>","75","IndividualPriorityWithDis_v1.osexp","C:/Userdata/Michel/SpatialProb/IndividualPriorityMaps/Experiment2","no","mono","no","18","no","white","no","yes","0.09","98","1050","legacy","45","27","27","1","C:/Userdata/Michel/SpatialProb/IndividualPriorityMaps/Experiment2/data/subject-5.csv","legacy","9","192","25","Jazzy James","3.1.3","yes","598477b2b83f69022949e7e9","47","red","circular","green","circular","0","\","953","space","11245","11245","(80, 80, 80)","(0, 122, 0)","(179, 0, 0)","(155, 155, 155)","2","legacy","experiment","[4, 5, 6, 7, 0, 1, 2, 3]","\","2500","3000","0","8","252.758751519","1024","2","48000","-16","main","[(0, -252), (178, -178), (252, 0), (178, 178), (0, 252), (-178, 178), (-252, 0), (-178, -178)]","[]","5","odd","5","1189207","1214679","1214678","1084318","1083311","1779","1111987","1111987","1779","1779","1095564","1293891","1778","1214679","1292935","1292104","1292104","NA","825","study_X","0","11245","1","yes","1680"
"undefined","undefined","11245","11245","black","no","legacy","legacy","legacy","0","green","(0, 122, 0)","shape","present","lowProb6","rectangular","swap","swap","same","same","green","(0, 122, 0)","lowProb","lowProb1","circular","uniform","1","undefined","0.145833333333","1","1","208.567708333","1","28","40045","0","0","0","0","0","0","0","0","53","0","1","0.145833333333","208.567708333","28","40045","53","53","53","08/17/17 10:36:55","Default description","yes","<openexp._canvas.legacy.legacy object at 0x047F27F0>","<openexp._canvas.legacy.legacy object at 0x047FE7B0>","<openexp._canvas.legacy.legacy object at 0x047EA510>","<openexp._canvas.legacy.legacy object at 0x048E09D0>","<openexp._canvas.legacy.legacy object at 0x048B14B0>","<openexp._canvas.legacy.legacy object at 0x047FE1B0>","<openexp._canvas.legacy.legacy object at 0x048B2BD0>","75","IndividualPriorityWithDis_v1.osexp","C:/Userdata/Michel/SpatialProb/IndividualPriorityMaps/Experiment2","no","mono","no","18","no","white","no","yes","0.09","98","1050","legacy","45","28","28","1","C:/Userdata/Michel/SpatialProb/IndividualPriorityMaps/Experiment2/data/subject-5.csv","legacy","9","192","25","Jazzy James","3.1.3","yes","598477b2b83f69022949e7e9","47","green","rectangular","green","circular","0","\","829","space","11245","11245","(80, 80, 80)","(0, 122, 0)","(179, 0, 0)","(155, 155, 155)","2","legacy","experiment","[4, 5, 6, 7, 0, 1, 2, 3]","\","2500","3000","0","8","252.758751519","1024","2","48000","-16","main","[(0, -252), (178, -178), (252, 0), (178, 178), (0, 252), (-178, 178), (-252, 0), (-178, -178)]","[]","5","odd","5","1189207","1214679","1214678","1084318","1083311","1779","1111987","1111987","1779","1779","1095564","1295979","1778","1214679","1295146","1294315","1294315","NA","825","study_X","0","11245","1","yes","1680"
"undefined","undefined","11245","11245","black","no","legacy","legacy","legacy","0","red","(179, 0, 0)","color","present","highProb","rectangular","swap","same","same","swap","green","(0, 122, 0)","lowProb","lowProb6","rectangular","uniform","1","undefined","0.151041666667","1","1","213.572916667","1","29","41006","0","0","0","0","0","0","0","0","54","0","1","0.151041666667","213.572916667","29","41006","54","54","54","08/17/17 10:36:55","Default description","yes","<openexp._canvas.legacy.legacy object at 0x047F27F0>","<openexp._canvas.legacy.legacy object at 0x047FE7B0>","<openexp._canvas.legacy.legacy object at 0x047EA510>","<openexp._canvas.legacy.legacy object at 0x048E09D0>","<openexp._canvas.legacy.legacy object at 0x048B14B0>","<openexp._canvas.legacy.legacy object at 0x048E15F0>","<openexp._canvas.legacy.legacy object at 0x048B2BD0>","75","IndividualPriorityWithDis_v1.osexp","C:/Userdata/Michel/SpatialProb/IndividualPriorityMaps/Experiment2","no","mono","no","18","no","white","no","yes","0.09","98","1050","legacy","45","29","29","1","C:/Userdata/Michel/SpatialProb/IndividualPriorityMaps/Experiment2/data/subject-5.csv","legacy","9","192","25","Jazzy James","3.1.3","yes","598477b2b83f69022949e7e9","47","red","rectangular","green","rectangular","0","\","961","space","11245","11245","(80, 80, 80)","(0, 122, 0)","(179, 0, 0)","(155, 155, 155)","2","legacy","experiment","[4, 5, 6, 7, 0, 1, 2, 3]","\","2500","3000","0","8","252.758751519","1024","2","48000","-16","main","[(0, -252), (178, -178), (252, 0), (178, 178), (0, 252), (-178, 178), (-252, 0), (-178, -178)]","[]","5","odd","3","1189207","1214679","1214678","1084318","1083311","1779","1111987","1111987","1779","1779","1095564","1298179","1778","1214679","1297214","1296384","1296384","NA","825","study_X","0","11245","1","yes","1680"
"undefined","undefined","11245","11245","black","no","legacy","legacy","legacy","0","green","(0, 122, 0)","color","present","highProb","circular","swap","swap","swap","swap","red","(179, 0, 0)","lowProb","lowProb1","circular","uniform","1","undefined","0.15625","1","1","217.848958333","1","30","41827","0","0","0","0","0","0","0","0","55","0","1","0.15625","217.848958333","30","41827","55","55","55","08/17/17 10:36:55","Default description","yes","<openexp._canvas.legacy.legacy object at 0x047F27F0>","<openexp._canvas.legacy.legacy object at 0x047FE7B0>","<openexp._canvas.legacy.legacy object at 0x047EA510>","<openexp._canvas.legacy.legacy object at 0x048E09D0>","<openexp._canvas.legacy.legacy object at 0x048B14B0>","<openexp._canvas.legacy.legacy object at 0x047F9490>","<openexp._canvas.legacy.legacy object at 0x048B2BD0>","75","IndividualPriorityWithDis_v1.osexp","C:/Userdata/Michel/SpatialProb/IndividualPriorityMaps/Experiment2","no","mono","no","18","no","white","no","yes","0.09","98","1050","legacy","45","30","30","1","C:/Userdata/Michel/SpatialProb/IndividualPriorityMaps/Experiment2/data/subject-5.csv","legacy","9","192","25","Jazzy James","3.1.3","yes","598477b2b83f69022949e7e9","47","green","circular","red","circular","0","\","821","space","11245","11245","(80, 80, 80)","(0, 122, 0)","(179, 0, 0)","(155, 155, 155)","2","legacy","experiment","[4, 5, 6, 7, 0, 1, 2, 3]","\","2500","3000","0","8","252.758751519","1024","2","48000","-16","main","[(0, -252), (178, -178), (252, 0), (178, 178), (0, 252), (-178, 178), (-252, 0), (-178, -178)]","[]","5","odd","5","1189207","1214679","1214678","1084318","1083311","1779","1111987","1111987","1779","1779","1095564","1300258","1778","1214679","1299434","1298604","1298604","NA","825","study_X","0","11245","1","yes","1680"
"undefined","undefined","11245","11245","black","no","legacy","legacy","legacy","0","red","(179, 0, 0)","color","present","lowProb6","rectangular","swap","swap","swap","swap","green","(0, 122, 0)","lowProb","lowProb5","rectangular","uniform","0","undefined","0.15625","1","1","230.869791667","1","30","44327","0","0","0","0","0","0","0","0","56","0","1","0.15625","230.869791667","30","44327","56","56","56","08/17/17 10:36:55","Default description","yes","<openexp._canvas.legacy.legacy object at 0x047F27F0>","<openexp._canvas.legacy.legacy object at 0x047FE7B0>","<openexp._canvas.legacy.legacy object at 0x047EA510>","<openexp._canvas.legacy.legacy object at 0x048E09D0>","<openexp._canvas.legacy.legacy object at 0x048B14B0>","<openexp._canvas.legacy.legacy object at 0x048011B0>","<openexp._canvas.legacy.legacy object at 0x048B2BD0>","75","IndividualPriorityWithDis_v1.osexp","C:/Userdata/Michel/SpatialProb/IndividualPriorityMaps/Experiment2","no","mono","no","18","no","white","no","yes","0.09","98","1050","legacy","315","31","31","1","C:/Userdata/Michel/SpatialProb/IndividualPriorityMaps/Experiment2/data/subject-5.csv","legacy","9","192","25","Jazzy James","3.1.3","yes","598477b2b83f69022949e7e9","47","red","rectangular","green","rectangular","0","None","2500","space","11245","11245","(80, 80, 80)","(0, 122, 0)","(179, 0, 0)","(155, 155, 155)","2","legacy","experiment","[4, 5, 6, 7, 0, 1, 2, 3]","/","2500","3000","0","8","252.758751519","1024","2","48000","-16","main","[(0, -252), (178, -178), (252, 0), (178, 178), (0, 252), (-178, 178), (-252, 0), (-178, -178)]","[]","5","odd","2","1189207","1214679","1214678","1084318","1083311","1779","1111987","1111987","1779","1779","1095564","1303996","1778","1214679","1301493","1300663","1300663","NA","825","study_X","0","11245","1","yes","1680"
"undefined","undefined","11245","11245","black","no","legacy","legacy","legacy","0","red","(179, 0, 0)","shape","present","lowProb4","circular","same","swap","swap","same","red","(179, 0, 0)","highProbColor","highProbColor","rectangular","uniform","1","undefined","0.161458333333","1","1","239.296875","1","31","45945","0","0","0","0","0","0","0","0","57","0","1","0.161458333333","239.296875","31","45945","57","57","57","08/17/17 10:36:55","Default description","yes","<openexp._canvas.legacy.legacy object at 0x047F27F0>","<openexp._canvas.legacy.legacy object at 0x047FE7B0>","<openexp._canvas.legacy.legacy object at 0x047EA510>","<openexp._canvas.legacy.legacy object at 0x048E09D0>","<openexp._canvas.legacy.legacy object at 0x048B14B0>","<openexp._canvas.legacy.legacy object at 0x048E1AD0>","<openexp._canvas.legacy.legacy object at 0x048B2BD0>","75","IndividualPriorityWithDis_v1.osexp","C:/Userdata/Michel/SpatialProb/IndividualPriorityMaps/Experiment2","no","mono","no","18","no","white","no","yes","0.09","98","1050","legacy","315","32","32","1","C:/Userdata/Michel/SpatialProb/IndividualPriorityMaps/Experiment2/data/subject-5.csv","legacy","9","192","25","Jazzy James","3.1.3","yes","598477b2b83f69022949e7e9","47","red","circular","red","rectangular","0","/","1618","space","11245","11245","(80, 80, 80)","(0, 122, 0)","(179, 0, 0)","(155, 155, 155)","2","legacy","experiment","[4, 5, 6, 7, 0, 1, 2, 3]","/","2500","3000","0","8","252.758751519","1024","2","48000","-16","main","[(0, -252), (178, -178), (252, 0), (178, 178), (0, 252), (-178, 178), (-252, 0), (-178, -178)]","[]","5","odd","4","1189207","1214679","1214678","1084318","1083311","1779","1111987","1111987","1779","1779","1095564","1306850","1778","1214679","1305229","1304398","1304398","NA","825","study_X","0","11245","1","yes","1680"
"undefined","undefined","11245","11245","black","no","legacy","legacy","legacy","0","red","(179, 0, 0)","color","present","highProb","rectangular","same","swap","swap","same","green","(0, 122, 0)","lowProb","lowProb1","rectangular","uniform","1","undefined","0.166666666667","1","1","245.96875","1","32","47226","0","0","0","0","0","0","0","0","58","0","1","0.166666666667","245.96875","32","47226","58","58","58","08/17/17 10:36:55","Default description","yes","<openexp._canvas.legacy.legacy object at 0x047F27F0>","<openexp._canvas.legacy.legacy object at 0x047FE7B0>","<openexp._canvas.legacy.legacy object at 0x047EA510>","<openexp._canvas.legacy.legacy object at 0x048E09D0>","<openexp._canvas.legacy.legacy object at 0x048B14B0>","<openexp._canvas.legacy.legacy object at 0x048DBBD0>","<openexp._canvas.legacy.legacy object at 0x048B2BD0>","75","IndividualPriorityWithDis_v1.osexp","C:/Userdata/Michel/SpatialProb/IndividualPriorityMaps/Experiment2","no","mono","no","18","no","white","no","yes","0.09","98","1050","legacy","315","33","33","1","C:/Userdata/Michel/SpatialProb/IndividualPriorityMaps/Experiment2/data/subject-5.csv","legacy","9","192","25","Jazzy James","3.1.3","yes","598477b2b83f69022949e7e9","47","red","rectangular","green","rectangular","0","/","1281","space","11245","11245","(80, 80, 80)","(0, 122, 0)","(179, 0, 0)","(155, 155, 155)","2","legacy","experiment","[4, 5, 6, 7, 0, 1, 2, 3]","/","2500","3000","0","8","252.758751519","1024","2","48000","-16","main","[(0, -252), (178, -178), (252, 0), (178, 178), (0, 252), (-178, 178), (-252, 0), (-178, -178)]","[]","5","odd","5","1189207","1214679","1214678","1084318","1083311","1779","1111987","1111987","1779","1779","1095564","1309370","1778","1214679","1308086","1307255","1307255","NA","825","study_X","0","11245","1","yes","1680"
"undefined","undefined","11245","11245","black","no","legacy","legacy","legacy","0","red","(179, 0, 0)","shape","present","highProb","rectangular","same","same","swap","swap","red","(179, 0, 0)","lowProb","lowProb6","circular","uniform","1","undefined","0.171875","1","1","249.864583333","1","33","47974","0","0","0","0","0","0","0","0","59","0","1","0.171875","249.864583333","33","47974","59","59","59","08/17/17 10:36:55","Default description","yes","<openexp._canvas.legacy.legacy object at 0x047F27F0>","<openexp._canvas.legacy.legacy object at 0x047FE7B0>","<openexp._canvas.legacy.legacy object at 0x047EA510>","<openexp._canvas.legacy.legacy object at 0x048E09D0>","<openexp._canvas.legacy.legacy object at 0x048B14B0>","<openexp._canvas.legacy.legacy object at 0x047F9DD0>","<openexp._canvas.legacy.legacy object at 0x048B2BD0>","75","IndividualPriorityWithDis_v1.osexp","C:/Userdata/Michel/SpatialProb/IndividualPriorityMaps/Experiment2","no","mono","no","18","no","white","no","yes","0.09","98","1050","legacy","315","34","34","1","C:/Userdata/Michel/SpatialProb/IndividualPriorityMaps/Experiment2/data/subject-5.csv","legacy","9","192","25","Jazzy James","3.1.3","yes","598477b2b83f69022949e7e9","47","red","rectangular","red","circular","0","/","748","space","11245","11245","(80, 80, 80)","(0, 122, 0)","(179, 0, 0)","(155, 155, 155)","2","legacy","experiment","[4, 5, 6, 7, 0, 1, 2, 3]","/","2500","3000","0","8","252.758751519","1024","2","48000","-16","main","[(0, -252), (178, -178), (252, 0), (178, 178), (0, 252), (-178, 178), (-252, 0), (-178, -178)]","[]","5","odd","3","1189207","1214679","1214678","1084318","1083311","1779","1111987","1111987","1779","1779","1095564","1311395","1778","1214679","1310644","1309814","1309814","NA","825","study_X","0","11245","1","yes","1680"
"undefined","undefined","11245","11245","black","no","legacy","legacy","legacy","0","green","(0, 122, 0)","color","present","highProb","rectangular","swap","same","same","swap","red","(179, 0, 0)","lowProb","lowProb6","rectangular","uniform","1","undefined","0.177083333333","1","1","261.020833333","1","34","50116","0","0","0","0","0","0","0","0","60","0","1","0.177083333333","261.020833333","34","50116","60","60","60","08/17/17 10:36:55","Default description","yes","<openexp._canvas.legacy.legacy object at 0x047F27F0>","<openexp._canvas.legacy.legacy object at 0x047FE7B0>","<openexp._canvas.legacy.legacy object at 0x047EA510>","<openexp._canvas.legacy.legacy object at 0x048E09D0>","<openexp._canvas.legacy.legacy object at 0x048B14B0>","<openexp._canvas.legacy.legacy object at 0x048DBE50>","<openexp._canvas.legacy.legacy object at 0x048B2BD0>","75","IndividualPriorityWithDis_v1.osexp","C:/Userdata/Michel/SpatialProb/IndividualPriorityMaps/Experiment2","no","mono","no","18","no","white","no","yes","0.09","98","1050","legacy","315","35","35","1","C:/Userdata/Michel/SpatialProb/IndividualPriorityMaps/Experiment2/data/subject-5.csv","legacy","9","192","25","Jazzy James","3.1.3","yes","598477b2b83f69022949e7e9","47","green","rectangular","red","rectangular","0","/","2142","space","11245","11245","(80, 80, 80)","(0, 122, 0)","(179, 0, 0)","(155, 155, 155)","2","legacy","experiment","[4, 5, 6, 7, 0, 1, 2, 3]","/","2500","3000","0","8","252.758751519","1024","2","48000","-16","main","[(0, -252), (178, -178), (252, 0), (178, 178), (0, 252), (-178, 178), (-252, 0), (-178, -178)]","[]","5","odd","3","1189207","1214679","1214678","1084318","1083311","1779","1111987","1111987","1779","1779","1095564","1314779","1778","1214679","1312633","1311802","1311803","NA","825","study_X","0","11245","1","yes","1680"
"undefined","undefined","11245","11245","black","no","legacy","legacy","legacy","0","red","(179, 0, 0)","shape","present","highProb","rectangular","swap","same","same","swap","red","(179, 0, 0)","highProbColor","highProbColor","circular","uniform","0","undefined","0.177083333333","1","1","274.041666667","1","34","52616","0","0","0","0","0","0","0","0","61","0","1","0.177083333333","274.041666667","34","52616","61","61","61","08/17/17 10:36:55","Default description","yes","<openexp._canvas.legacy.legacy object at 0x047F27F0>","<openexp._canvas.legacy.legacy object at 0x047FE7B0>","<openexp._canvas.legacy.legacy object at 0x047EA510>","<openexp._canvas.legacy.legacy object at 0x048E09D0>","<openexp._canvas.legacy.legacy object at 0x048B14B0>","<openexp._canvas.legacy.legacy object at 0x047F90D0>","<openexp._canvas.legacy.legacy object at 0x048B2BD0>","75","IndividualPriorityWithDis_v1.osexp","C:/Userdata/Michel/SpatialProb/IndividualPriorityMaps/Experiment2","no","mono","no","18","no","white","no","yes","0.09","98","1050","legacy","315","36","36","1","C:/Userdata/Michel/SpatialProb/IndividualPriorityMaps/Experiment2/data/subject-5.csv","legacy","9","192","25","Jazzy James","3.1.3","yes","598477b2b83f69022949e7e9","47","red","rectangular","red","circular","0","None","2500","space","11245","11245","(80, 80, 80)","(0, 122, 0)","(179, 0, 0)","(155, 155, 155)","2","legacy","experiment","[4, 5, 6, 7, 0, 1, 2, 3]","/","2500","3000","0","8","252.758751519","1024","2","48000","-16","main","[(0, -252), (178, -178), (252, 0), (178, 178), (0, 252), (-178, 178), (-252, 0), (-178, -178)]","[]","5","odd","4","1189207","1214679","1214678","1084318","1083311","1779","1111987","1111987","1779","1779","1095564","1318530","1778","1214679","1316027","1315196","1315196","NA","825","study_X","0","11245","1","yes","1680"
"undefined","undefined","11245","11245","black","no","legacy","legacy","legacy","0","green","(0, 122, 0)","shape","present","highProb","rectangular","swap","same","swap","same","green","(0, 122, 0)","lowProb","lowProb6","circular","uniform","1","undefined","0.182291666667","1","1","278.072916667","1","35","53390","0","0","0","0","0","0","0","0","62","0","1","0.182291666667","278.072916667","35","53390","62","62","62","08/17/17 10:36:55","Default description","yes","<openexp._canvas.legacy.legacy object at 0x047F27F0>","<openexp._canvas.legacy.legacy object at 0x047FE7B0>","<openexp._canvas.legacy.legacy object at 0x047EA510>","<openexp._canvas.legacy.legacy object at 0x048E09D0>","<openexp._canvas.legacy.legacy object at 0x048B14B0>","<openexp._canvas.legacy.legacy object at 0x047FE530>","<openexp._canvas.legacy.legacy object at 0x048B2BD0>","75","IndividualPriorityWithDis_v1.osexp","C:/Userdata/Michel/SpatialProb/IndividualPriorityMaps/Experiment2","no","mono","no","18","no","white","no","yes","0.09","98","1050","legacy","45","37","37","1","C:/Userdata/Michel/SpatialProb/IndividualPriorityMaps/Experiment2/data/subject-5.csv","legacy","9","192","25","Jazzy James","3.1.3","yes","598477b2b83f69022949e7e9","47","green","rectangular","green","circular","0","\","774","space","11245","11245","(80, 80, 80)","(0, 122, 0)","(179, 0, 0)","(155, 155, 155)","2","legacy","experiment","[4, 5, 6, 7, 0, 1, 2, 3]","\","2500","3000","0","8","252.758751519","1024","2","48000","-16","main","[(0, -252), (178, -178), (252, 0), (178, 178), (0, 252), (-178, 178), (-252, 0), (-178, -178)]","[]","5","odd","3","1189207","1214679","1214678","1084318","1083311","1779","1111987","1111987","1779","1779","1095564","1320554","1778","1214679","1319777","1318946","1318946","NA","825","study_X","0","11245","1","yes","1680"
"undefined","undefined","11245","11245","black","no","legacy","legacy","legacy","0","green","(0, 122, 0)","shape","absent","lowProb5","rectangular","same","same","same","swap","green","(0, 122, 0)","lowProb","lowProb5","rectangular","uniform","1","undefined","0.1875","1","1","284.911458333","1","36","54703","0","0","0","0","0","0","0","0","63","0","1","0.1875","284.911458333","36","54703","63","63","63","08/17/17 10:36:55","Default description","yes","<openexp._canvas.legacy.legacy object at 0x047F27F0>","<openexp._canvas.legacy.legacy object at 0x047FE7B0>","<openexp._canvas.legacy.legacy object at 0x047EA510>","<openexp._canvas.legacy.legacy object at 0x048E09D0>","<openexp._canvas.legacy.legacy object at 0x048B14B0>","<openexp._canvas.legacy.legacy object at 0x047F99B0>","<openexp._canvas.legacy.legacy object at 0x048B2BD0>","75","IndividualPriorityWithDis_v1.osexp","C:/Userdata/Michel/SpatialProb/IndividualPriorityMaps/Experiment2","no","mono","no","18","no","white","no","yes","0.09","98","1050","legacy","45","38","38","1","C:/Userdata/Michel/SpatialProb/IndividualPriorityMaps/Experiment2/data/subject-5.csv","legacy","9","192","25","Jazzy James","3.1.3","yes","598477b2b83f69022949e7e9","47","green","rectangular","green","rectangular","0","\","1313","space","11245","11245","(80, 80, 80)","(0, 122, 0)","(179, 0, 0)","(155, 155, 155)","2","legacy","experiment","[4, 5, 6, 7, 0, 1, 2, 3]","\","2500","3000","0","8","252.758751519","1024","2","48000","-16","main","[(0, -252), (178, -178), (252, 0), (178, 178), (0, 252), (-178, 178), (-252, 0), (-178, -178)]","[]","5","odd","2","1189207","1214679","1214678","1084318","1083311","1779","1111987","1111987","1779","1779","1095564","1323106","1778","1214679","1321790","1320959","1320959","NA","825","study_X","0","11245","1","yes","1680"
"undefined","undefined","11245","11245","black","no","legacy","legacy","legacy","0","red","(179, 0, 0)","shape","present","highProb","rectangular","swap","same","swap","swap","red","(179, 0, 0)","lowProb","lowProb3","circular","uniform","1","undefined","0.192708333333","1","1","288.979166667","1","37","55484","0","0","0","0","0","0","0","0","64","0","1","0.192708333333","288.979166667","37","55484","64","64","64","08/17/17 10:36:55","Default description","yes","<openexp._canvas.legacy.legacy object at 0x047F27F0>","<openexp._canvas.legacy.legacy object at 0x047FE7B0>","<openexp._canvas.legacy.legacy object at 0x047EA510>","<openexp._canvas.legacy.legacy object at 0x048E09D0>","<openexp._canvas.legacy.legacy object at 0x048B14B0>","<openexp._canvas.legacy.legacy object at 0x048E1E10>","<openexp._canvas.legacy.legacy object at 0x048B2BD0>","75","IndividualPriorityWithDis_v1.osexp","C:/Userdata/Michel/SpatialProb/IndividualPriorityMaps/Experiment2","no","mono","no","18","no","white","no","yes","0.09","98","1050","legacy","45","39","39","1","C:/Userdata/Michel/SpatialProb/IndividualPriorityMaps/Experiment2/data/subject-5.csv","legacy","9","192","25","Jazzy James","3.1.3","yes","598477b2b83f69022949e7e9","47","red","rectangular","red","circular","0","\","781","space","11245","11245","(80, 80, 80)","(0, 122, 0)","(179, 0, 0)","(155, 155, 155)","2","legacy","experiment","[4, 5, 6, 7, 0, 1, 2, 3]","\","2500","3000","0","8","252.758751519","1024","2","48000","-16","main","[(0, -252), (178, -178), (252, 0), (178, 178), (0, 252), (-178, 178), (-252, 0), (-178, -178)]","[]","5","odd","7","1189207","1214679","1214678","1084318","1083311","1779","1111987","1111987","1779","1779","1095564","1325130","1778","1214679","1324346","1323515","1323515","NA","825","study_X","0","11245","1","yes","1680"
"undefined","undefined","11245","11245","black","no","legacy","legacy","legacy","0","green","(0, 122, 0)","shape","present","highProb","circular","swap","swap","swap","swap","green","(0, 122, 0)","lowProb","lowProb5","rectangular","uniform","1","undefined","0.197916666667","1","1","300.8125","1","38","57756","0","0","0","0","0","0","0","0","65","0","1","0.197916666667","300.8125","38","57756","65","65","65","08/17/17 10:36:55","Default description","yes","<openexp._canvas.legacy.legacy object at 0x047F27F0>","<openexp._canvas.legacy.legacy object at 0x047FE7B0>","<openexp._canvas.legacy.legacy object at 0x047EA510>","<openexp._canvas.legacy.legacy object at 0x048E09D0>","<openexp._canvas.legacy.legacy object at 0x048B14B0>","<openexp._canvas.legacy.legacy object at 0x047EABF0>","<openexp._canvas.legacy.legacy object at 0x048B2BD0>","75","IndividualPriorityWithDis_v1.osexp","C:/Userdata/Michel/SpatialProb/IndividualPriorityMaps/Experiment2","no","mono","no","18","no","white","no","yes","0.09","98","1050","legacy","45","40","40","1","C:/Userdata/Michel/SpatialProb/IndividualPriorityMaps/Experiment2/data/subject-5.csv","legacy","9","192","25","Jazzy James","3.1.3","yes","598477b2b83f69022949e7e9","47","green","circular","green","rectangular","0","\","2272","space","11245","11245","(80, 80, 80)","(0, 122, 0)","(179, 0, 0)","(155, 155, 155)","2","legacy","experiment","[4, 5, 6, 7, 0, 1, 2, 3]","\","2500","3000","0","8","252.758751519","1024","2","48000","-16","main","[(0, -252), (178, -178), (252, 0), (178, 178), (0, 252), (-178, 178), (-252, 0), (-178, -178)]","[]","5","odd","2","1189207","1214679","1214678","1084318","1083311","1779","1111987","1111987","1779","1779","1095564","1328666","1778","1214679","1326390","1325559","1325559","NA","825","study_X","0","11245","1","yes","1680"
"undefined","undefined","11245","11245","black","no","legacy","legacy","legacy","0","red","(179, 0, 0)","color","present","highProb","circular","swap","same","same","swap","green","(0, 122, 0)","lowProb","lowProb2","circular","uniform","1","undefined","0.203125","1","1","308.192708333","1","39","59173","0","0","0","0","0","0","0","0","66","0","1","0.203125","308.192708333","39","59173","66","66","66","08/17/17 10:36:55","Default description","yes","<openexp._canvas.legacy.legacy object at 0x047F27F0>","<openexp._canvas.legacy.legacy object at 0x047FE7B0>","<openexp._canvas.legacy.legacy object at 0x047EA510>","<openexp._canvas.legacy.legacy object at 0x048E09D0>","<openexp._canvas.legacy.legacy object at 0x048B14B0>","<openexp._canvas.legacy.legacy object at 0x047F21D0>","<openexp._canvas.legacy.legacy object at 0x048B2BD0>","75","IndividualPriorityWithDis_v1.osexp","C:/Userdata/Michel/SpatialProb/IndividualPriorityMaps/Experiment2","no","mono","no","18","no","white","no","yes","0.09","98","1050","legacy","315","41","41","1","C:/Userdata/Michel/SpatialProb/IndividualPriorityMaps/Experiment2/data/subject-5.csv","legacy","9","192","25","Jazzy James","3.1.3","yes","598477b2b83f69022949e7e9","47","red","circular","green","circular","0","/","1417","space","11245","11245","(80, 80, 80)","(0, 122, 0)","(179, 0, 0)","(155, 155, 155)","2","legacy","experiment","[4, 5, 6, 7, 0, 1, 2, 3]","/","2500","3000","0","8","252.758751519","1024","2","48000","-16","main","[(0, -252), (178, -178), (252, 0), (178, 178), (0, 252), (-178, 178), (-252, 0), (-178, -178)]","[]","5","odd","6","1189207","1214679","1214678","1084318","1083311","1779","1111987","1111987","1779","1779","1095564","1331330","1778","1214679","1329910","1329079","1329079","NA","825","study_X","0","11245","1","yes","1680"
"undefined","undefined","11245","11245","black","no","legacy","legacy","legacy","0","red","(179, 0, 0)","color","present","highProb","rectangular","same","swap","same","swap","green","(0, 122, 0)","lowProb","lowProb4","rectangular","uniform","1","undefined","0.208333333333","1","1","312.213541667","1","40","59945","0","0","0","0","0","0","0","0","67","0","1","0.208333333333","312.213541667","40","59945","67","67","67","08/17/17 10:36:55","Default description","yes","<openexp._canvas.legacy.legacy object at 0x047F27F0>","<openexp._canvas.legacy.legacy object at 0x047FE7B0>","<openexp._canvas.legacy.legacy object at 0x047EA510>","<openexp._canvas.legacy.legacy object at 0x048E09D0>","<openexp._canvas.legacy.legacy object at 0x048B14B0>","<openexp._canvas.legacy.legacy object at 0x047F9B90>","<openexp._canvas.legacy.legacy object at 0x048B2BD0>","75","IndividualPriorityWithDis_v1.osexp","C:/Userdata/Michel/SpatialProb/IndividualPriorityMaps/Experiment2","no","mono","no","18","no","white","no","yes","0.09","98","1050","legacy","45","42","42","1","C:/Userdata/Michel/SpatialProb/IndividualPriorityMaps/Experiment2/data/subject-5.csv","legacy","9","192","25","Jazzy James","3.1.3","yes","598477b2b83f69022949e7e9","47","red","rectangular","green","rectangular","0","\","772","space","11245","11245","(80, 80, 80)","(0, 122, 0)","(179, 0, 0)","(155, 155, 155)","2","legacy","experiment","[4, 5, 6, 7, 0, 1, 2, 3]","\","2500","3000","0","8","252.758751519","1024","2","48000","-16","main","[(0, -252), (178, -178), (252, 0), (178, 178), (0, 252), (-178, 178), (-252, 0), (-178, -178)]","[]","5","odd","1","1189207","1214679","1214678","1084318","1083311","1779","1111987","1111987","1779","1779","1095564","1333346","1778","1214679","1332572","1331741","1331741","NA","825","study_X","0","11245","1","yes","1680"
"undefined","undefined","11245","11245","black","no","legacy","legacy","legacy","0","green","(0, 122, 0)","shape","present","highProb","rectangular","swap","same","same","swap","green","(0, 122, 0)","lowProb","lowProb2","circular","uniform","1","undefined","0.213541666667","1","1","316.682291667","1","41","60803","0","0","0","0","0","0","0","0","68","0","1","0.213541666667","316.682291667","41","60803","68","68","68","08/17/17 10:36:55","Default description","yes","<openexp._canvas.legacy.legacy object at 0x047F27F0>","<openexp._canvas.legacy.legacy object at 0x047FE7B0>","<openexp._canvas.legacy.legacy object at 0x047EA510>","<openexp._canvas.legacy.legacy object at 0x048E09D0>","<openexp._canvas.legacy.legacy object at 0x048B14B0>","<openexp._canvas.legacy.legacy object at 0x048E0090>","<openexp._canvas.legacy.legacy object at 0x048B2BD0>","75","IndividualPriorityWithDis_v1.osexp","C:/Userdata/Michel/SpatialProb/IndividualPriorityMaps/Experiment2","no","mono","no","18","no","white","no","yes","0.09","98","1050","legacy","45","43","43","1","C:/Userdata/Michel/SpatialProb/IndividualPriorityMaps/Experiment2/data/subject-5.csv","legacy","9","192","25","Jazzy James","3.1.3","yes","598477b2b83f69022949e7e9","47","green","rectangular","green","circular","0","\","858","space","11245","11245","(80, 80, 80)","(0, 122, 0)","(179, 0, 0)","(155, 155, 155)","2","legacy","experiment","[4, 5, 6, 7, 0, 1, 2, 3]","\","2500","3000","0","8","252.758751519","1024","2","48000","-16","main","[(0, -252), (178, -178), (252, 0), (178, 178), (0, 252), (-178, 178), (-252, 0), (-178, -178)]","[]","5","odd","6","1189207","1214679","1214678","1084318","1083311","1779","1111987","1111987","1779","1779","1095564","1335450","1778","1214679","1334589","1333759","1333759","NA","825","study_X","0","11245","1","yes","1680"
"undefined","undefined","11245","11245","black","no","legacy","legacy","legacy","0","green","(0, 122, 0)","color","present","lowProb1","circular","same","swap","swap","same","red","(179, 0, 0)","highProbShape","highProbShape","circular","uniform","1","undefined","0.21875","1","1","324.026041667","1","42","62213","0","0","0","0","0","0","0","0","69","0","1","0.21875","324.026041667","42","62213","69","69","69","08/17/17 10:36:55","Default description","yes","<openexp._canvas.legacy.legacy object at 0x047F27F0>","<openexp._canvas.legacy.legacy object at 0x047FE7B0>","<openexp._canvas.legacy.legacy object at 0x047EA510>","<openexp._canvas.legacy.legacy object at 0x048E09D0>","<openexp._canvas.legacy.legacy object at 0x048B14B0>","<openexp._canvas.legacy.legacy object at 0x047F9B50>","<openexp._canvas.legacy.legacy object at 0x048B2BD0>","75","IndividualPriorityWithDis_v1.osexp","C:/Userdata/Michel/SpatialProb/IndividualPriorityMaps/Experiment2","no","mono","no","18","no","white","no","yes","0.09","98","1050","legacy","45","44","44","1","C:/Userdata/Michel/SpatialProb/IndividualPriorityMaps/Experiment2/data/subject-5.csv","legacy","9","192","25","Jazzy James","3.1.3","yes","598477b2b83f69022949e7e9","47","green","circular","red","circular","0","\","1410","space","11245","11245","(80, 80, 80)","(0, 122, 0)","(179, 0, 0)","(155, 155, 155)","2","legacy","experiment","[4, 5, 6, 7, 0, 1, 2, 3]","\","2500","3000","0","8","252.758751519","1024","2","48000","-16","main","[(0, -252), (178, -178), (252, 0), (178, 178), (0, 252), (-178, 178), (-252, 0), (-178, -178)]","[]","5","odd","0","1189207","1214679","1214678","1084318","1083311","1779","1111987","1111987","1779","1779","1095564","1338106","1778","1214679","1336693","1335863","1335863","NA","825","study_X","0","11245","1","yes","1680"
"undefined","undefined","11245","11245","black","no","legacy","legacy","legacy","0","green","(0, 122, 0)","color","present","highProb","circular","same","same","same","same","red","(179, 0, 0)","highProbShape","highProbShape","circular","uniform","1","undefined","0.223958333333","1","1","329.40625","1","43","63246","0","0","0","0","0","0","0","0","70","0","1","0.223958333333","329.40625","43","63246","70","70","70","08/17/17 10:36:55","Default description","yes","<openexp._canvas.legacy.legacy object at 0x047F27F0>","<openexp._canvas.legacy.legacy object at 0x047FE7B0>","<openexp._canvas.legacy.legacy object at 0x047EA510>","<openexp._canvas.legacy.legacy object at 0x048E09D0>","<openexp._canvas.legacy.legacy object at 0x048B14B0>","<openexp._canvas.legacy.legacy object at 0x04808DB0>","<openexp._canvas.legacy.legacy object at 0x048B2BD0>","75","IndividualPriorityWithDis_v1.osexp","C:/Userdata/Michel/SpatialProb/IndividualPriorityMaps/Experiment2","no","mono","no","18","no","white","no","yes","0.09","98","1050","legacy","315","45","45","1","C:/Userdata/Michel/SpatialProb/IndividualPriorityMaps/Experiment2/data/subject-5.csv","legacy","9","192","25","Jazzy James","3.1.3","yes","598477b2b83f69022949e7e9","47","green","circular","red","circular","0","/","1033","space","11245","11245","(80, 80, 80)","(0, 122, 0)","(179, 0, 0)","(155, 155, 155)","2","legacy","experiment","[4, 5, 6, 7, 0, 1, 2, 3]","/","2500","3000","0","8","252.758751519","1024","2","48000","-16","main","[(0, -252), (178, -178), (252, 0), (178, 178), (0, 252), (-178, 178), (-252, 0), (-178, -178)]","[]","5","odd","0","1189207","1214679","1214678","1084318","1083311","1779","1111987","1111987","1779","1779","1095564","1340386","1778","1214679","1339351","1338520","1338520","NA","825","study_X","0","11245","1","yes","1680"
"undefined","undefined","11245","11245","black","no","legacy","legacy","legacy","0","green","(0, 122, 0)","shape","present","highProb","rectangular","same","swap","swap","same","green","(0, 122, 0)","lowProb","lowProb5","circular","uniform","1","undefined","0.229166666667","1","1","335.354166667","1","44","64388","0","0","0","0","0","0","0","0","71","0","1","0.229166666667","335.354166667","44","64388","71","71","71","08/17/17 10:36:55","Default description","yes","<openexp._canvas.legacy.legacy object at 0x047F27F0>","<openexp._canvas.legacy.legacy object at 0x047FE7B0>","<openexp._canvas.legacy.legacy object at 0x047EA510>","<openexp._canvas.legacy.legacy object at 0x048E09D0>","<openexp._canvas.legacy.legacy object at 0x048B14B0>","<openexp._canvas.legacy.legacy object at 0x047EE170>","<openexp._canvas.legacy.legacy object at 0x048B2BD0>","75","IndividualPriorityWithDis_v1.osexp","C:/Userdata/Michel/SpatialProb/IndividualPriorityMaps/Experiment2","no","mono","no","18","no","white","no","yes","0.09","98","1050","legacy","45","46","46","1","C:/Userdata/Michel/SpatialProb/IndividualPriorityMaps/Experiment2/data/subject-5.csv","legacy","9","192","25","Jazzy James","3.1.3","yes","598477b2b83f69022949e7e9","47","green","rectangular","green","circular","0","\","1142","space","11245","11245","(80, 80, 80)","(0, 122, 0)","(179, 0, 0)","(155, 155, 155)","2","legacy","experiment","[4, 5, 6, 7, 0, 1, 2, 3]","\","2500","3000","0","8","252.758751519","1024","2","48000","-16","main","[(0, -252), (178, -178), (252, 0), (178, 178), (0, 252), (-178, 178), (-252, 0), (-178, -178)]","[]","5","odd","2","1189207","1214679","1214678","1084318","1083311","1779","1111987","1111987","1779","1779","1095564","1342778","1778","1214679","1341633","1340801","1340802","NA","825","study_X","0","11245","1","yes","1680"
"undefined","undefined","11245","11245","black","no","legacy","legacy","legacy","0","green","(0, 122, 0)","color","absent","highProb","circular","same","swap","same","same","green","(0, 122, 0)","lowProb","lowProb2","circular","uniform","1","undefined","0.234375","1","1","340.598958333","1","45","65395","0","0","0","0","0","0","0","0","72","0","1","0.234375","340.598958333","45","65395","72","72","72","08/17/17 10:36:55","Default description","yes","<openexp._canvas.legacy.legacy object at 0x047F27F0>","<openexp._canvas.legacy.legacy object at 0x047FE7B0>","<openexp._canvas.legacy.legacy object at 0x047EA510>","<openexp._canvas.legacy.legacy object at 0x048E09D0>","<openexp._canvas.legacy.legacy object at 0x048B14B0>","<openexp._canvas.legacy.legacy object at 0x04801250>","<openexp._canvas.legacy.legacy object at 0x048B2BD0>","75","IndividualPriorityWithDis_v1.osexp","C:/Userdata/Michel/SpatialProb/IndividualPriorityMaps/Experiment2","no","mono","no","18","no","white","no","yes","0.09","98","1050","legacy","315","47","47","1","C:/Userdata/Michel/SpatialProb/IndividualPriorityMaps/Experiment2/data/subject-5.csv","legacy","9","192","25","Jazzy James","3.1.3","yes","598477b2b83f69022949e7e9","47","green","circular","green","circular","0","/","1007","space","11245","11245","(80, 80, 80)","(0, 122, 0)","(179, 0, 0)","(155, 155, 155)","2","legacy","experiment","[4, 5, 6, 7, 0, 1, 2, 3]","/","2500","3000","0","8","252.758751519","1024","2","48000","-16","main","[(0, -252), (178, -178), (252, 0), (178, 178), (0, 252), (-178, 178), (-252, 0), (-178, -178)]","[]","5","odd","6","1189207","1214679","1214678","1084318","1083311","1779","1111987","1111987","1779","1779","1095564","1345034","1778","1214679","1344023","1343192","1343192","NA","825","study_X","0","11245","1","yes","1680"
"undefined","undefined","11245","11245","black","no","legacy","legacy","legacy","0","green","(0, 122, 0)","shape","present","lowProb1","circular","same","same","same","swap","green","(0, 122, 0)","highProbColor","highProbColor","rectangular","uniform","1","undefined","0.239583333333","1","1","348.5625","1","46","66924","0","0","0","0","0","0","0","0","73","0","1","0.239583333333","348.5625","46","66924","73","73","73","08/17/17 10:36:55","Default description","yes","<openexp._canvas.legacy.legacy object at 0x047F27F0>","<openexp._canvas.legacy.legacy object at 0x047FE7B0>","<openexp._canvas.legacy.legacy object at 0x047EA510>","<openexp._canvas.legacy.legacy object at 0x048E09D0>","<openexp._canvas.legacy.legacy object at 0x048B14B0>","<openexp._canvas.legacy.legacy object at 0x047FE510>","<openexp._canvas.legacy.legacy object at 0x048B2BD0>","75","IndividualPriorityWithDis_v1.osexp","C:/Userdata/Michel/SpatialProb/IndividualPriorityMaps/Experiment2","no","mono","no","18","no","white","no","yes","0.09","98","1050","legacy","315","48","48","1","C:/Userdata/Michel/SpatialProb/IndividualPriorityMaps/Experiment2/data/subject-5.csv","legacy","9","192","25","Jazzy James","3.1.3","yes","598477b2b83f69022949e7e9","47","green","circular","green","rectangular","0","/","1529","space","11245","11245","(80, 80, 80)","(0, 122, 0)","(179, 0, 0)","(155, 155, 155)","2","legacy","experiment","[4, 5, 6, 7, 0, 1, 2, 3]","/","2500","3000","0","8","252.758751519","1024","2","48000","-16","main","[(0, -252), (178, -178), (252, 0), (178, 178), (0, 252), (-178, 178), (-252, 0), (-178, -178)]","[]","5","odd","4","1189207","1214679","1214678","1084318","1083311","1779","1111987","1111987","1779","1779","1095564","1347818","1778","1214679","1346286","1345455","1345455","NA","825","study_X","0","11245","1","yes","1680"
"undefined","undefined","11245","11245","black","no","legacy","legacy","legacy","0","green","(0, 122, 0)","color","present","highProb","rectangular","same","swap","swap","same","red","(179, 0, 0)","lowProb","lowProb2","rectangular","uniform","1","undefined","0.244791666667","1","1","356.083333333","1","47","68368","0","0","0","0","0","0","0","0","74","0","1","0.244791666667","356.083333333","47","68368","74","74","74","08/17/17 10:36:55","Default description","yes","<openexp._canvas.legacy.legacy object at 0x047F27F0>","<openexp._canvas.legacy.legacy object at 0x047FE7B0>","<openexp._canvas.legacy.legacy object at 0x047EA510>","<openexp._canvas.legacy.legacy object at 0x048E09D0>","<openexp._canvas.legacy.legacy object at 0x048B14B0>","<openexp._canvas.legacy.legacy object at 0x047EE0F0>","<openexp._canvas.legacy.legacy object at 0x048B2BD0>","75","IndividualPriorityWithDis_v1.osexp","C:/Userdata/Michel/SpatialProb/IndividualPriorityMaps/Experiment2","no","mono","no","18","no","white","no","yes","0.09","98","1050","legacy","315","49","49","1","C:/Userdata/Michel/SpatialProb/IndividualPriorityMaps/Experiment2/data/subject-5.csv","legacy","9","192","25","Jazzy James","3.1.3","yes","598477b2b83f69022949e7e9","47","green","rectangular","red","rectangular","0","/","1444","space","11245","11245","(80, 80, 80)","(0, 122, 0)","(179, 0, 0)","(155, 155, 155)","2","legacy","experiment","[4, 5, 6, 7, 0, 1, 2, 3]","/","2500","3000","0","8","252.758751519","1024","2","48000","-16","main","[(0, -252), (178, -178), (252, 0), (178, 178), (0, 252), (-178, 178), (-252, 0), (-178, -178)]","[]","5","odd","6","1189207","1214679","1214678","1084318","1083311","1779","1111987","1111987","1779","1779","1095564","1350498","1778","1214679","1349051","1348220","1348220","NA","825","study_X","0","11245","1","yes","1680"
"undefined","undefined","11245","11245","black","no","legacy","legacy","legacy","0","green","(0, 122, 0)","shape","present","lowProb5","rectangular","same","same","swap","swap","green","(0, 122, 0)","lowProb","lowProb4","circular","uniform","1","undefined","0.25","1","1","360.932291667","1","48","69299","0","0","0","0","0","0","0","0","75","0","1","0.25","360.932291667","48","69299","75","75","75","08/17/17 10:36:55","Default description","yes","<openexp._canvas.legacy.legacy object at 0x047F27F0>","<openexp._canvas.legacy.legacy object at 0x047FE7B0>","<openexp._canvas.legacy.legacy object at 0x047EA510>","<openexp._canvas.legacy.legacy object at 0x048E09D0>","<openexp._canvas.legacy.legacy object at 0x048B14B0>","<openexp._canvas.legacy.legacy object at 0x047FE770>","<openexp._canvas.legacy.legacy object at 0x048B2BD0>","75","IndividualPriorityWithDis_v1.osexp","C:/Userdata/Michel/SpatialProb/IndividualPriorityMaps/Experiment2","no","mono","no","18","no","white","no","yes","0.09","98","1050","legacy","45","50","50","1","C:/Userdata/Michel/SpatialProb/IndividualPriorityMaps/Experiment2/data/subject-5.csv","legacy","9","192","25","Jazzy James","3.1.3","yes","598477b2b83f69022949e7e9","47","green","rectangular","green","circular","0","\","931","space","11245","11245","(80, 80, 80)","(0, 122, 0)","(179, 0, 0)","(155, 155, 155)","2","legacy","experiment","[4, 5, 6, 7, 0, 1, 2, 3]","\","2500","3000","0","8","252.758751519","1024","2","48000","-16","main","[(0, -252), (178, -178), (252, 0), (178, 178), (0, 252), (-178, 178), (-252, 0), (-178, -178)]","[]","5","odd","1","1189207","1214679","1214678","1084318","1083311","1779","1111987","1111987","1779","1779","1095564","1352690","1778","1214679","1351756","1350925","1350925","NA","825","study_X","0","11245","1","yes","1680"
"undefined","undefined","11245","11245","black","no","legacy","legacy","legacy","0","green","(0, 122, 0)","shape","present","highProb","rectangular","same","same","same","same","green","(0, 122, 0)","lowProb","lowProb4","circular","uniform","1","undefined","0.255208333333","1","1","364.328125","1","49","69951","0","0","0","0","0","0","0","0","76","0","1","0.255208333333","364.328125","49","69951","76","76","76","08/17/17 10:36:55","Default description","yes","<openexp._canvas.legacy.legacy object at 0x047F27F0>","<openexp._canvas.legacy.legacy object at 0x047FE7B0>","<openexp._canvas.legacy.legacy object at 0x047EA510>","<openexp._canvas.legacy.legacy object at 0x048E09D0>","<openexp._canvas.legacy.legacy object at 0x048B14B0>","<openexp._canvas.legacy.legacy object at 0x04803D70>","<openexp._canvas.legacy.legacy object at 0x048B2BD0>","75","IndividualPriorityWithDis_v1.osexp","C:/Userdata/Michel/SpatialProb/IndividualPriorityMaps/Experiment2","no","mono","no","18","no","white","no","yes","0.09","98","1050","legacy","45","51","51","1","C:/Userdata/Michel/SpatialProb/IndividualPriorityMaps/Experiment2/data/subject-5.csv","legacy","9","192","25","Jazzy James","3.1.3","yes","598477b2b83f69022949e7e9","47","green","rectangular","green","circular","0","\","652","space","11245","11245","(80, 80, 80)","(0, 122, 0)","(179, 0, 0)","(155, 155, 155)","2","legacy","experiment","[4, 5, 6, 7, 0, 1, 2, 3]","\","2500","3000","0","8","252.758751519","1024","2","48000","-16","main","[(0, -252), (178, -178), (252, 0), (178, 178), (0, 252), (-178, 178), (-252, 0), (-178, -178)]","[]","5","odd","1","1189207","1214679","1214678","1084318","1083311","1779","1111987","1111987","1779","1779","1095564","1354594","1778","1214679","1353939","1353108","1353108","NA","825","study_X","0","11245","1","yes","1680"
"undefined","undefined","11245","11245","black","no","legacy","legacy","legacy","0","green","(0, 122, 0)","color","absent","lowProb5","rectangular","same","same","same","swap","green","(0, 122, 0)","lowProb","lowProb5","rectangular","uniform","0","undefined","0.255208333333","1","1","377.348958333","1","49","72451","0","0","0","0","0","0","0","0","77","0","1","0.255208333333","377.348958333","49","72451","77","77","77","08/17/17 10:36:55","Default description","yes","<openexp._canvas.legacy.legacy object at 0x047F27F0>","<openexp._canvas.legacy.legacy object at 0x047FE7B0>","<openexp._canvas.legacy.legacy object at 0x047EA510>","<openexp._canvas.legacy.legacy object at 0x048E09D0>","<openexp._canvas.legacy.legacy object at 0x048B14B0>","<openexp._canvas.legacy.legacy object at 0x04808DB0>","<openexp._canvas.legacy.legacy object at 0x048B2BD0>","75","IndividualPriorityWithDis_v1.osexp","C:/Userdata/Michel/SpatialProb/IndividualPriorityMaps/Experiment2","no","mono","no","18","no","white","no","yes","0.09","98","1050","legacy","315","52","52","1","C:/Userdata/Michel/SpatialProb/IndividualPriorityMaps/Experiment2/data/subject-5.csv","legacy","9","192","25","Jazzy James","3.1.3","yes","598477b2b83f69022949e7e9","47","green","rectangular","green","rectangular","0","None","2500","space","11245","11245","(80, 80, 80)","(0, 122, 0)","(179, 0, 0)","(155, 155, 155)","2","legacy","experiment","[4, 5, 6, 7, 0, 1, 2, 3]","/","2500","3000","0","8","252.758751519","1024","2","48000","-16","main","[(0, -252), (178, -178), (252, 0), (178, 178), (0, 252), (-178, 178), (-252, 0), (-178, -178)]","[]","5","odd","2","1189207","1214679","1214678","1084318","1083311","1779","1111987","1111987","1779","1779","1095564","1358338","1778","1214679","1355835","1355004","1355004","NA","825","study_X","0","11245","1","yes","1680"
