acc,accuracy,answerQ1,answerQ2,answerQ3,average_response_time,avg_rt,background,bidi,canvas_backend,clock_backend,color_backend,compensation,cond_disColor,cond_disColorRGB,cond_disFeature,cond_disPresent,cond_disProbability,cond_disShape,cond_primingDisColor,cond_primingDisShape,cond_primingTarColor,cond_primingTarShape,cond_tarColor,cond_tarColorRGB,cond_tarLocation,cond_tarLocationLong,cond_tarShape,coordinates,correct,correct_continuePress,count_Questions,count_blockAcc,count_blockFeed,count_blockLoop,count_blockRT,count_blockSeq,count_blockSumCorrect,count_blockSumRT,count_continuePress,count_example,count_expSettings,count_exp_mainLoop,count_experiment,count_instructions,count_instructions1,count_instructions2,count_log,count_main,count_prepCanvas,count_totalAcc,count_totalRT,count_totalSumCorrect,count_totalSumRT,count_trialResp,count_trialSeq,count_trialTask,datetime,description,disable_garbage_collection,dispBlank,dispBlockStart,dispFeedBlock,dispFix,dispInstructions,dispQuestions,dispSearch,dispStartScreen,distance2screen,experiment_file,experiment_path,font_bold,font_family,font_italic,font_size,font_underline,foreground,form_clicks,fullscreen,gaborFreq,gaborSize,height,keyboard_backend,lineOriTar,live_row,live_row_blockLoop,live_row_exp_mainLoop,logfile,mouse_backend,noExpBlocks,noExpTrials,noPracTrials,opensesame_codename,opensesame_version,osf_always_upload_experiment,osf_id,physical_screensize,previousDisColor,previousDisShape,previousTarColor,previousTarShape,repeat_cycle,response,responseTime,response_continuePress,response_time,response_time_continuePress,rgb_gray,rgb_green,rgb_red,rgb_white,round_decimals,sampler_backend,set_blockType,set_counterPositions,set_respCorrect,set_respTimeoutExp,set_respTimeoutPrac,set_rotation,set_setSize,sizeImaginary,sound_buf_size,sound_channels,sound_freq,sound_sample_size,start,stimPositions,stimuli,subject_nr,subject_parity,tarIdx,time_Questions,time_blockFeed,time_blockLoop,time_blockSeq,time_continuePress,time_example,time_expSettings,time_exp_mainLoop,time_experiment,time_instructions,time_instructions1,time_instructions2,time_log,time_main,time_prepCanvas,time_trialResp,time_trialSeq,time_trialTask,timing_EEGwait,timing_fix,title,total_correct,total_response_time,total_responses,uniform_coordinates,width
undefined,undefined,NA,NA,NA,12075,12075,black,no,legacy,legacy,legacy,0,green,"(0, 123, 0)",color,present,highProb,circular,same,same,swap,swap,red,"(177, 0, 0)",lowProb,lowProb5,circular,uniform,1,undefined,0,0.005208333,1,1,3.989583333,1,1,766,0,0,0,0,0,0,0,0,26,0,1,0.005208333,3.989583333,1,766,25,25,25,11/27/2018 16:35,Default description,yes,<openexp._canvas.legacy.Legacy object at 0x054A07F0>,<openexp._canvas.legacy.Legacy object at 0x05506C50>,<openexp._canvas.legacy.Legacy object at 0x054D07F0>,<openexp._canvas.legacy.Legacy object at 0x05324930>,<openexp._canvas.legacy.Legacy object at 0x05314190>,<openexp._canvas.legacy.Legacy object at 0x05494290>,<openexp._canvas.legacy.Legacy object at 0x053294D0>,<openexp._canvas.legacy.Legacy object at 0x05324970>,75,SpatProbMultiple3.osexp,C:/Userdata/Michel/SpatProbMultiple3,no,mono,no,18,no,white,no,yes,0.09,98,1050,legacy,315,0,0,1,C:/Userdata/Michel/SpatProbMultiple3/beh/subject-17.csv,legacy,9,192,25,Kafkaesque Koffka,3.2.5,yes,598477b2b83f69022949e7e9,47,green,circular,red,circular,0,/,766,space,12075,12075,"(80, 80, 80)","(0, 123, 0)","(177, 0, 0)","(155, 155, 155)",2,legacy,experiment,"[0, 1, 2, 3, 4, 5, 6, 7]",/,2500,3000,0,8,252.7587515,1024,2,48000,-16,main,"[(0, -252), (178, -178), (252, 0), (178, 178), (0, 252), (-178, 178), (-252, 0), (-178, -178)]",[],41,odd,6,NA,1039784,1044764,1044764,909539,908527,1923,964833,964833,1923,1923,921615,1052069,1922,1044764,1051300,1045165,1045165,NA,972,study_X,0,12075,1,yes,1680
undefined,undefined,NA,NA,NA,12075,12075,black,no,legacy,legacy,legacy,0,red,"(177, 0, 0)",color,present,highProb,circular,swap,same,swap,same,green,"(0, 123, 0)",lowProb,lowProb4,circular,uniform,1,undefined,0,0.010416667,1,1,6.802083333,1,2,1306,0,0,0,0,0,0,0,0,27,0,1,0.010416667,6.802083333,2,1306,26,26,26,11/27/2018 16:35,Default description,yes,<openexp._canvas.legacy.Legacy object at 0x054A07F0>,<openexp._canvas.legacy.Legacy object at 0x05506C50>,<openexp._canvas.legacy.Legacy object at 0x054D07F0>,<openexp._canvas.legacy.Legacy object at 0x05324930>,<openexp._canvas.legacy.Legacy object at 0x05314190>,<openexp._canvas.legacy.Legacy object at 0x05494290>,<openexp._canvas.legacy.Legacy object at 0x054B7130>,<openexp._canvas.legacy.Legacy object at 0x05324970>,75,SpatProbMultiple3.osexp,C:/Userdata/Michel/SpatProbMultiple3,no,mono,no,18,no,white,no,yes,0.09,98,1050,legacy,45,1,1,1,C:/Userdata/Michel/SpatProbMultiple3/beh/subject-17.csv,legacy,9,192,25,Kafkaesque Koffka,3.2.5,yes,598477b2b83f69022949e7e9,47,red,circular,green,circular,0,\,540,space,12075,12075,"(80, 80, 80)","(0, 123, 0)","(177, 0, 0)","(155, 155, 155)",2,legacy,experiment,"[0, 1, 2, 3, 4, 5, 6, 7]",\,2500,3000,0,8,252.7587515,1024,2,48000,-16,main,"[(0, -252), (178, -178), (252, 0), (178, 178), (0, 252), (-178, 178), (-252, 0), (-178, -178)]",[],41,odd,5,NA,1039784,1044764,1044764,909539,908527,1923,964833,964833,1923,1923,921615,1054045,1922,1044764,1053503,1052522,1052522,NA,972,study_X,0,12075,1,yes,1680
undefined,undefined,NA,NA,NA,12075,12075,black,no,legacy,legacy,legacy,0,red,"(177, 0, 0)",shape,present,highProb,rectangular,same,swap,swap,same,red,"(177, 0, 0)",highProbColor,highProbColor,circular,uniform,0,undefined,0,0.010416667,1,1,16.69270833,1,2,3205,0,0,0,0,0,0,0,0,28,0,1,0.010416667,16.69270833,2,3205,27,27,27,11/27/2018 16:35,Default description,yes,<openexp._canvas.legacy.Legacy object at 0x054A07F0>,<openexp._canvas.legacy.Legacy object at 0x05506C50>,<openexp._canvas.legacy.Legacy object at 0x054D07F0>,<openexp._canvas.legacy.Legacy object at 0x05324930>,<openexp._canvas.legacy.Legacy object at 0x05314190>,<openexp._canvas.legacy.Legacy object at 0x05494290>,<openexp._canvas.legacy.Legacy object at 0x05506530>,<openexp._canvas.legacy.Legacy object at 0x05324970>,75,SpatProbMultiple3.osexp,C:/Userdata/Michel/SpatProbMultiple3,no,mono,no,18,no,white,no,yes,0.09,98,1050,legacy,45,2,2,1,C:/Userdata/Michel/SpatProbMultiple3/beh/subject-17.csv,legacy,9,192,25,Kafkaesque Koffka,3.2.5,yes,598477b2b83f69022949e7e9,47,red,rectangular,red,circular,0,/,1899,space,12075,12075,"(80, 80, 80)","(0, 123, 0)","(177, 0, 0)","(155, 155, 155)",2,legacy,experiment,"[0, 1, 2, 3, 4, 5, 6, 7]",\,2500,3000,0,8,252.7587515,1024,2,48000,-16,main,"[(0, -252), (178, -178), (252, 0), (178, 178), (0, 252), (-178, 178), (-252, 0), (-178, -178)]",[],41,odd,0,NA,1039784,1044764,1044764,909539,908527,1923,964833,964833,1923,1923,921615,1057374,1922,1044764,1055472,1054491,1054491,NA,972,study_X,0,12075,1,yes,1680
undefined,undefined,NA,NA,NA,12075,12075,black,no,legacy,legacy,legacy,0,red,"(177, 0, 0)",color,present,highProb,rectangular,same,same,swap,swap,green,"(0, 123, 0)",lowProb,lowProb3,rectangular,uniform,1,undefined,0,0.015625,1,1,24.34375,1,3,4674,0,0,0,0,0,0,0,0,29,0,1,0.015625,24.34375,3,4674,28,28,28,11/27/2018 16:35,Default description,yes,<openexp._canvas.legacy.Legacy object at 0x054A07F0>,<openexp._canvas.legacy.Legacy object at 0x05506C50>,<openexp._canvas.legacy.Legacy object at 0x054D07F0>,<openexp._canvas.legacy.Legacy object at 0x05324930>,<openexp._canvas.legacy.Legacy object at 0x05314190>,<openexp._canvas.legacy.Legacy object at 0x05494290>,<openexp._canvas.legacy.Legacy object at 0x054A0EB0>,<openexp._canvas.legacy.Legacy object at 0x05324970>,75,SpatProbMultiple3.osexp,C:/Userdata/Michel/SpatProbMultiple3,no,mono,no,18,no,white,no,yes,0.09,98,1050,legacy,45,3,3,1,C:/Userdata/Michel/SpatProbMultiple3/beh/subject-17.csv,legacy,9,192,25,Kafkaesque Koffka,3.2.5,yes,598477b2b83f69022949e7e9,47,red,rectangular,green,rectangular,0,\,1469,space,12075,12075,"(80, 80, 80)","(0, 123, 0)","(177, 0, 0)","(155, 155, 155)",2,legacy,experiment,"[0, 1, 2, 3, 4, 5, 6, 7]",\,2500,3000,0,8,252.7587515,1024,2,48000,-16,main,"[(0, -252), (178, -178), (252, 0), (178, 178), (0, 252), (-178, 178), (-252, 0), (-178, -178)]",[],41,odd,3,NA,1039784,1044764,1044764,909539,908527,1923,964833,964833,1923,1923,921615,1060246,1922,1044764,1058774,1057793,1057793,NA,972,study_X,0,12075,1,yes,1680
undefined,undefined,NA,NA,NA,12075,12075,black,no,legacy,legacy,legacy,0,green,"(0, 123, 0)",shape,present,highProb,circular,swap,swap,same,same,green,"(0, 123, 0)",lowProb,lowProb1,rectangular,uniform,1,undefined,0,0.020833333,1,1,34.32291667,1,4,6590,0,0,0,0,0,0,0,0,30,0,1,0.020833333,34.32291667,4,6590,29,29,29,11/27/2018 16:35,Default description,yes,<openexp._canvas.legacy.Legacy object at 0x054A07F0>,<openexp._canvas.legacy.Legacy object at 0x05506C50>,<openexp._canvas.legacy.Legacy object at 0x054D07F0>,<openexp._canvas.legacy.Legacy object at 0x05324930>,<openexp._canvas.legacy.Legacy object at 0x05314190>,<openexp._canvas.legacy.Legacy object at 0x05494290>,<openexp._canvas.legacy.Legacy object at 0x054B77B0>,<openexp._canvas.legacy.Legacy object at 0x05324970>,75,SpatProbMultiple3.osexp,C:/Userdata/Michel/SpatProbMultiple3,no,mono,no,18,no,white,no,yes,0.09,98,1050,legacy,45,4,4,1,C:/Userdata/Michel/SpatProbMultiple3/beh/subject-17.csv,legacy,9,192,25,Kafkaesque Koffka,3.2.5,yes,598477b2b83f69022949e7e9,47,green,circular,green,rectangular,0,\,1916,space,12075,12075,"(80, 80, 80)","(0, 123, 0)","(177, 0, 0)","(155, 155, 155)",2,legacy,experiment,"[0, 1, 2, 3, 4, 5, 6, 7]",\,2500,3000,0,8,252.7587515,1024,2,48000,-16,main,"[(0, -252), (178, -178), (252, 0), (178, 178), (0, 252), (-178, 178), (-252, 0), (-178, -178)]",[],41,odd,1,NA,1039784,1044764,1044764,909539,908527,1923,964833,964833,1923,1923,921615,1063582,1922,1044764,1061662,1060680,1060680,NA,972,study_X,0,12075,1,yes,1680
undefined,undefined,NA,NA,NA,12075,12075,black,no,legacy,legacy,legacy,0,green,"(0, 123, 0)",color,present,highProb,circular,same,same,swap,swap,red,"(177, 0, 0)",highProbShape,highProbShape,circular,uniform,1,undefined,0,0.026041667,1,1,40.078125,1,5,7695,0,0,0,0,0,0,0,0,31,0,1,0.026041667,40.078125,5,7695,30,30,30,11/27/2018 16:35,Default description,yes,<openexp._canvas.legacy.Legacy object at 0x054A07F0>,<openexp._canvas.legacy.Legacy object at 0x05506C50>,<openexp._canvas.legacy.Legacy object at 0x054D07F0>,<openexp._canvas.legacy.Legacy object at 0x05324930>,<openexp._canvas.legacy.Legacy object at 0x05314190>,<openexp._canvas.legacy.Legacy object at 0x05494290>,<openexp._canvas.legacy.Legacy object at 0x053246D0>,<openexp._canvas.legacy.Legacy object at 0x05324970>,75,SpatProbMultiple3.osexp,C:/Userdata/Michel/SpatProbMultiple3,no,mono,no,18,no,white,no,yes,0.09,98,1050,legacy,45,5,5,1,C:/Userdata/Michel/SpatProbMultiple3/beh/subject-17.csv,legacy,9,192,25,Kafkaesque Koffka,3.2.5,yes,598477b2b83f69022949e7e9,47,green,circular,red,circular,0,\,1105,space,12075,12075,"(80, 80, 80)","(0, 123, 0)","(177, 0, 0)","(155, 155, 155)",2,legacy,experiment,"[0, 1, 2, 3, 4, 5, 6, 7]",\,2500,3000,0,8,252.7587515,1024,2,48000,-16,main,"[(0, -252), (178, -178), (252, 0), (178, 178), (0, 252), (-178, 178), (-252, 0), (-178, -178)]",[],41,odd,4,NA,1039784,1044764,1044764,909539,908527,1923,964833,964833,1923,1923,921615,1066117,1922,1044764,1065010,1064028,1064028,NA,972,study_X,0,12075,1,yes,1680
undefined,undefined,NA,NA,NA,12075,12075,black,no,legacy,legacy,legacy,0,red,"(177, 0, 0)",shape,present,highProb,circular,swap,same,same,swap,red,"(177, 0, 0)",lowProb,lowProb5,rectangular,uniform,1,undefined,0,0.03125,1,1,50.015625,1,6,9603,0,0,0,0,0,0,0,0,32,0,1,0.03125,50.015625,6,9603,31,31,31,11/27/2018 16:35,Default description,yes,<openexp._canvas.legacy.Legacy object at 0x054A07F0>,<openexp._canvas.legacy.Legacy object at 0x05506C50>,<openexp._canvas.legacy.Legacy object at 0x054D07F0>,<openexp._canvas.legacy.Legacy object at 0x05324930>,<openexp._canvas.legacy.Legacy object at 0x05314190>,<openexp._canvas.legacy.Legacy object at 0x05494290>,<openexp._canvas.legacy.Legacy object at 0x05329290>,<openexp._canvas.legacy.Legacy object at 0x05324970>,75,SpatProbMultiple3.osexp,C:/Userdata/Michel/SpatProbMultiple3,no,mono,no,18,no,white,no,yes,0.09,98,1050,legacy,315,6,6,1,C:/Userdata/Michel/SpatProbMultiple3/beh/subject-17.csv,legacy,9,192,25,Kafkaesque Koffka,3.2.5,yes,598477b2b83f69022949e7e9,47,red,circular,red,rectangular,0,/,1908,space,12075,12075,"(80, 80, 80)","(0, 123, 0)","(177, 0, 0)","(155, 155, 155)",2,legacy,experiment,"[0, 1, 2, 3, 4, 5, 6, 7]",/,2500,3000,0,8,252.7587515,1024,2,48000,-16,main,"[(0, -252), (178, -178), (252, 0), (178, 178), (0, 252), (-178, 178), (-252, 0), (-178, -178)]",[],41,odd,6,NA,1039784,1044764,1044764,909539,908527,1923,964833,964833,1923,1923,921615,1069437,1922,1044764,1067526,1066544,1066544,NA,972,study_X,0,12075,1,yes,1680
undefined,undefined,NA,NA,NA,12075,12075,black,no,legacy,legacy,legacy,0,red,"(177, 0, 0)",color,present,highProb,rectangular,same,swap,swap,same,green,"(0, 123, 0)",lowProb,lowProb5,rectangular,uniform,0,undefined,0,0.03125,1,1,63.03645833,1,6,12103,0,0,0,0,0,0,0,0,33,0,1,0.03125,63.03645833,6,12103,32,32,32,11/27/2018 16:35,Default description,yes,<openexp._canvas.legacy.Legacy object at 0x054A07F0>,<openexp._canvas.legacy.Legacy object at 0x05506C50>,<openexp._canvas.legacy.Legacy object at 0x054D07F0>,<openexp._canvas.legacy.Legacy object at 0x05324930>,<openexp._canvas.legacy.Legacy object at 0x05314190>,<openexp._canvas.legacy.Legacy object at 0x05494290>,<openexp._canvas.legacy.Legacy object at 0x054B73B0>,<openexp._canvas.legacy.Legacy object at 0x05324970>,75,SpatProbMultiple3.osexp,C:/Userdata/Michel/SpatProbMultiple3,no,mono,no,18,no,white,no,yes,0.09,98,1050,legacy,45,7,7,1,C:/Userdata/Michel/SpatProbMultiple3/beh/subject-17.csv,legacy,9,192,25,Kafkaesque Koffka,3.2.5,yes,598477b2b83f69022949e7e9,47,red,rectangular,green,rectangular,0,None,2500,space,12075,12075,"(80, 80, 80)","(0, 123, 0)","(177, 0, 0)","(155, 155, 155)",2,legacy,experiment,"[0, 1, 2, 3, 4, 5, 6, 7]",\,2500,3000,0,8,252.7587515,1024,2,48000,-16,main,"[(0, -252), (178, -178), (252, 0), (178, 178), (0, 252), (-178, 178), (-252, 0), (-178, -178)]",[],41,odd,6,NA,1039784,1044764,1044764,909539,908527,1923,964833,964833,1923,1923,921615,1073365,1922,1044764,1070863,1069882,1069882,NA,972,study_X,0,12075,1,yes,1680
undefined,undefined,NA,NA,NA,12075,12075,black,no,legacy,legacy,legacy,0,red,"(177, 0, 0)",shape,present,highProb,rectangular,same,same,swap,swap,red,"(177, 0, 0)",lowProb,lowProb6,circular,uniform,1,undefined,0,0.036458333,1,1,70.41666667,1,7,13520,0,0,0,0,0,0,0,0,34,0,1,0.036458333,70.41666667,7,13520,33,33,33,11/27/2018 16:35,Default description,yes,<openexp._canvas.legacy.Legacy object at 0x054A07F0>,<openexp._canvas.legacy.Legacy object at 0x05506C50>,<openexp._canvas.legacy.Legacy object at 0x054D07F0>,<openexp._canvas.legacy.Legacy object at 0x05324930>,<openexp._canvas.legacy.Legacy object at 0x05314190>,<openexp._canvas.legacy.Legacy object at 0x05494290>,<openexp._canvas.legacy.Legacy object at 0x05506B90>,<openexp._canvas.legacy.Legacy object at 0x05324970>,75,SpatProbMultiple3.osexp,C:/Userdata/Michel/SpatProbMultiple3,no,mono,no,18,no,white,no,yes,0.09,98,1050,legacy,315,8,8,1,C:/Userdata/Michel/SpatProbMultiple3/beh/subject-17.csv,legacy,9,192,25,Kafkaesque Koffka,3.2.5,yes,598477b2b83f69022949e7e9,47,red,rectangular,red,circular,0,/,1417,space,12075,12075,"(80, 80, 80)","(0, 123, 0)","(177, 0, 0)","(155, 155, 155)",2,legacy,experiment,"[0, 1, 2, 3, 4, 5, 6, 7]",/,2500,3000,0,8,252.7587515,1024,2,48000,-16,main,"[(0, -252), (178, -178), (252, 0), (178, 178), (0, 252), (-178, 178), (-252, 0), (-178, -178)]",[],41,odd,7,NA,1039784,1044764,1044764,909539,908527,1923,964833,964833,1923,1923,921615,1076222,1922,1044764,1074802,1073821,1073821,NA,972,study_X,0,12075,1,yes,1680
undefined,undefined,NA,NA,NA,12075,12075,black,no,legacy,legacy,legacy,0,red,"(177, 0, 0)",shape,present,highProb,rectangular,same,same,same,same,red,"(177, 0, 0)",lowProb,lowProb6,circular,uniform,1,undefined,0,0.041666667,1,1,73.640625,1,8,14139,0,0,0,0,0,0,0,0,35,0,1,0.041666667,73.640625,8,14139,34,34,34,11/27/2018 16:35,Default description,yes,<openexp._canvas.legacy.Legacy object at 0x054A07F0>,<openexp._canvas.legacy.Legacy object at 0x05506C50>,<openexp._canvas.legacy.Legacy object at 0x054D07F0>,<openexp._canvas.legacy.Legacy object at 0x05324930>,<openexp._canvas.legacy.Legacy object at 0x05314190>,<openexp._canvas.legacy.Legacy object at 0x05494290>,<openexp._canvas.legacy.Legacy object at 0x054AB310>,<openexp._canvas.legacy.Legacy object at 0x05324970>,75,SpatProbMultiple3.osexp,C:/Userdata/Michel/SpatProbMultiple3,no,mono,no,18,no,white,no,yes,0.09,98,1050,legacy,315,9,9,1,C:/Userdata/Michel/SpatProbMultiple3/beh/subject-17.csv,legacy,9,192,25,Kafkaesque Koffka,3.2.5,yes,598477b2b83f69022949e7e9,47,red,rectangular,red,circular,0,/,619,space,12075,12075,"(80, 80, 80)","(0, 123, 0)","(177, 0, 0)","(155, 155, 155)",2,legacy,experiment,"[0, 1, 2, 3, 4, 5, 6, 7]",/,2500,3000,0,8,252.7587515,1024,2,48000,-16,main,"[(0, -252), (178, -178), (252, 0), (178, 178), (0, 252), (-178, 178), (-252, 0), (-178, -178)]",[],41,odd,7,NA,1039784,1044764,1044764,909539,908527,1923,964833,964833,1923,1923,921615,1078254,1922,1044764,1077632,1076650,1076651,NA,972,study_X,0,12075,1,yes,1680
undefined,undefined,NA,NA,NA,12075,12075,black,no,legacy,legacy,legacy,0,red,"(177, 0, 0)",shape,absent,lowProb5,circular,same,swap,same,same,red,"(177, 0, 0)",lowProb,lowProb2,circular,uniform,1,undefined,0,0.046875,1,1,84.26041667,1,9,16178,0,0,0,0,0,0,0,0,36,0,1,0.046875,84.26041667,9,16178,35,35,35,11/27/2018 16:35,Default description,yes,<openexp._canvas.legacy.Legacy object at 0x054A07F0>,<openexp._canvas.legacy.Legacy object at 0x05506C50>,<openexp._canvas.legacy.Legacy object at 0x054D07F0>,<openexp._canvas.legacy.Legacy object at 0x05324930>,<openexp._canvas.legacy.Legacy object at 0x05314190>,<openexp._canvas.legacy.Legacy object at 0x05494290>,<openexp._canvas.legacy.Legacy object at 0x054B7F70>,<openexp._canvas.legacy.Legacy object at 0x05324970>,75,SpatProbMultiple3.osexp,C:/Userdata/Michel/SpatProbMultiple3,no,mono,no,18,no,white,no,yes,0.09,98,1050,legacy,45,10,10,1,C:/Userdata/Michel/SpatProbMultiple3/beh/subject-17.csv,legacy,9,192,25,Kafkaesque Koffka,3.2.5,yes,598477b2b83f69022949e7e9,47,red,circular,red,circular,0,\,2039,space,12075,12075,"(80, 80, 80)","(0, 123, 0)","(177, 0, 0)","(155, 155, 155)",2,legacy,experiment,"[0, 1, 2, 3, 4, 5, 6, 7]",\,2500,3000,0,8,252.7587515,1024,2,48000,-16,main,"[(0, -252), (178, -178), (252, 0), (178, 178), (0, 252), (-178, 178), (-252, 0), (-178, -178)]",[],41,odd,2,NA,1039784,1044764,1044764,909539,908527,1923,964833,964833,1923,1923,921615,1081725,1922,1044764,1079683,1078701,1078701,NA,972,study_X,0,12075,1,yes,1680
undefined,undefined,NA,NA,NA,12075,12075,black,no,legacy,legacy,legacy,0,green,"(0, 123, 0)",shape,present,lowProb3,rectangular,swap,swap,swap,same,green,"(0, 123, 0)",highProbShape,highProbShape,circular,uniform,0,undefined,0,0.046875,1,1,97.28125,1,9,18678,0,0,0,0,0,0,0,0,37,0,1,0.046875,97.28125,9,18678,36,36,36,11/27/2018 16:35,Default description,yes,<openexp._canvas.legacy.Legacy object at 0x054A07F0>,<openexp._canvas.legacy.Legacy object at 0x05506C50>,<openexp._canvas.legacy.Legacy object at 0x054D07F0>,<openexp._canvas.legacy.Legacy object at 0x05324930>,<openexp._canvas.legacy.Legacy object at 0x05314190>,<openexp._canvas.legacy.Legacy object at 0x05494290>,<openexp._canvas.legacy.Legacy object at 0x054DE7B0>,<openexp._canvas.legacy.Legacy object at 0x05324970>,75,SpatProbMultiple3.osexp,C:/Userdata/Michel/SpatProbMultiple3,no,mono,no,18,no,white,no,yes,0.09,98,1050,legacy,315,11,11,1,C:/Userdata/Michel/SpatProbMultiple3/beh/subject-17.csv,legacy,9,192,25,Kafkaesque Koffka,3.2.5,yes,598477b2b83f69022949e7e9,47,green,rectangular,green,circular,0,None,2500,space,12075,12075,"(80, 80, 80)","(0, 123, 0)","(177, 0, 0)","(155, 155, 155)",2,legacy,experiment,"[0, 1, 2, 3, 4, 5, 6, 7]",/,2500,3000,0,8,252.7587515,1024,2,48000,-16,main,"[(0, -252), (178, -178), (252, 0), (178, 178), (0, 252), (-178, 178), (-252, 0), (-178, -178)]",[],41,odd,4,NA,1039784,1044764,1044764,909539,908527,1923,964833,964833,1923,1923,921615,1085647,1922,1044764,1083145,1082163,1082163,NA,972,study_X,0,12075,1,yes,1680
undefined,undefined,NA,NA,NA,12075,12075,black,no,legacy,legacy,legacy,0,red,"(177, 0, 0)",shape,present,highProb,rectangular,swap,same,swap,same,red,"(177, 0, 0)",lowProb,lowProb2,circular,uniform,0,undefined,0,0.046875,1,1,110.3020833,1,9,21178,0,0,0,0,0,0,0,0,38,0,1,0.046875,110.3020833,9,21178,37,37,37,11/27/2018 16:35,Default description,yes,<openexp._canvas.legacy.Legacy object at 0x054A07F0>,<openexp._canvas.legacy.Legacy object at 0x05506C50>,<openexp._canvas.legacy.Legacy object at 0x054D07F0>,<openexp._canvas.legacy.Legacy object at 0x05324930>,<openexp._canvas.legacy.Legacy object at 0x05314190>,<openexp._canvas.legacy.Legacy object at 0x05494290>,<openexp._canvas.legacy.Legacy object at 0x05329250>,<openexp._canvas.legacy.Legacy object at 0x05324970>,75,SpatProbMultiple3.osexp,C:/Userdata/Michel/SpatProbMultiple3,no,mono,no,18,no,white,no,yes,0.09,98,1050,legacy,45,12,12,1,C:/Userdata/Michel/SpatProbMultiple3/beh/subject-17.csv,legacy,9,192,25,Kafkaesque Koffka,3.2.5,yes,598477b2b83f69022949e7e9,47,red,rectangular,red,circular,0,None,2500,space,12075,12075,"(80, 80, 80)","(0, 123, 0)","(177, 0, 0)","(155, 155, 155)",2,legacy,experiment,"[0, 1, 2, 3, 4, 5, 6, 7]",\,2500,3000,0,8,252.7587515,1024,2,48000,-16,main,"[(0, -252), (178, -178), (252, 0), (178, 178), (0, 252), (-178, 178), (-252, 0), (-178, -178)]",[],41,odd,2,NA,1039784,1044764,1044764,909539,908527,1923,964833,964833,1923,1923,921615,1089561,1922,1044764,1087058,1086077,1086077,NA,972,study_X,0,12075,1,yes,1680
undefined,undefined,NA,NA,NA,12075,12075,black,no,legacy,legacy,legacy,0,green,"(0, 123, 0)",shape,present,lowProb3,circular,swap,swap,swap,swap,green,"(0, 123, 0)",lowProb,lowProb4,rectangular,uniform,1,undefined,0,0.052083333,1,1,114.4947917,1,10,21983,0,0,0,0,0,0,0,0,39,0,1,0.052083333,114.4947917,10,21983,38,38,38,11/27/2018 16:35,Default description,yes,<openexp._canvas.legacy.Legacy object at 0x054A07F0>,<openexp._canvas.legacy.Legacy object at 0x05506C50>,<openexp._canvas.legacy.Legacy object at 0x054D07F0>,<openexp._canvas.legacy.Legacy object at 0x05324930>,<openexp._canvas.legacy.Legacy object at 0x05314190>,<openexp._canvas.legacy.Legacy object at 0x05494290>,<openexp._canvas.legacy.Legacy object at 0x054D0BF0>,<openexp._canvas.legacy.Legacy object at 0x05324970>,75,SpatProbMultiple3.osexp,C:/Userdata/Michel/SpatProbMultiple3,no,mono,no,18,no,white,no,yes,0.09,98,1050,legacy,315,13,13,1,C:/Userdata/Michel/SpatProbMultiple3/beh/subject-17.csv,legacy,9,192,25,Kafkaesque Koffka,3.2.5,yes,598477b2b83f69022949e7e9,47,green,circular,green,rectangular,0,/,805,space,12075,12075,"(80, 80, 80)","(0, 123, 0)","(177, 0, 0)","(155, 155, 155)",2,legacy,experiment,"[0, 1, 2, 3, 4, 5, 6, 7]",/,2500,3000,0,8,252.7587515,1024,2,48000,-16,main,"[(0, -252), (178, -178), (252, 0), (178, 178), (0, 252), (-178, 178), (-252, 0), (-178, -178)]",[],41,odd,5,NA,1039784,1044764,1044764,909539,908527,1923,964833,964833,1923,1923,921615,1091782,1922,1044764,1090973,1089991,1089991,NA,972,study_X,0,12075,1,yes,1680
undefined,undefined,NA,NA,NA,12075,12075,black,no,legacy,legacy,legacy,0,green,"(0, 123, 0)",color,present,lowProb6,circular,same,same,swap,swap,red,"(177, 0, 0)",lowProb,lowProb1,circular,uniform,1,undefined,0,0.057291667,1,1,118.3177083,1,11,22717,0,0,0,0,0,0,0,0,40,0,1,0.057291667,118.3177083,11,22717,39,39,39,11/27/2018 16:35,Default description,yes,<openexp._canvas.legacy.Legacy object at 0x054A07F0>,<openexp._canvas.legacy.Legacy object at 0x05506C50>,<openexp._canvas.legacy.Legacy object at 0x054D07F0>,<openexp._canvas.legacy.Legacy object at 0x05324930>,<openexp._canvas.legacy.Legacy object at 0x05314190>,<openexp._canvas.legacy.Legacy object at 0x05494290>,<openexp._canvas.legacy.Legacy object at 0x054D7C70>,<openexp._canvas.legacy.Legacy object at 0x05324970>,75,SpatProbMultiple3.osexp,C:/Userdata/Michel/SpatProbMultiple3,no,mono,no,18,no,white,no,yes,0.09,98,1050,legacy,315,14,14,1,C:/Userdata/Michel/SpatProbMultiple3/beh/subject-17.csv,legacy,9,192,25,Kafkaesque Koffka,3.2.5,yes,598477b2b83f69022949e7e9,47,green,circular,red,circular,0,/,734,space,12075,12075,"(80, 80, 80)","(0, 123, 0)","(177, 0, 0)","(155, 155, 155)",2,legacy,experiment,"[0, 1, 2, 3, 4, 5, 6, 7]",/,2500,3000,0,8,252.7587515,1024,2,48000,-16,main,"[(0, -252), (178, -178), (252, 0), (178, 178), (0, 252), (-178, 178), (-252, 0), (-178, -178)]",[],41,odd,1,NA,1039784,1044764,1044764,909539,908527,1923,964833,964833,1923,1923,921615,1093926,1922,1044764,1093188,1092206,1092206,NA,972,study_X,0,12075,1,yes,1680
undefined,undefined,NA,NA,NA,12075,12075,black,no,legacy,legacy,legacy,0,green,"(0, 123, 0)",color,absent,lowProb6,rectangular,same,swap,swap,swap,green,"(0, 123, 0)",lowProb,lowProb4,rectangular,uniform,1,undefined,0,0.0625,1,1,127.7239583,1,12,24523,0,0,0,0,0,0,0,0,41,0,1,0.0625,127.7239583,12,24523,40,40,40,11/27/2018 16:35,Default description,yes,<openexp._canvas.legacy.Legacy object at 0x054A07F0>,<openexp._canvas.legacy.Legacy object at 0x05506C50>,<openexp._canvas.legacy.Legacy object at 0x054D07F0>,<openexp._canvas.legacy.Legacy object at 0x05324930>,<openexp._canvas.legacy.Legacy object at 0x05314190>,<openexp._canvas.legacy.Legacy object at 0x05494290>,<openexp._canvas.legacy.Legacy object at 0x054D0CB0>,<openexp._canvas.legacy.Legacy object at 0x05324970>,75,SpatProbMultiple3.osexp,C:/Userdata/Michel/SpatProbMultiple3,no,mono,no,18,no,white,no,yes,0.09,98,1050,legacy,45,15,15,1,C:/Userdata/Michel/SpatProbMultiple3/beh/subject-17.csv,legacy,9,192,25,Kafkaesque Koffka,3.2.5,yes,598477b2b83f69022949e7e9,47,green,rectangular,green,rectangular,0,\,1806,space,12075,12075,"(80, 80, 80)","(0, 123, 0)","(177, 0, 0)","(155, 155, 155)",2,legacy,experiment,"[0, 1, 2, 3, 4, 5, 6, 7]",\,2500,3000,0,8,252.7587515,1024,2,48000,-16,main,"[(0, -252), (178, -178), (252, 0), (178, 178), (0, 252), (-178, 178), (-252, 0), (-178, -178)]",[],41,odd,5,NA,1039784,1044764,1044764,909539,908527,1923,964833,964833,1923,1923,921615,1097141,1922,1044764,1095332,1094351,1094351,NA,972,study_X,0,12075,1,yes,1680
undefined,undefined,NA,NA,NA,12075,12075,black,no,legacy,legacy,legacy,0,green,"(0, 123, 0)",color,present,highProb,rectangular,same,same,swap,same,red,"(177, 0, 0)",lowProb,lowProb5,rectangular,uniform,0,undefined,0,0.0625,1,1,138.2395833,1,12,26542,0,0,0,0,0,0,0,0,42,0,1,0.0625,138.2395833,12,26542,41,41,41,11/27/2018 16:35,Default description,yes,<openexp._canvas.legacy.Legacy object at 0x054A07F0>,<openexp._canvas.legacy.Legacy object at 0x05506C50>,<openexp._canvas.legacy.Legacy object at 0x054D07F0>,<openexp._canvas.legacy.Legacy object at 0x05324930>,<openexp._canvas.legacy.Legacy object at 0x05314190>,<openexp._canvas.legacy.Legacy object at 0x05494290>,<openexp._canvas.legacy.Legacy object at 0x05506450>,<openexp._canvas.legacy.Legacy object at 0x05324970>,75,SpatProbMultiple3.osexp,C:/Userdata/Michel/SpatProbMultiple3,no,mono,no,18,no,white,no,yes,0.09,98,1050,legacy,45,16,16,1,C:/Userdata/Michel/SpatProbMultiple3/beh/subject-17.csv,legacy,9,192,25,Kafkaesque Koffka,3.2.5,yes,598477b2b83f69022949e7e9,47,green,rectangular,red,rectangular,0,/,2019,space,12075,12075,"(80, 80, 80)","(0, 123, 0)","(177, 0, 0)","(155, 155, 155)",2,legacy,experiment,"[0, 1, 2, 3, 4, 5, 6, 7]",\,2500,3000,0,8,252.7587515,1024,2,48000,-16,main,"[(0, -252), (178, -178), (252, 0), (178, 178), (0, 252), (-178, 178), (-252, 0), (-178, -178)]",[],41,odd,6,NA,1039784,1044764,1044764,909539,908527,1923,964833,964833,1923,1923,921615,1100573,1922,1044764,1098552,1097570,1097570,NA,972,study_X,0,12075,1,yes,1680
undefined,undefined,NA,NA,NA,12075,12075,black,no,legacy,legacy,legacy,0,red,"(177, 0, 0)",shape,absent,lowProb3,circular,swap,swap,same,swap,red,"(177, 0, 0)",highProbColor,highProbColor,circular,uniform,1,undefined,0,0.067708333,1,1,146.1145833,1,13,28054,0,0,0,0,0,0,0,0,43,0,1,0.067708333,146.1145833,13,28054,42,42,42,11/27/2018 16:35,Default description,yes,<openexp._canvas.legacy.Legacy object at 0x054A07F0>,<openexp._canvas.legacy.Legacy object at 0x05506C50>,<openexp._canvas.legacy.Legacy object at 0x054D07F0>,<openexp._canvas.legacy.Legacy object at 0x05324930>,<openexp._canvas.legacy.Legacy object at 0x05314190>,<openexp._canvas.legacy.Legacy object at 0x05494290>,<openexp._canvas.legacy.Legacy object at 0x054A09F0>,<openexp._canvas.legacy.Legacy object at 0x05324970>,75,SpatProbMultiple3.osexp,C:/Userdata/Michel/SpatProbMultiple3,no,mono,no,18,no,white,no,yes,0.09,98,1050,legacy,45,17,17,1,C:/Userdata/Michel/SpatProbMultiple3/beh/subject-17.csv,legacy,9,192,25,Kafkaesque Koffka,3.2.5,yes,598477b2b83f69022949e7e9,47,red,circular,red,circular,0,\,1512,space,12075,12075,"(80, 80, 80)","(0, 123, 0)","(177, 0, 0)","(155, 155, 155)",2,legacy,experiment,"[0, 1, 2, 3, 4, 5, 6, 7]",\,2500,3000,0,8,252.7587515,1024,2,48000,-16,main,"[(0, -252), (178, -178), (252, 0), (178, 178), (0, 252), (-178, 178), (-252, 0), (-178, -178)]",[],41,odd,0,NA,1039784,1044764,1044764,909539,908527,1923,964833,964833,1923,1923,921615,1103517,1922,1044764,1102003,1101021,1101021,NA,972,study_X,0,12075,1,yes,1680
undefined,undefined,NA,NA,NA,12075,12075,black,no,legacy,legacy,legacy,0,red,"(177, 0, 0)",shape,present,highProb,circular,same,same,same,swap,red,"(177, 0, 0)",lowProb,lowProb5,rectangular,uniform,1,undefined,0,0.072916667,1,1,157.5104167,1,14,30242,0,0,0,0,0,0,0,0,44,0,1,0.072916667,157.5104167,14,30242,43,43,43,11/27/2018 16:35,Default description,yes,<openexp._canvas.legacy.Legacy object at 0x054A07F0>,<openexp._canvas.legacy.Legacy object at 0x05506C50>,<openexp._canvas.legacy.Legacy object at 0x054D07F0>,<openexp._canvas.legacy.Legacy object at 0x05324930>,<openexp._canvas.legacy.Legacy object at 0x05314190>,<openexp._canvas.legacy.Legacy object at 0x05494290>,<openexp._canvas.legacy.Legacy object at 0x05362EF0>,<openexp._canvas.legacy.Legacy object at 0x05324970>,75,SpatProbMultiple3.osexp,C:/Userdata/Michel/SpatProbMultiple3,no,mono,no,18,no,white,no,yes,0.09,98,1050,legacy,45,18,18,1,C:/Userdata/Michel/SpatProbMultiple3/beh/subject-17.csv,legacy,9,192,25,Kafkaesque Koffka,3.2.5,yes,598477b2b83f69022949e7e9,47,red,circular,red,rectangular,0,\,2188,space,12075,12075,"(80, 80, 80)","(0, 123, 0)","(177, 0, 0)","(155, 155, 155)",2,legacy,experiment,"[0, 1, 2, 3, 4, 5, 6, 7]",\,2500,3000,0,8,252.7587515,1024,2,48000,-16,main,"[(0, -252), (178, -178), (252, 0), (178, 178), (0, 252), (-178, 178), (-252, 0), (-178, -178)]",[],41,odd,6,NA,1039784,1044764,1044764,909539,908527,1923,964833,964833,1923,1923,921615,1107101,1922,1044764,1104910,1103929,1103929,NA,972,study_X,0,12075,1,yes,1680
undefined,undefined,NA,NA,NA,12075,12075,black,no,legacy,legacy,legacy,0,red,"(177, 0, 0)",shape,present,highProbOther,circular,same,same,same,same,red,"(177, 0, 0)",lowProb,lowProb3,rectangular,uniform,1,undefined,0,0.078125,1,1,163.109375,1,15,31317,0,0,0,0,0,0,0,0,45,0,1,0.078125,163.109375,15,31317,44,44,44,11/27/2018 16:35,Default description,yes,<openexp._canvas.legacy.Legacy object at 0x054A07F0>,<openexp._canvas.legacy.Legacy object at 0x05506C50>,<openexp._canvas.legacy.Legacy object at 0x054D07F0>,<openexp._canvas.legacy.Legacy object at 0x05324930>,<openexp._canvas.legacy.Legacy object at 0x05314190>,<openexp._canvas.legacy.Legacy object at 0x05494290>,<openexp._canvas.legacy.Legacy object at 0x05329C70>,<openexp._canvas.legacy.Legacy object at 0x05324970>,75,SpatProbMultiple3.osexp,C:/Userdata/Michel/SpatProbMultiple3,no,mono,no,18,no,white,no,yes,0.09,98,1050,legacy,45,19,19,1,C:/Userdata/Michel/SpatProbMultiple3/beh/subject-17.csv,legacy,9,192,25,Kafkaesque Koffka,3.2.5,yes,598477b2b83f69022949e7e9,47,red,circular,red,rectangular,0,\,1075,space,12075,12075,"(80, 80, 80)","(0, 123, 0)","(177, 0, 0)","(155, 155, 155)",2,legacy,experiment,"[0, 1, 2, 3, 4, 5, 6, 7]",\,2500,3000,0,8,252.7587515,1024,2,48000,-16,main,"[(0, -252), (178, -178), (252, 0), (178, 178), (0, 252), (-178, 178), (-252, 0), (-178, -178)]",[],41,odd,3,NA,1039784,1044764,1044764,909539,908527,1923,964833,964833,1923,1923,921615,1109590,1922,1044764,1108511,1107529,1107530,NA,972,study_X,0,12075,1,yes,1680
undefined,undefined,NA,NA,NA,12075,12075,black,no,legacy,legacy,legacy,0,red,"(177, 0, 0)",color,present,highProbOther,rectangular,same,swap,swap,same,green,"(0, 123, 0)",highProbColor,highProbColor,rectangular,uniform,1,undefined,0,0.083333333,1,1,171.0520833,1,16,32842,0,0,0,0,0,0,0,0,46,0,1,0.083333333,171.0520833,16,32842,45,45,45,11/27/2018 16:35,Default description,yes,<openexp._canvas.legacy.Legacy object at 0x054A07F0>,<openexp._canvas.legacy.Legacy object at 0x05506C50>,<openexp._canvas.legacy.Legacy object at 0x054D07F0>,<openexp._canvas.legacy.Legacy object at 0x05324930>,<openexp._canvas.legacy.Legacy object at 0x05314190>,<openexp._canvas.legacy.Legacy object at 0x05494290>,<openexp._canvas.legacy.Legacy object at 0x054B7FF0>,<openexp._canvas.legacy.Legacy object at 0x05324970>,75,SpatProbMultiple3.osexp,C:/Userdata/Michel/SpatProbMultiple3,no,mono,no,18,no,white,no,yes,0.09,98,1050,legacy,315,20,20,1,C:/Userdata/Michel/SpatProbMultiple3/beh/subject-17.csv,legacy,9,192,25,Kafkaesque Koffka,3.2.5,yes,598477b2b83f69022949e7e9,47,red,rectangular,green,rectangular,0,/,1525,space,12075,12075,"(80, 80, 80)","(0, 123, 0)","(177, 0, 0)","(155, 155, 155)",2,legacy,experiment,"[0, 1, 2, 3, 4, 5, 6, 7]",/,2500,3000,0,8,252.7587515,1024,2,48000,-16,main,"[(0, -252), (178, -178), (252, 0), (178, 178), (0, 252), (-178, 178), (-252, 0), (-178, -178)]",[],41,odd,0,NA,1039784,1044764,1044764,909539,908527,1923,964833,964833,1923,1923,921615,1112525,1922,1044764,1110998,1110016,1110016,NA,972,study_X,0,12075,1,yes,1680
undefined,undefined,NA,NA,NA,12075,12075,black,no,legacy,legacy,legacy,0,green,"(0, 123, 0)",shape,present,highProb,rectangular,swap,same,same,swap,green,"(0, 123, 0)",lowProb,lowProb3,circular,uniform,1,undefined,0,0.088541667,1,1,178.359375,1,17,34245,0,0,0,0,0,0,0,0,47,0,1,0.088541667,178.359375,17,34245,46,46,46,11/27/2018 16:35,Default description,yes,<openexp._canvas.legacy.Legacy object at 0x054A07F0>,<openexp._canvas.legacy.Legacy object at 0x05506C50>,<openexp._canvas.legacy.Legacy object at 0x054D07F0>,<openexp._canvas.legacy.Legacy object at 0x05324930>,<openexp._canvas.legacy.Legacy object at 0x05314190>,<openexp._canvas.legacy.Legacy object at 0x05494290>,<openexp._canvas.legacy.Legacy object at 0x054B76F0>,<openexp._canvas.legacy.Legacy object at 0x05324970>,75,SpatProbMultiple3.osexp,C:/Userdata/Michel/SpatProbMultiple3,no,mono,no,18,no,white,no,yes,0.09,98,1050,legacy,315,21,21,1,C:/Userdata/Michel/SpatProbMultiple3/beh/subject-17.csv,legacy,9,192,25,Kafkaesque Koffka,3.2.5,yes,598477b2b83f69022949e7e9,47,green,rectangular,green,circular,0,/,1403,space,12075,12075,"(80, 80, 80)","(0, 123, 0)","(177, 0, 0)","(155, 155, 155)",2,legacy,experiment,"[0, 1, 2, 3, 4, 5, 6, 7]",/,2500,3000,0,8,252.7587515,1024,2,48000,-16,main,"[(0, -252), (178, -178), (252, 0), (178, 178), (0, 252), (-178, 178), (-252, 0), (-178, -178)]",[],41,odd,3,NA,1039784,1044764,1044764,909539,908527,1923,964833,964833,1923,1923,921615,1115341,1922,1044764,1113936,1112954,1112954,NA,972,study_X,0,12075,1,yes,1680
undefined,undefined,NA,NA,NA,12075,12075,black,no,legacy,legacy,legacy,0,red,"(177, 0, 0)",shape,absent,lowProb6,rectangular,swap,same,swap,swap,red,"(177, 0, 0)",lowProb,lowProb6,rectangular,uniform,1,undefined,0,0.09375,1,1,189.2708333,1,18,36340,0,0,0,0,0,0,0,0,48,0,1,0.09375,189.2708333,18,36340,47,47,47,11/27/2018 16:35,Default description,yes,<openexp._canvas.legacy.Legacy object at 0x054A07F0>,<openexp._canvas.legacy.Legacy object at 0x05506C50>,<openexp._canvas.legacy.Legacy object at 0x054D07F0>,<openexp._canvas.legacy.Legacy object at 0x05324930>,<openexp._canvas.legacy.Legacy object at 0x05314190>,<openexp._canvas.legacy.Legacy object at 0x05494290>,<openexp._canvas.legacy.Legacy object at 0x054AB4B0>,<openexp._canvas.legacy.Legacy object at 0x05324970>,75,SpatProbMultiple3.osexp,C:/Userdata/Michel/SpatProbMultiple3,no,mono,no,18,no,white,no,yes,0.09,98,1050,legacy,315,22,22,1,C:/Userdata/Michel/SpatProbMultiple3/beh/subject-17.csv,legacy,9,192,25,Kafkaesque Koffka,3.2.5,yes,598477b2b83f69022949e7e9,47,red,rectangular,red,rectangular,0,/,2095,space,12075,12075,"(80, 80, 80)","(0, 123, 0)","(177, 0, 0)","(155, 155, 155)",2,legacy,experiment,"[0, 1, 2, 3, 4, 5, 6, 7]",/,2500,3000,0,8,252.7587515,1024,2,48000,-16,main,"[(0, -252), (178, -178), (252, 0), (178, 178), (0, 252), (-178, 178), (-252, 0), (-178, -178)]",[],41,odd,7,NA,1039784,1044764,1044764,909539,908527,1923,964833,964833,1923,1923,921615,1118845,1922,1044764,1116747,1115766,1115766,NA,972,study_X,0,12075,1,yes,1680
undefined,undefined,NA,NA,NA,12075,12075,black,no,legacy,legacy,legacy,0,red,"(177, 0, 0)",color,present,highProb,rectangular,same,same,swap,same,green,"(0, 123, 0)",lowProb,lowProb1,rectangular,uniform,0,undefined,0,0.09375,1,1,197.828125,1,18,37983,0,0,0,0,0,0,0,0,49,0,1,0.09375,197.828125,18,37983,48,48,48,11/27/2018 16:35,Default description,yes,<openexp._canvas.legacy.Legacy object at 0x054A07F0>,<openexp._canvas.legacy.Legacy object at 0x05506C50>,<openexp._canvas.legacy.Legacy object at 0x054D07F0>,<openexp._canvas.legacy.Legacy object at 0x05324930>,<openexp._canvas.legacy.Legacy object at 0x05314190>,<openexp._canvas.legacy.Legacy object at 0x05494290>,<openexp._canvas.legacy.Legacy object at 0x05506730>,<openexp._canvas.legacy.Legacy object at 0x05324970>,75,SpatProbMultiple3.osexp,C:/Userdata/Michel/SpatProbMultiple3,no,mono,no,18,no,white,no,yes,0.09,98,1050,legacy,45,23,23,1,C:/Userdata/Michel/SpatProbMultiple3/beh/subject-17.csv,legacy,9,192,25,Kafkaesque Koffka,3.2.5,yes,598477b2b83f69022949e7e9,47,red,rectangular,green,rectangular,0,/,1643,space,12075,12075,"(80, 80, 80)","(0, 123, 0)","(177, 0, 0)","(155, 155, 155)",2,legacy,experiment,"[0, 1, 2, 3, 4, 5, 6, 7]",\,2500,3000,0,8,252.7587515,1024,2,48000,-16,main,"[(0, -252), (178, -178), (252, 0), (178, 178), (0, 252), (-178, 178), (-252, 0), (-178, -178)]",[],41,odd,1,NA,1039784,1044764,1044764,909539,908527,1923,964833,964833,1923,1923,921615,1121885,1922,1044764,1120238,1119256,1119257,NA,972,study_X,0,12075,1,yes,1680
undefined,undefined,NA,NA,NA,12075,12075,black,no,legacy,legacy,legacy,0,green,"(0, 123, 0)",shape,present,highProb,rectangular,swap,same,same,swap,green,"(0, 123, 0)",lowProb,lowProb4,circular,uniform,1,undefined,0,0.098958333,1,1,201.1614583,1,19,38623,0,0,0,0,0,0,0,0,50,0,1,0.098958333,201.1614583,19,38623,49,49,49,11/27/2018 16:35,Default description,yes,<openexp._canvas.legacy.Legacy object at 0x054A07F0>,<openexp._canvas.legacy.Legacy object at 0x05506C50>,<openexp._canvas.legacy.Legacy object at 0x054D07F0>,<openexp._canvas.legacy.Legacy object at 0x05324930>,<openexp._canvas.legacy.Legacy object at 0x05314190>,<openexp._canvas.legacy.Legacy object at 0x05494290>,<openexp._canvas.legacy.Legacy object at 0x054B7FF0>,<openexp._canvas.legacy.Legacy object at 0x05324970>,75,SpatProbMultiple3.osexp,C:/Userdata/Michel/SpatProbMultiple3,no,mono,no,18,no,white,no,yes,0.09,98,1050,legacy,45,24,24,1,C:/Userdata/Michel/SpatProbMultiple3/beh/subject-17.csv,legacy,9,192,25,Kafkaesque Koffka,3.2.5,yes,598477b2b83f69022949e7e9,47,green,rectangular,green,circular,0,\,640,space,12075,12075,"(80, 80, 80)","(0, 123, 0)","(177, 0, 0)","(155, 155, 155)",2,legacy,experiment,"[0, 1, 2, 3, 4, 5, 6, 7]",\,2500,3000,0,8,252.7587515,1024,2,48000,-16,main,"[(0, -252), (178, -178), (252, 0), (178, 178), (0, 252), (-178, 178), (-252, 0), (-178, -178)]",[],41,odd,5,NA,1039784,1044764,1044764,909539,908527,1923,964833,964833,1923,1923,921615,1123941,1922,1044764,1123298,1122316,1122316,NA,972,study_X,0,12075,1,yes,1680
undefined,undefined,NA,NA,NA,12075,12075,black,no,legacy,legacy,legacy,0,red,"(177, 0, 0)",shape,present,highProb,rectangular,swap,same,swap,same,red,"(177, 0, 0)",lowProb,lowProb3,circular,uniform,1,undefined,0,0.104166667,1,1,205.046875,1,20,39369,0,0,0,0,0,0,0,0,51,0,1,0.104166667,205.046875,20,39369,50,50,50,11/27/2018 16:35,Default description,yes,<openexp._canvas.legacy.Legacy object at 0x054A07F0>,<openexp._canvas.legacy.Legacy object at 0x05506C50>,<openexp._canvas.legacy.Legacy object at 0x054D07F0>,<openexp._canvas.legacy.Legacy object at 0x05324930>,<openexp._canvas.legacy.Legacy object at 0x05314190>,<openexp._canvas.legacy.Legacy object at 0x05494290>,<openexp._canvas.legacy.Legacy object at 0x054AB890>,<openexp._canvas.legacy.Legacy object at 0x05324970>,75,SpatProbMultiple3.osexp,C:/Userdata/Michel/SpatProbMultiple3,no,mono,no,18,no,white,no,yes,0.09,98,1050,legacy,315,25,25,1,C:/Userdata/Michel/SpatProbMultiple3/beh/subject-17.csv,legacy,9,192,25,Kafkaesque Koffka,3.2.5,yes,598477b2b83f69022949e7e9,47,red,rectangular,red,circular,0,/,746,space,12075,12075,"(80, 80, 80)","(0, 123, 0)","(177, 0, 0)","(155, 155, 155)",2,legacy,experiment,"[0, 1, 2, 3, 4, 5, 6, 7]",/,2500,3000,0,8,252.7587515,1024,2,48000,-16,main,"[(0, -252), (178, -178), (252, 0), (178, 178), (0, 252), (-178, 178), (-252, 0), (-178, -178)]",[],41,odd,3,NA,1039784,1044764,1044764,909539,908527,1923,964833,964833,1923,1923,921615,1126086,1922,1044764,1125336,1124354,1124354,NA,972,study_X,0,12075,1,yes,1680
undefined,undefined,NA,NA,NA,12075,12075,black,no,legacy,legacy,legacy,0,red,"(177, 0, 0)",shape,present,lowProb6,circular,same,swap,same,swap,red,"(177, 0, 0)",lowProb,lowProb1,rectangular,uniform,1,undefined,0,0.109375,1,1,211.6145833,1,21,40630,0,0,0,0,0,0,0,0,52,0,1,0.109375,211.6145833,21,40630,51,51,51,11/27/2018 16:35,Default description,yes,<openexp._canvas.legacy.Legacy object at 0x054A07F0>,<openexp._canvas.legacy.Legacy object at 0x05506C50>,<openexp._canvas.legacy.Legacy object at 0x054D07F0>,<openexp._canvas.legacy.Legacy object at 0x05324930>,<openexp._canvas.legacy.Legacy object at 0x05314190>,<openexp._canvas.legacy.Legacy object at 0x05494290>,<openexp._canvas.legacy.Legacy object at 0x054B7890>,<openexp._canvas.legacy.Legacy object at 0x05324970>,75,SpatProbMultiple3.osexp,C:/Userdata/Michel/SpatProbMultiple3,no,mono,no,18,no,white,no,yes,0.09,98,1050,legacy,45,26,26,1,C:/Userdata/Michel/SpatProbMultiple3/beh/subject-17.csv,legacy,9,192,25,Kafkaesque Koffka,3.2.5,yes,598477b2b83f69022949e7e9,47,red,circular,red,rectangular,0,\,1261,space,12075,12075,"(80, 80, 80)","(0, 123, 0)","(177, 0, 0)","(155, 155, 155)",2,legacy,experiment,"[0, 1, 2, 3, 4, 5, 6, 7]",\,2500,3000,0,8,252.7587515,1024,2,48000,-16,main,"[(0, -252), (178, -178), (252, 0), (178, 178), (0, 252), (-178, 178), (-252, 0), (-178, -178)]",[],41,odd,1,NA,1039784,1044764,1044764,909539,908527,1923,964833,964833,1923,1923,921615,1128757,1922,1044764,1127494,1126513,1126513,NA,972,study_X,0,12075,1,yes,1680
undefined,undefined,NA,NA,NA,12075,12075,black,no,legacy,legacy,legacy,0,red,"(177, 0, 0)",shape,present,highProb,circular,same,same,same,same,red,"(177, 0, 0)",lowProb,lowProb6,rectangular,uniform,1,undefined,0,0.114583333,1,1,219.2135417,1,22,42089,0,0,0,0,0,0,0,0,53,0,1,0.114583333,219.2135417,22,42089,52,52,52,11/27/2018 16:35,Default description,yes,<openexp._canvas.legacy.Legacy object at 0x054A07F0>,<openexp._canvas.legacy.Legacy object at 0x05506C50>,<openexp._canvas.legacy.Legacy object at 0x054D07F0>,<openexp._canvas.legacy.Legacy object at 0x05324930>,<openexp._canvas.legacy.Legacy object at 0x05314190>,<openexp._canvas.legacy.Legacy object at 0x05494290>,<openexp._canvas.legacy.Legacy object at 0x054DE710>,<openexp._canvas.legacy.Legacy object at 0x05324970>,75,SpatProbMultiple3.osexp,C:/Userdata/Michel/SpatProbMultiple3,no,mono,no,18,no,white,no,yes,0.09,98,1050,legacy,315,27,27,1,C:/Userdata/Michel/SpatProbMultiple3/beh/subject-17.csv,legacy,9,192,25,Kafkaesque Koffka,3.2.5,yes,598477b2b83f69022949e7e9,47,red,circular,red,rectangular,0,/,1459,space,12075,12075,"(80, 80, 80)","(0, 123, 0)","(177, 0, 0)","(155, 155, 155)",2,legacy,experiment,"[0, 1, 2, 3, 4, 5, 6, 7]",/,2500,3000,0,8,252.7587515,1024,2,48000,-16,main,"[(0, -252), (178, -178), (252, 0), (178, 178), (0, 252), (-178, 178), (-252, 0), (-178, -178)]",[],41,odd,7,NA,1039784,1044764,1044764,909539,908527,1923,964833,964833,1923,1923,921615,1131621,1922,1044764,1130160,1129179,1129179,NA,972,study_X,0,12075,1,yes,1680
undefined,undefined,NA,NA,NA,12075,12075,black,no,legacy,legacy,legacy,0,green,"(0, 123, 0)",color,present,lowProb3,circular,swap,same,same,swap,red,"(177, 0, 0)",lowProb,lowProb6,circular,uniform,1,undefined,0,0.119791667,1,1,222.34375,1,23,42690,0,0,0,0,0,0,0,0,54,0,1,0.119791667,222.34375,23,42690,53,53,53,11/27/2018 16:35,Default description,yes,<openexp._canvas.legacy.Legacy object at 0x054A07F0>,<openexp._canvas.legacy.Legacy object at 0x05506C50>,<openexp._canvas.legacy.Legacy object at 0x054D07F0>,<openexp._canvas.legacy.Legacy object at 0x05324930>,<openexp._canvas.legacy.Legacy object at 0x05314190>,<openexp._canvas.legacy.Legacy object at 0x05494290>,<openexp._canvas.legacy.Legacy object at 0x054B7FF0>,<openexp._canvas.legacy.Legacy object at 0x05324970>,75,SpatProbMultiple3.osexp,C:/Userdata/Michel/SpatProbMultiple3,no,mono,no,18,no,white,no,yes,0.09,98,1050,legacy,315,28,28,1,C:/Userdata/Michel/SpatProbMultiple3/beh/subject-17.csv,legacy,9,192,25,Kafkaesque Koffka,3.2.5,yes,598477b2b83f69022949e7e9,47,green,circular,red,circular,0,/,601,space,12075,12075,"(80, 80, 80)","(0, 123, 0)","(177, 0, 0)","(155, 155, 155)",2,legacy,experiment,"[0, 1, 2, 3, 4, 5, 6, 7]",/,2500,3000,0,8,252.7587515,1024,2,48000,-16,main,"[(0, -252), (178, -178), (252, 0), (178, 178), (0, 252), (-178, 178), (-252, 0), (-178, -178)]",[],41,odd,7,NA,1039784,1044764,1044764,909539,908527,1923,964833,964833,1923,1923,921615,1133637,1922,1044764,1133034,1132052,1132052,NA,972,study_X,0,12075,1,yes,1680
undefined,undefined,NA,NA,NA,12075,12075,black,no,legacy,legacy,legacy,0,red,"(177, 0, 0)",shape,present,highProb,rectangular,swap,swap,same,same,red,"(177, 0, 0)",lowProb,lowProb6,circular,uniform,1,undefined,0,0.125,1,1,227.2239583,1,24,43627,0,0,0,0,0,0,0,0,55,0,1,0.125,227.2239583,24,43627,54,54,54,11/27/2018 16:35,Default description,yes,<openexp._canvas.legacy.Legacy object at 0x054A07F0>,<openexp._canvas.legacy.Legacy object at 0x05506C50>,<openexp._canvas.legacy.Legacy object at 0x054D07F0>,<openexp._canvas.legacy.Legacy object at 0x05324930>,<openexp._canvas.legacy.Legacy object at 0x05314190>,<openexp._canvas.legacy.Legacy object at 0x05494290>,<openexp._canvas.legacy.Legacy object at 0x055029B0>,<openexp._canvas.legacy.Legacy object at 0x05324970>,75,SpatProbMultiple3.osexp,C:/Userdata/Michel/SpatProbMultiple3,no,mono,no,18,no,white,no,yes,0.09,98,1050,legacy,45,29,29,1,C:/Userdata/Michel/SpatProbMultiple3/beh/subject-17.csv,legacy,9,192,25,Kafkaesque Koffka,3.2.5,yes,598477b2b83f69022949e7e9,47,red,rectangular,red,circular,0,\,937,space,12075,12075,"(80, 80, 80)","(0, 123, 0)","(177, 0, 0)","(155, 155, 155)",2,legacy,experiment,"[0, 1, 2, 3, 4, 5, 6, 7]",\,2500,3000,0,8,252.7587515,1024,2,48000,-16,main,"[(0, -252), (178, -178), (252, 0), (178, 178), (0, 252), (-178, 178), (-252, 0), (-178, -178)]",[],41,odd,7,NA,1039784,1044764,1044764,909539,908527,1923,964833,964833,1923,1923,921615,1136005,1922,1044764,1135066,1134084,1134084,NA,972,study_X,0,12075,1,yes,1680
undefined,undefined,NA,NA,NA,12075,12075,black,no,legacy,legacy,legacy,0,green,"(0, 123, 0)",color,present,lowProb3,circular,swap,swap,same,same,red,"(177, 0, 0)",lowProb,lowProb5,circular,uniform,1,undefined,0,0.130208333,1,1,237.1041667,1,25,45524,0,0,0,0,0,0,0,0,56,0,1,0.130208333,237.1041667,25,45524,55,55,55,11/27/2018 16:35,Default description,yes,<openexp._canvas.legacy.Legacy object at 0x054A07F0>,<openexp._canvas.legacy.Legacy object at 0x05506C50>,<openexp._canvas.legacy.Legacy object at 0x054D07F0>,<openexp._canvas.legacy.Legacy object at 0x05324930>,<openexp._canvas.legacy.Legacy object at 0x05314190>,<openexp._canvas.legacy.Legacy object at 0x05494290>,<openexp._canvas.legacy.Legacy object at 0x05506B50>,<openexp._canvas.legacy.Legacy object at 0x05324970>,75,SpatProbMultiple3.osexp,C:/Userdata/Michel/SpatProbMultiple3,no,mono,no,18,no,white,no,yes,0.09,98,1050,legacy,45,30,30,1,C:/Userdata/Michel/SpatProbMultiple3/beh/subject-17.csv,legacy,9,192,25,Kafkaesque Koffka,3.2.5,yes,598477b2b83f69022949e7e9,47,green,circular,red,circular,0,\,1897,space,12075,12075,"(80, 80, 80)","(0, 123, 0)","(177, 0, 0)","(155, 155, 155)",2,legacy,experiment,"[0, 1, 2, 3, 4, 5, 6, 7]",\,2500,3000,0,8,252.7587515,1024,2,48000,-16,main,"[(0, -252), (178, -178), (252, 0), (178, 178), (0, 252), (-178, 178), (-252, 0), (-178, -178)]",[],41,odd,6,NA,1039784,1044764,1044764,909539,908527,1923,964833,964833,1923,1923,921615,1139317,1922,1044764,1137417,1136436,1136436,NA,972,study_X,0,12075,1,yes,1680
undefined,undefined,NA,NA,NA,12075,12075,black,no,legacy,legacy,legacy,0,green,"(0, 123, 0)",color,absent,lowProb5,circular,same,same,swap,same,green,"(0, 123, 0)",lowProb,lowProb4,circular,uniform,1,undefined,0,0.135416667,1,1,241.3958333,1,26,46348,0,0,0,0,0,0,0,0,57,0,1,0.135416667,241.3958333,26,46348,56,56,56,11/27/2018 16:35,Default description,yes,<openexp._canvas.legacy.Legacy object at 0x054A07F0>,<openexp._canvas.legacy.Legacy object at 0x05506C50>,<openexp._canvas.legacy.Legacy object at 0x054D07F0>,<openexp._canvas.legacy.Legacy object at 0x05324930>,<openexp._canvas.legacy.Legacy object at 0x05314190>,<openexp._canvas.legacy.Legacy object at 0x05494290>,<openexp._canvas.legacy.Legacy object at 0x054D06B0>,<openexp._canvas.legacy.Legacy object at 0x05324970>,75,SpatProbMultiple3.osexp,C:/Userdata/Michel/SpatProbMultiple3,no,mono,no,18,no,white,no,yes,0.09,98,1050,legacy,315,31,31,1,C:/Userdata/Michel/SpatProbMultiple3/beh/subject-17.csv,legacy,9,192,25,Kafkaesque Koffka,3.2.5,yes,598477b2b83f69022949e7e9,47,green,circular,green,circular,0,/,824,space,12075,12075,"(80, 80, 80)","(0, 123, 0)","(177, 0, 0)","(155, 155, 155)",2,legacy,experiment,"[0, 1, 2, 3, 4, 5, 6, 7]",/,2500,3000,0,8,252.7587515,1024,2,48000,-16,main,"[(0, -252), (178, -178), (252, 0), (178, 178), (0, 252), (-178, 178), (-252, 0), (-178, -178)]",[],41,odd,5,NA,1039784,1044764,1044764,909539,908527,1923,964833,964833,1923,1923,921615,1141549,1922,1044764,1140721,1139739,1139740,NA,972,study_X,0,12075,1,yes,1680
undefined,undefined,NA,NA,NA,12075,12075,black,no,legacy,legacy,legacy,0,red,"(177, 0, 0)",shape,present,highProb,circular,swap,same,swap,swap,red,"(177, 0, 0)",lowProb,lowProb1,rectangular,uniform,1,undefined,0,0.140625,1,1,244.7447917,1,27,46991,0,0,0,0,0,0,0,0,58,0,1,0.140625,244.7447917,27,46991,57,57,57,11/27/2018 16:35,Default description,yes,<openexp._canvas.legacy.Legacy object at 0x054A07F0>,<openexp._canvas.legacy.Legacy object at 0x05506C50>,<openexp._canvas.legacy.Legacy object at 0x054D07F0>,<openexp._canvas.legacy.Legacy object at 0x05324930>,<openexp._canvas.legacy.Legacy object at 0x05314190>,<openexp._canvas.legacy.Legacy object at 0x05494290>,<openexp._canvas.legacy.Legacy object at 0x054ABDD0>,<openexp._canvas.legacy.Legacy object at 0x05324970>,75,SpatProbMultiple3.osexp,C:/Userdata/Michel/SpatProbMultiple3,no,mono,no,18,no,white,no,yes,0.09,98,1050,legacy,315,32,32,1,C:/Userdata/Michel/SpatProbMultiple3/beh/subject-17.csv,legacy,9,192,25,Kafkaesque Koffka,3.2.5,yes,598477b2b83f69022949e7e9,47,red,circular,red,rectangular,0,/,643,space,12075,12075,"(80, 80, 80)","(0, 123, 0)","(177, 0, 0)","(155, 155, 155)",2,legacy,experiment,"[0, 1, 2, 3, 4, 5, 6, 7]",/,2500,3000,0,8,252.7587515,1024,2,48000,-16,main,"[(0, -252), (178, -178), (252, 0), (178, 178), (0, 252), (-178, 178), (-252, 0), (-178, -178)]",[],41,odd,1,NA,1039784,1044764,1044764,909539,908527,1923,964833,964833,1923,1923,921615,1143621,1922,1044764,1142976,1141995,1141995,NA,972,study_X,0,12075,1,yes,1680
undefined,undefined,NA,NA,NA,12075,12075,black,no,legacy,legacy,legacy,0,green,"(0, 123, 0)",shape,absent,highProbOther,circular,swap,same,swap,swap,green,"(0, 123, 0)",lowProb,lowProb3,circular,uniform,1,undefined,0,0.145833333,1,1,249.7135417,1,28,47945,0,0,0,0,0,0,0,0,59,0,1,0.145833333,249.7135417,28,47945,58,58,58,11/27/2018 16:35,Default description,yes,<openexp._canvas.legacy.Legacy object at 0x054A07F0>,<openexp._canvas.legacy.Legacy object at 0x05506C50>,<openexp._canvas.legacy.Legacy object at 0x054D07F0>,<openexp._canvas.legacy.Legacy object at 0x05324930>,<openexp._canvas.legacy.Legacy object at 0x05314190>,<openexp._canvas.legacy.Legacy object at 0x05494290>,<openexp._canvas.legacy.Legacy object at 0x054B7FF0>,<openexp._canvas.legacy.Legacy object at 0x05324970>,75,SpatProbMultiple3.osexp,C:/Userdata/Michel/SpatProbMultiple3,no,mono,no,18,no,white,no,yes,0.09,98,1050,legacy,315,33,33,1,C:/Userdata/Michel/SpatProbMultiple3/beh/subject-17.csv,legacy,9,192,25,Kafkaesque Koffka,3.2.5,yes,598477b2b83f69022949e7e9,47,green,circular,green,circular,0,/,954,space,12075,12075,"(80, 80, 80)","(0, 123, 0)","(177, 0, 0)","(155, 155, 155)",2,legacy,experiment,"[0, 1, 2, 3, 4, 5, 6, 7]",/,2500,3000,0,8,252.7587515,1024,2,48000,-16,main,"[(0, -252), (178, -178), (252, 0), (178, 178), (0, 252), (-178, 178), (-252, 0), (-178, -178)]",[],41,odd,3,NA,1039784,1044764,1044764,909539,908527,1923,964833,964833,1923,1923,921615,1145997,1922,1044764,1145040,1144058,1144058,NA,972,study_X,0,12075,1,yes,1680
undefined,undefined,NA,NA,NA,12075,12075,black,no,legacy,legacy,legacy,0,green,"(0, 123, 0)",shape,present,highProb,rectangular,same,swap,same,same,green,"(0, 123, 0)",lowProb,lowProb1,circular,uniform,1,undefined,0,0.151041667,1,1,253.6510417,1,29,48701,0,0,0,0,0,0,0,0,60,0,1,0.151041667,253.6510417,29,48701,59,59,59,11/27/2018 16:35,Default description,yes,<openexp._canvas.legacy.Legacy object at 0x054A07F0>,<openexp._canvas.legacy.Legacy object at 0x05506C50>,<openexp._canvas.legacy.Legacy object at 0x054D07F0>,<openexp._canvas.legacy.Legacy object at 0x05324930>,<openexp._canvas.legacy.Legacy object at 0x05314190>,<openexp._canvas.legacy.Legacy object at 0x05494290>,<openexp._canvas.legacy.Legacy object at 0x05501A10>,<openexp._canvas.legacy.Legacy object at 0x05324970>,75,SpatProbMultiple3.osexp,C:/Userdata/Michel/SpatProbMultiple3,no,mono,no,18,no,white,no,yes,0.09,98,1050,legacy,315,34,34,1,C:/Userdata/Michel/SpatProbMultiple3/beh/subject-17.csv,legacy,9,192,25,Kafkaesque Koffka,3.2.5,yes,598477b2b83f69022949e7e9,47,green,rectangular,green,circular,0,/,756,space,12075,12075,"(80, 80, 80)","(0, 123, 0)","(177, 0, 0)","(155, 155, 155)",2,legacy,experiment,"[0, 1, 2, 3, 4, 5, 6, 7]",/,2500,3000,0,8,252.7587515,1024,2,48000,-16,main,"[(0, -252), (178, -178), (252, 0), (178, 178), (0, 252), (-178, 178), (-252, 0), (-178, -178)]",[],41,odd,1,NA,1039784,1044764,1044764,909539,908527,1923,964833,964833,1923,1923,921615,1148189,1922,1044764,1147430,1146448,1146448,NA,972,study_X,0,12075,1,yes,1680
undefined,undefined,NA,NA,NA,12075,12075,black,no,legacy,legacy,legacy,0,red,"(177, 0, 0)",color,present,highProb,circular,swap,swap,same,same,green,"(0, 123, 0)",lowProb,lowProb1,circular,uniform,1,undefined,0,0.15625,1,1,260.59375,1,30,50034,0,0,0,0,0,0,0,0,61,0,1,0.15625,260.59375,30,50034,60,60,60,11/27/2018 16:35,Default description,yes,<openexp._canvas.legacy.Legacy object at 0x054A07F0>,<openexp._canvas.legacy.Legacy object at 0x05506C50>,<openexp._canvas.legacy.Legacy object at 0x054D07F0>,<openexp._canvas.legacy.Legacy object at 0x05324930>,<openexp._canvas.legacy.Legacy object at 0x05314190>,<openexp._canvas.legacy.Legacy object at 0x05494290>,<openexp._canvas.legacy.Legacy object at 0x05501C10>,<openexp._canvas.legacy.Legacy object at 0x05324970>,75,SpatProbMultiple3.osexp,C:/Userdata/Michel/SpatProbMultiple3,no,mono,no,18,no,white,no,yes,0.09,98,1050,legacy,45,35,35,1,C:/Userdata/Michel/SpatProbMultiple3/beh/subject-17.csv,legacy,9,192,25,Kafkaesque Koffka,3.2.5,yes,598477b2b83f69022949e7e9,47,red,circular,green,circular,0,\,1333,space,12075,12075,"(80, 80, 80)","(0, 123, 0)","(177, 0, 0)","(155, 155, 155)",2,legacy,experiment,"[0, 1, 2, 3, 4, 5, 6, 7]",\,2500,3000,0,8,252.7587515,1024,2,48000,-16,main,"[(0, -252), (178, -178), (252, 0), (178, 178), (0, 252), (-178, 178), (-252, 0), (-178, -178)]",[],41,odd,1,NA,1039784,1044764,1044764,909539,908527,1923,964833,964833,1923,1923,921615,1150957,1922,1044764,1149621,1148639,1148640,NA,972,study_X,0,12075,1,yes,1680
undefined,undefined,NA,NA,NA,12075,12075,black,no,legacy,legacy,legacy,0,green,"(0, 123, 0)",color,present,highProb,circular,swap,same,swap,same,red,"(177, 0, 0)",lowProb,lowProb5,circular,uniform,1,undefined,0,0.161458333,1,1,265.9270833,1,31,51058,0,0,0,0,0,0,0,0,62,0,1,0.161458333,265.9270833,31,51058,61,61,61,11/27/2018 16:35,Default description,yes,<openexp._canvas.legacy.Legacy object at 0x054A07F0>,<openexp._canvas.legacy.Legacy object at 0x05506C50>,<openexp._canvas.legacy.Legacy object at 0x054D07F0>,<openexp._canvas.legacy.Legacy object at 0x05324930>,<openexp._canvas.legacy.Legacy object at 0x05314190>,<openexp._canvas.legacy.Legacy object at 0x05494290>,<openexp._canvas.legacy.Legacy object at 0x054ED5B0>,<openexp._canvas.legacy.Legacy object at 0x05324970>,75,SpatProbMultiple3.osexp,C:/Userdata/Michel/SpatProbMultiple3,no,mono,no,18,no,white,no,yes,0.09,98,1050,legacy,45,36,36,1,C:/Userdata/Michel/SpatProbMultiple3/beh/subject-17.csv,legacy,9,192,25,Kafkaesque Koffka,3.2.5,yes,598477b2b83f69022949e7e9,47,green,circular,red,circular,0,\,1024,space,12075,12075,"(80, 80, 80)","(0, 123, 0)","(177, 0, 0)","(155, 155, 155)",2,legacy,experiment,"[0, 1, 2, 3, 4, 5, 6, 7]",\,2500,3000,0,8,252.7587515,1024,2,48000,-16,main,"[(0, -252), (178, -178), (252, 0), (178, 178), (0, 252), (-178, 178), (-252, 0), (-178, -178)]",[],41,odd,6,NA,1039784,1044764,1044764,909539,908527,1923,964833,964833,1923,1923,921615,1153397,1922,1044764,1152369,1151388,1151388,NA,972,study_X,0,12075,1,yes,1680
undefined,undefined,NA,NA,NA,12075,12075,black,no,legacy,legacy,legacy,0,green,"(0, 123, 0)",color,present,highProb,circular,same,same,same,same,red,"(177, 0, 0)",lowProb,lowProb2,circular,uniform,0,undefined,0,0.161458333,1,1,276.828125,1,31,53151,0,0,0,0,0,0,0,0,63,0,1,0.161458333,276.828125,31,53151,62,62,62,11/27/2018 16:35,Default description,yes,<openexp._canvas.legacy.Legacy object at 0x054A07F0>,<openexp._canvas.legacy.Legacy object at 0x05506C50>,<openexp._canvas.legacy.Legacy object at 0x054D07F0>,<openexp._canvas.legacy.Legacy object at 0x05324930>,<openexp._canvas.legacy.Legacy object at 0x05314190>,<openexp._canvas.legacy.Legacy object at 0x05494290>,<openexp._canvas.legacy.Legacy object at 0x054D0AB0>,<openexp._canvas.legacy.Legacy object at 0x05324970>,75,SpatProbMultiple3.osexp,C:/Userdata/Michel/SpatProbMultiple3,no,mono,no,18,no,white,no,yes,0.09,98,1050,legacy,45,37,37,1,C:/Userdata/Michel/SpatProbMultiple3/beh/subject-17.csv,legacy,9,192,25,Kafkaesque Koffka,3.2.5,yes,598477b2b83f69022949e7e9,47,green,circular,red,circular,0,/,2093,space,12075,12075,"(80, 80, 80)","(0, 123, 0)","(177, 0, 0)","(155, 155, 155)",2,legacy,experiment,"[0, 1, 2, 3, 4, 5, 6, 7]",\,2500,3000,0,8,252.7587515,1024,2,48000,-16,main,"[(0, -252), (178, -178), (252, 0), (178, 178), (0, 252), (-178, 178), (-252, 0), (-178, -178)]",[],41,odd,2,NA,1039784,1044764,1044764,909539,908527,1923,964833,964833,1923,1923,921615,1156909,1922,1044764,1154812,1153830,1153830,NA,972,study_X,0,12075,1,yes,1680
undefined,undefined,NA,NA,NA,12075,12075,black,no,legacy,legacy,legacy,0,green,"(0, 123, 0)",color,present,highProb,rectangular,same,swap,same,swap,red,"(177, 0, 0)",lowProb,lowProb5,rectangular,uniform,1,undefined,0,0.166666667,1,1,284.984375,1,32,54717,0,0,0,0,0,0,0,0,64,0,1,0.166666667,284.984375,32,54717,63,63,63,11/27/2018 16:35,Default description,yes,<openexp._canvas.legacy.Legacy object at 0x054A07F0>,<openexp._canvas.legacy.Legacy object at 0x05506C50>,<openexp._canvas.legacy.Legacy object at 0x054D07F0>,<openexp._canvas.legacy.Legacy object at 0x05324930>,<openexp._canvas.legacy.Legacy object at 0x05314190>,<openexp._canvas.legacy.Legacy object at 0x05494290>,<openexp._canvas.legacy.Legacy object at 0x054A0FF0>,<openexp._canvas.legacy.Legacy object at 0x05324970>,75,SpatProbMultiple3.osexp,C:/Userdata/Michel/SpatProbMultiple3,no,mono,no,18,no,white,no,yes,0.09,98,1050,legacy,315,38,38,1,C:/Userdata/Michel/SpatProbMultiple3/beh/subject-17.csv,legacy,9,192,25,Kafkaesque Koffka,3.2.5,yes,598477b2b83f69022949e7e9,47,green,rectangular,red,rectangular,0,/,1566,space,12075,12075,"(80, 80, 80)","(0, 123, 0)","(177, 0, 0)","(155, 155, 155)",2,legacy,experiment,"[0, 1, 2, 3, 4, 5, 6, 7]",/,2500,3000,0,8,252.7587515,1024,2,48000,-16,main,"[(0, -252), (178, -178), (252, 0), (178, 178), (0, 252), (-178, 178), (-252, 0), (-178, -178)]",[],41,odd,6,NA,1039784,1044764,1044764,909539,908527,1923,964833,964833,1923,1923,921615,1159884,1922,1044764,1158315,1157334,1157334,NA,972,study_X,0,12075,1,yes,1680
undefined,undefined,NA,NA,NA,12075,12075,black,no,legacy,legacy,legacy,0,green,"(0, 123, 0)",shape,present,highProb,circular,same,swap,swap,same,green,"(0, 123, 0)",lowProb,lowProb2,rectangular,uniform,1,undefined,0,0.171875,1,1,288.1145833,1,33,55318,0,0,0,0,0,0,0,0,65,0,1,0.171875,288.1145833,33,55318,64,64,64,11/27/2018 16:35,Default description,yes,<openexp._canvas.legacy.Legacy object at 0x054A07F0>,<openexp._canvas.legacy.Legacy object at 0x05506C50>,<openexp._canvas.legacy.Legacy object at 0x054D07F0>,<openexp._canvas.legacy.Legacy object at 0x05324930>,<openexp._canvas.legacy.Legacy object at 0x05314190>,<openexp._canvas.legacy.Legacy object at 0x05494290>,<openexp._canvas.legacy.Legacy object at 0x054AB610>,<openexp._canvas.legacy.Legacy object at 0x05324970>,75,SpatProbMultiple3.osexp,C:/Userdata/Michel/SpatProbMultiple3,no,mono,no,18,no,white,no,yes,0.09,98,1050,legacy,315,39,39,1,C:/Userdata/Michel/SpatProbMultiple3/beh/subject-17.csv,legacy,9,192,25,Kafkaesque Koffka,3.2.5,yes,598477b2b83f69022949e7e9,47,green,circular,green,rectangular,0,/,601,space,12075,12075,"(80, 80, 80)","(0, 123, 0)","(177, 0, 0)","(155, 155, 155)",2,legacy,experiment,"[0, 1, 2, 3, 4, 5, 6, 7]",/,2500,3000,0,8,252.7587515,1024,2,48000,-16,main,"[(0, -252), (178, -178), (252, 0), (178, 178), (0, 252), (-178, 178), (-252, 0), (-178, -178)]",[],41,odd,2,NA,1039784,1044764,1044764,909539,908527,1923,964833,964833,1923,1923,921615,1161885,1922,1044764,1161282,1160301,1160301,NA,972,study_X,0,12075,1,yes,1680
undefined,undefined,NA,NA,NA,12075,12075,black,no,legacy,legacy,legacy,0,red,"(177, 0, 0)",color,present,lowProb6,circular,swap,same,same,swap,green,"(0, 123, 0)",lowProb,lowProb2,circular,uniform,1,undefined,0,0.177083333,1,1,290.5989583,1,34,55795,0,0,0,0,0,0,0,0,66,0,1,0.177083333,290.5989583,34,55795,65,65,65,11/27/2018 16:35,Default description,yes,<openexp._canvas.legacy.Legacy object at 0x054A07F0>,<openexp._canvas.legacy.Legacy object at 0x05506C50>,<openexp._canvas.legacy.Legacy object at 0x054D07F0>,<openexp._canvas.legacy.Legacy object at 0x05324930>,<openexp._canvas.legacy.Legacy object at 0x05314190>,<openexp._canvas.legacy.Legacy object at 0x05494290>,<openexp._canvas.legacy.Legacy object at 0x055069D0>,<openexp._canvas.legacy.Legacy object at 0x05324970>,75,SpatProbMultiple3.osexp,C:/Userdata/Michel/SpatProbMultiple3,no,mono,no,18,no,white,no,yes,0.09,98,1050,legacy,315,40,40,1,C:/Userdata/Michel/SpatProbMultiple3/beh/subject-17.csv,legacy,9,192,25,Kafkaesque Koffka,3.2.5,yes,598477b2b83f69022949e7e9,47,red,circular,green,circular,0,/,477,space,12075,12075,"(80, 80, 80)","(0, 123, 0)","(177, 0, 0)","(155, 155, 155)",2,legacy,experiment,"[0, 1, 2, 3, 4, 5, 6, 7]",/,2500,3000,0,8,252.7587515,1024,2,48000,-16,main,"[(0, -252), (178, -178), (252, 0), (178, 178), (0, 252), (-178, 178), (-252, 0), (-178, -178)]",[],41,odd,2,NA,1039784,1044764,1044764,909539,908527,1923,964833,964833,1923,1923,921615,1163781,1922,1044764,1163301,1162319,1162319,NA,972,study_X,0,12075,1,yes,1680
undefined,undefined,NA,NA,NA,12075,12075,black,no,legacy,legacy,legacy,0,green,"(0, 123, 0)",shape,present,lowProb4,circular,swap,same,same,swap,green,"(0, 123, 0)",lowProb,lowProb1,rectangular,uniform,1,undefined,0,0.182291667,1,1,293.671875,1,35,56385,0,0,0,0,0,0,0,0,67,0,1,0.182291667,293.671875,35,56385,66,66,66,11/27/2018 16:35,Default description,yes,<openexp._canvas.legacy.Legacy object at 0x054A07F0>,<openexp._canvas.legacy.Legacy object at 0x05506C50>,<openexp._canvas.legacy.Legacy object at 0x054D07F0>,<openexp._canvas.legacy.Legacy object at 0x05324930>,<openexp._canvas.legacy.Legacy object at 0x05314190>,<openexp._canvas.legacy.Legacy object at 0x05494290>,<openexp._canvas.legacy.Legacy object at 0x05501530>,<openexp._canvas.legacy.Legacy object at 0x05324970>,75,SpatProbMultiple3.osexp,C:/Userdata/Michel/SpatProbMultiple3,no,mono,no,18,no,white,no,yes,0.09,98,1050,legacy,315,41,41,1,C:/Userdata/Michel/SpatProbMultiple3/beh/subject-17.csv,legacy,9,192,25,Kafkaesque Koffka,3.2.5,yes,598477b2b83f69022949e7e9,47,green,circular,green,rectangular,0,/,590,space,12075,12075,"(80, 80, 80)","(0, 123, 0)","(177, 0, 0)","(155, 155, 155)",2,legacy,experiment,"[0, 1, 2, 3, 4, 5, 6, 7]",/,2500,3000,0,8,252.7587515,1024,2,48000,-16,main,"[(0, -252), (178, -178), (252, 0), (178, 178), (0, 252), (-178, 178), (-252, 0), (-178, -178)]",[],41,odd,1,NA,1039784,1044764,1044764,909539,908527,1923,964833,964833,1923,1923,921615,1165781,1922,1044764,1165188,1164206,1164207,NA,972,study_X,0,12075,1,yes,1680
undefined,undefined,NA,NA,NA,12075,12075,black,no,legacy,legacy,legacy,0,red,"(177, 0, 0)",shape,present,lowProb2,circular,swap,same,swap,same,red,"(177, 0, 0)",highProbShape,highProbShape,rectangular,uniform,1,undefined,0,0.1875,1,1,298.9427083,1,36,57397,0,0,0,0,0,0,0,0,68,0,1,0.1875,298.9427083,36,57397,67,67,67,11/27/2018 16:35,Default description,yes,<openexp._canvas.legacy.Legacy object at 0x054A07F0>,<openexp._canvas.legacy.Legacy object at 0x05506C50>,<openexp._canvas.legacy.Legacy object at 0x054D07F0>,<openexp._canvas.legacy.Legacy object at 0x05324930>,<openexp._canvas.legacy.Legacy object at 0x05314190>,<openexp._canvas.legacy.Legacy object at 0x05494290>,<openexp._canvas.legacy.Legacy object at 0x054AB750>,<openexp._canvas.legacy.Legacy object at 0x05324970>,75,SpatProbMultiple3.osexp,C:/Userdata/Michel/SpatProbMultiple3,no,mono,no,18,no,white,no,yes,0.09,98,1050,legacy,45,42,42,1,C:/Userdata/Michel/SpatProbMultiple3/beh/subject-17.csv,legacy,9,192,25,Kafkaesque Koffka,3.2.5,yes,598477b2b83f69022949e7e9,47,red,circular,red,rectangular,0,\,1012,space,12075,12075,"(80, 80, 80)","(0, 123, 0)","(177, 0, 0)","(155, 155, 155)",2,legacy,experiment,"[0, 1, 2, 3, 4, 5, 6, 7]",\,2500,3000,0,8,252.7587515,1024,2,48000,-16,main,"[(0, -252), (178, -178), (252, 0), (178, 178), (0, 252), (-178, 178), (-252, 0), (-178, -178)]",[],41,odd,4,NA,1039784,1044764,1044764,909539,908527,1923,964833,964833,1923,1923,921615,1168205,1922,1044764,1167189,1166207,1166208,NA,972,study_X,0,12075,1,yes,1680
undefined,undefined,NA,NA,NA,12075,12075,black,no,legacy,legacy,legacy,0,red,"(177, 0, 0)",shape,present,highProb,rectangular,same,swap,same,swap,red,"(177, 0, 0)",lowProb,lowProb4,circular,uniform,1,undefined,0,0.192708333,1,1,301.9375,1,37,57972,0,0,0,0,0,0,0,0,69,0,1,0.192708333,301.9375,37,57972,68,68,68,11/27/2018 16:35,Default description,yes,<openexp._canvas.legacy.Legacy object at 0x054A07F0>,<openexp._canvas.legacy.Legacy object at 0x05506C50>,<openexp._canvas.legacy.Legacy object at 0x054D07F0>,<openexp._canvas.legacy.Legacy object at 0x05324930>,<openexp._canvas.legacy.Legacy object at 0x05314190>,<openexp._canvas.legacy.Legacy object at 0x05494290>,<openexp._canvas.legacy.Legacy object at 0x054B7AB0>,<openexp._canvas.legacy.Legacy object at 0x05324970>,75,SpatProbMultiple3.osexp,C:/Userdata/Michel/SpatProbMultiple3,no,mono,no,18,no,white,no,yes,0.09,98,1050,legacy,315,43,43,1,C:/Userdata/Michel/SpatProbMultiple3/beh/subject-17.csv,legacy,9,192,25,Kafkaesque Koffka,3.2.5,yes,598477b2b83f69022949e7e9,47,red,rectangular,red,circular,0,/,575,space,12075,12075,"(80, 80, 80)","(0, 123, 0)","(177, 0, 0)","(155, 155, 155)",2,legacy,experiment,"[0, 1, 2, 3, 4, 5, 6, 7]",/,2500,3000,0,8,252.7587515,1024,2,48000,-16,main,"[(0, -252), (178, -178), (252, 0), (178, 178), (0, 252), (-178, 178), (-252, 0), (-178, -178)]",[],41,odd,5,NA,1039784,1044764,1044764,909539,908527,1923,964833,964833,1923,1923,921615,1170197,1922,1044764,1169619,1168638,1168638,NA,972,study_X,0,12075,1,yes,1680
undefined,undefined,NA,NA,NA,12075,12075,black,no,legacy,legacy,legacy,0,green,"(0, 123, 0)",color,present,highProb,rectangular,swap,same,same,swap,red,"(177, 0, 0)",lowProb,lowProb3,rectangular,uniform,1,undefined,0,0.197916667,1,1,304.4114583,1,38,58447,0,0,0,0,0,0,0,0,70,0,1,0.197916667,304.4114583,38,58447,69,69,69,11/27/2018 16:35,Default description,yes,<openexp._canvas.legacy.Legacy object at 0x054A07F0>,<openexp._canvas.legacy.Legacy object at 0x05506C50>,<openexp._canvas.legacy.Legacy object at 0x054D07F0>,<openexp._canvas.legacy.Legacy object at 0x05324930>,<openexp._canvas.legacy.Legacy object at 0x05314190>,<openexp._canvas.legacy.Legacy object at 0x05494290>,<openexp._canvas.legacy.Legacy object at 0x055013B0>,<openexp._canvas.legacy.Legacy object at 0x05324970>,75,SpatProbMultiple3.osexp,C:/Userdata/Michel/SpatProbMultiple3,no,mono,no,18,no,white,no,yes,0.09,98,1050,legacy,315,44,44,1,C:/Userdata/Michel/SpatProbMultiple3/beh/subject-17.csv,legacy,9,192,25,Kafkaesque Koffka,3.2.5,yes,598477b2b83f69022949e7e9,47,green,rectangular,red,rectangular,0,/,475,space,12075,12075,"(80, 80, 80)","(0, 123, 0)","(177, 0, 0)","(155, 155, 155)",2,legacy,experiment,"[0, 1, 2, 3, 4, 5, 6, 7]",/,2500,3000,0,8,252.7587515,1024,2,48000,-16,main,"[(0, -252), (178, -178), (252, 0), (178, 178), (0, 252), (-178, 178), (-252, 0), (-178, -178)]",[],41,odd,3,NA,1039784,1044764,1044764,909539,908527,1923,964833,964833,1923,1923,921615,1172069,1922,1044764,1171591,1170610,1170610,NA,972,study_X,0,12075,1,yes,1680
undefined,undefined,NA,NA,NA,12075,12075,black,no,legacy,legacy,legacy,0,green,"(0, 123, 0)",color,absent,lowProb2,circular,same,swap,swap,swap,green,"(0, 123, 0)",lowProb,lowProb6,circular,uniform,1,undefined,0,0.203125,1,1,311.0260417,1,39,59717,0,0,0,0,0,0,0,0,71,0,1,0.203125,311.0260417,39,59717,70,70,70,11/27/2018 16:35,Default description,yes,<openexp._canvas.legacy.Legacy object at 0x054A07F0>,<openexp._canvas.legacy.Legacy object at 0x05506C50>,<openexp._canvas.legacy.Legacy object at 0x054D07F0>,<openexp._canvas.legacy.Legacy object at 0x05324930>,<openexp._canvas.legacy.Legacy object at 0x05314190>,<openexp._canvas.legacy.Legacy object at 0x05494290>,<openexp._canvas.legacy.Legacy object at 0x054B7FD0>,<openexp._canvas.legacy.Legacy object at 0x05324970>,75,SpatProbMultiple3.osexp,C:/Userdata/Michel/SpatProbMultiple3,no,mono,no,18,no,white,no,yes,0.09,98,1050,legacy,315,45,45,1,C:/Userdata/Michel/SpatProbMultiple3/beh/subject-17.csv,legacy,9,192,25,Kafkaesque Koffka,3.2.5,yes,598477b2b83f69022949e7e9,47,green,circular,green,circular,0,/,1270,space,12075,12075,"(80, 80, 80)","(0, 123, 0)","(177, 0, 0)","(155, 155, 155)",2,legacy,experiment,"[0, 1, 2, 3, 4, 5, 6, 7]",/,2500,3000,0,8,252.7587515,1024,2,48000,-16,main,"[(0, -252), (178, -178), (252, 0), (178, 178), (0, 252), (-178, 178), (-252, 0), (-178, -178)]",[],41,odd,7,NA,1039784,1044764,1044764,909539,908527,1923,964833,964833,1923,1923,921615,1174772,1922,1044764,1173499,1172517,1172518,NA,972,study_X,0,12075,1,yes,1680
undefined,undefined,NA,NA,NA,12075,12075,black,no,legacy,legacy,legacy,0,red,"(177, 0, 0)",color,absent,lowProb3,circular,swap,same,swap,same,red,"(177, 0, 0)",highProbColor,highProbColor,circular,uniform,1,undefined,0,0.208333333,1,1,314.828125,1,40,60447,0,0,0,0,0,0,0,0,72,0,1,0.208333333,314.828125,40,60447,71,71,71,11/27/2018 16:35,Default description,yes,<openexp._canvas.legacy.Legacy object at 0x054A07F0>,<openexp._canvas.legacy.Legacy object at 0x05506C50>,<openexp._canvas.legacy.Legacy object at 0x054D07F0>,<openexp._canvas.legacy.Legacy object at 0x05324930>,<openexp._canvas.legacy.Legacy object at 0x05314190>,<openexp._canvas.legacy.Legacy object at 0x05494290>,<openexp._canvas.legacy.Legacy object at 0x05501C50>,<openexp._canvas.legacy.Legacy object at 0x05324970>,75,SpatProbMultiple3.osexp,C:/Userdata/Michel/SpatProbMultiple3,no,mono,no,18,no,white,no,yes,0.09,98,1050,legacy,315,46,46,1,C:/Userdata/Michel/SpatProbMultiple3/beh/subject-17.csv,legacy,9,192,25,Kafkaesque Koffka,3.2.5,yes,598477b2b83f69022949e7e9,47,red,circular,red,circular,0,/,730,space,12075,12075,"(80, 80, 80)","(0, 123, 0)","(177, 0, 0)","(155, 155, 155)",2,legacy,experiment,"[0, 1, 2, 3, 4, 5, 6, 7]",/,2500,3000,0,8,252.7587515,1024,2,48000,-16,main,"[(0, -252), (178, -178), (252, 0), (178, 178), (0, 252), (-178, 178), (-252, 0), (-178, -178)]",[],41,odd,0,NA,1039784,1044764,1044764,909539,908527,1923,964833,964833,1923,1923,921615,1176916,1922,1044764,1176183,1175201,1175201,NA,972,study_X,0,12075,1,yes,1680
undefined,undefined,NA,NA,NA,12075,12075,black,no,legacy,legacy,legacy,0,green,"(0, 123, 0)",shape,present,lowProb2,rectangular,swap,swap,swap,same,green,"(0, 123, 0)",lowProb,lowProb1,circular,uniform,0,undefined,0,0.208333333,1,1,323.375,1,40,62088,0,0,0,0,0,0,0,0,73,0,1,0.208333333,323.375,40,62088,72,72,72,11/27/2018 16:35,Default description,yes,<openexp._canvas.legacy.Legacy object at 0x054A07F0>,<openexp._canvas.legacy.Legacy object at 0x05506C50>,<openexp._canvas.legacy.Legacy object at 0x054D07F0>,<openexp._canvas.legacy.Legacy object at 0x05324930>,<openexp._canvas.legacy.Legacy object at 0x05314190>,<openexp._canvas.legacy.Legacy object at 0x05494290>,<openexp._canvas.legacy.Legacy object at 0x053292B0>,<openexp._canvas.legacy.Legacy object at 0x05324970>,75,SpatProbMultiple3.osexp,C:/Userdata/Michel/SpatProbMultiple3,no,mono,no,18,no,white,no,yes,0.09,98,1050,legacy,45,47,47,1,C:/Userdata/Michel/SpatProbMultiple3/beh/subject-17.csv,legacy,9,192,25,Kafkaesque Koffka,3.2.5,yes,598477b2b83f69022949e7e9,47,green,rectangular,green,circular,0,/,1641,space,12075,12075,"(80, 80, 80)","(0, 123, 0)","(177, 0, 0)","(155, 155, 155)",2,legacy,experiment,"[0, 1, 2, 3, 4, 5, 6, 7]",\,2500,3000,0,8,252.7587515,1024,2,48000,-16,main,"[(0, -252), (178, -178), (252, 0), (178, 178), (0, 252), (-178, 178), (-252, 0), (-178, -178)]",[],41,odd,1,NA,1039784,1044764,1044764,909539,908527,1923,964833,964833,1923,1923,921615,1179973,1922,1044764,1178330,1177348,1177348,NA,972,study_X,0,12075,1,yes,1680
undefined,undefined,NA,NA,NA,12075,12075,black,no,legacy,legacy,legacy,0,green,"(0, 123, 0)",color,present,highProb,circular,same,swap,swap,same,red,"(177, 0, 0)",lowProb,lowProb5,circular,uniform,1,undefined,0,0.213541667,1,1,329.4375,1,41,63252,0,0,0,0,0,0,0,0,74,0,1,0.213541667,329.4375,41,63252,73,73,73,11/27/2018 16:35,Default description,yes,<openexp._canvas.legacy.Legacy object at 0x054A07F0>,<openexp._canvas.legacy.Legacy object at 0x05506C50>,<openexp._canvas.legacy.Legacy object at 0x054D07F0>,<openexp._canvas.legacy.Legacy object at 0x05324930>,<openexp._canvas.legacy.Legacy object at 0x05314190>,<openexp._canvas.legacy.Legacy object at 0x05494290>,<openexp._canvas.legacy.Legacy object at 0x05502990>,<openexp._canvas.legacy.Legacy object at 0x05324970>,75,SpatProbMultiple3.osexp,C:/Userdata/Michel/SpatProbMultiple3,no,mono,no,18,no,white,no,yes,0.09,98,1050,legacy,45,48,48,1,C:/Userdata/Michel/SpatProbMultiple3/beh/subject-17.csv,legacy,9,192,25,Kafkaesque Koffka,3.2.5,yes,598477b2b83f69022949e7e9,47,green,circular,red,circular,0,\,1164,space,12075,12075,"(80, 80, 80)","(0, 123, 0)","(177, 0, 0)","(155, 155, 155)",2,legacy,experiment,"[0, 1, 2, 3, 4, 5, 6, 7]",\,2500,3000,0,8,252.7587515,1024,2,48000,-16,main,"[(0, -252), (178, -178), (252, 0), (178, 178), (0, 252), (-178, 178), (-252, 0), (-178, -178)]",[],41,odd,6,NA,1039784,1044764,1044764,909539,908527,1923,964833,964833,1923,1923,921615,1182557,1922,1044764,1181390,1180408,1180408,NA,972,study_X,0,12075,1,yes,1680
undefined,undefined,NA,NA,NA,12075,12075,black,no,legacy,legacy,legacy,0,green,"(0, 123, 0)",color,present,lowProb2,circular,same,same,same,same,red,"(177, 0, 0)",highProbShape,highProbShape,circular,uniform,1,undefined,0,0.21875,1,1,338.8229167,1,42,65054,0,0,0,0,0,0,0,0,75,0,1,0.21875,338.8229167,42,65054,74,74,74,11/27/2018 16:35,Default description,yes,<openexp._canvas.legacy.Legacy object at 0x054A07F0>,<openexp._canvas.legacy.Legacy object at 0x05506C50>,<openexp._canvas.legacy.Legacy object at 0x054D07F0>,<openexp._canvas.legacy.Legacy object at 0x05324930>,<openexp._canvas.legacy.Legacy object at 0x05314190>,<openexp._canvas.legacy.Legacy object at 0x05494290>,<openexp._canvas.legacy.Legacy object at 0x054ABC10>,<openexp._canvas.legacy.Legacy object at 0x05324970>,75,SpatProbMultiple3.osexp,C:/Userdata/Michel/SpatProbMultiple3,no,mono,no,18,no,white,no,yes,0.09,98,1050,legacy,45,49,49,1,C:/Userdata/Michel/SpatProbMultiple3/beh/subject-17.csv,legacy,9,192,25,Kafkaesque Koffka,3.2.5,yes,598477b2b83f69022949e7e9,47,green,circular,red,circular,0,\,1802,space,12075,12075,"(80, 80, 80)","(0, 123, 0)","(177, 0, 0)","(155, 155, 155)",2,legacy,experiment,"[0, 1, 2, 3, 4, 5, 6, 7]",\,2500,3000,0,8,252.7587515,1024,2,48000,-16,main,"[(0, -252), (178, -178), (252, 0), (178, 178), (0, 252), (-178, 178), (-252, 0), (-178, -178)]",[],41,odd,4,NA,1039784,1044764,1044764,909539,908527,1923,964833,964833,1923,1923,921615,1185781,1922,1044764,1183975,1182993,1182993,NA,972,study_X,0,12075,1,yes,1680
undefined,undefined,NA,NA,NA,12075,12075,black,no,legacy,legacy,legacy,0,red,"(177, 0, 0)",shape,present,highProb,rectangular,swap,swap,same,same,red,"(177, 0, 0)",lowProb,lowProb4,circular,uniform,1,undefined,0,0.223958333,1,1,343.8072917,1,43,66011,0,0,0,0,0,0,0,0,76,0,1,0.223958333,343.8072917,43,66011,75,75,75,11/27/2018 16:35,Default description,yes,<openexp._canvas.legacy.Legacy object at 0x054A07F0>,<openexp._canvas.legacy.Legacy object at 0x05506C50>,<openexp._canvas.legacy.Legacy object at 0x054D07F0>,<openexp._canvas.legacy.Legacy object at 0x05324930>,<openexp._canvas.legacy.Legacy object at 0x05314190>,<openexp._canvas.legacy.Legacy object at 0x05494290>,<openexp._canvas.legacy.Legacy object at 0x054A0F90>,<openexp._canvas.legacy.Legacy object at 0x05324970>,75,SpatProbMultiple3.osexp,C:/Userdata/Michel/SpatProbMultiple3,no,mono,no,18,no,white,no,yes,0.09,98,1050,legacy,315,50,50,1,C:/Userdata/Michel/SpatProbMultiple3/beh/subject-17.csv,legacy,9,192,25,Kafkaesque Koffka,3.2.5,yes,598477b2b83f69022949e7e9,47,red,rectangular,red,circular,0,/,957,space,12075,12075,"(80, 80, 80)","(0, 123, 0)","(177, 0, 0)","(155, 155, 155)",2,legacy,experiment,"[0, 1, 2, 3, 4, 5, 6, 7]",/,2500,3000,0,8,252.7587515,1024,2,48000,-16,main,"[(0, -252), (178, -178), (252, 0), (178, 178), (0, 252), (-178, 178), (-252, 0), (-178, -178)]",[],41,odd,5,NA,1039784,1044764,1044764,909539,908527,1923,964833,964833,1923,1923,921615,1188157,1922,1044764,1187197,1186216,1186216,NA,972,study_X,0,12075,1,yes,1680
undefined,undefined,NA,NA,NA,12075,12075,black,no,legacy,legacy,legacy,0,red,"(177, 0, 0)",color,present,highProb,rectangular,same,same,swap,swap,green,"(0, 123, 0)",lowProb,lowProb1,rectangular,uniform,1,undefined,0,0.229166667,1,1,348.4375,1,44,66900,0,0,0,0,0,0,0,0,77,0,1,0.229166667,348.4375,44,66900,76,76,76,11/27/2018 16:35,Default description,yes,<openexp._canvas.legacy.Legacy object at 0x054A07F0>,<openexp._canvas.legacy.Legacy object at 0x05506C50>,<openexp._canvas.legacy.Legacy object at 0x054D07F0>,<openexp._canvas.legacy.Legacy object at 0x05324930>,<openexp._canvas.legacy.Legacy object at 0x05314190>,<openexp._canvas.legacy.Legacy object at 0x05494290>,<openexp._canvas.legacy.Legacy object at 0x054AB030>,<openexp._canvas.legacy.Legacy object at 0x05324970>,75,SpatProbMultiple3.osexp,C:/Userdata/Michel/SpatProbMultiple3,no,mono,no,18,no,white,no,yes,0.09,98,1050,legacy,315,51,51,1,C:/Userdata/Michel/SpatProbMultiple3/beh/subject-17.csv,legacy,9,192,25,Kafkaesque Koffka,3.2.5,yes,598477b2b83f69022949e7e9,47,red,rectangular,green,rectangular,0,/,889,space,12075,12075,"(80, 80, 80)","(0, 123, 0)","(177, 0, 0)","(155, 155, 155)",2,legacy,experiment,"[0, 1, 2, 3, 4, 5, 6, 7]",/,2500,3000,0,8,252.7587515,1024,2,48000,-16,main,"[(0, -252), (178, -178), (252, 0), (178, 178), (0, 252), (-178, 178), (-252, 0), (-178, -178)]",[],41,odd,1,NA,1039784,1044764,1044764,909539,908527,1923,964833,964833,1923,1923,921615,1190460,1922,1044764,1189568,1188586,1188587,NA,972,study_X,0,12075,1,yes,1680
undefined,undefined,NA,NA,NA,12075,12075,black,no,legacy,legacy,legacy,0,green,"(0, 123, 0)",color,present,highProb,circular,swap,swap,swap,swap,red,"(177, 0, 0)",highProbShape,highProbShape,circular,uniform,1,undefined,0,0.234375,1,1,351.6197917,1,45,67511,0,0,0,0,0,0,0,0,78,0,1,0.234375,351.6197917,45,67511,77,77,77,11/27/2018 16:35,Default description,yes,<openexp._canvas.legacy.Legacy object at 0x054A07F0>,<openexp._canvas.legacy.Legacy object at 0x05506C50>,<openexp._canvas.legacy.Legacy object at 0x054D07F0>,<openexp._canvas.legacy.Legacy object at 0x05324930>,<openexp._canvas.legacy.Legacy object at 0x05314190>,<openexp._canvas.legacy.Legacy object at 0x05494290>,<openexp._canvas.legacy.Legacy object at 0x054D0090>,<openexp._canvas.legacy.Legacy object at 0x05324970>,75,SpatProbMultiple3.osexp,C:/Userdata/Michel/SpatProbMultiple3,no,mono,no,18,no,white,no,yes,0.09,98,1050,legacy,315,52,52,1,C:/Userdata/Michel/SpatProbMultiple3/beh/subject-17.csv,legacy,9,192,25,Kafkaesque Koffka,3.2.5,yes,598477b2b83f69022949e7e9,47,green,circular,red,circular,0,/,611,space,12075,12075,"(80, 80, 80)","(0, 123, 0)","(177, 0, 0)","(155, 155, 155)",2,legacy,experiment,"[0, 1, 2, 3, 4, 5, 6, 7]",/,2500,3000,0,8,252.7587515,1024,2,48000,-16,main,"[(0, -252), (178, -178), (252, 0), (178, 178), (0, 252), (-178, 178), (-252, 0), (-178, -178)]",[],41,odd,4,NA,1039784,1044764,1044764,909539,908527,1923,964833,964833,1923,1923,921615,1192484,1922,1044764,1191871,1190889,1190889,NA,972,study_X,0,12075,1,yes,1680
undefined,undefined,NA,NA,NA,12075,12075,black,no,legacy,legacy,legacy,0,green,"(0, 123, 0)",color,present,highProb,rectangular,same,swap,same,swap,red,"(177, 0, 0)",lowProb,lowProb3,rectangular,uniform,1,undefined,0,0.239583333,1,1,360.7864583,1,46,69271,0,0,0,0,0,0,0,0,79,0,1,0.239583333,360.7864583,46,69271,78,78,78,11/27/2018 16:35,Default description,yes,<openexp._canvas.legacy.Legacy object at 0x054A07F0>,<openexp._canvas.legacy.Legacy object at 0x05506C50>,<openexp._canvas.legacy.Legacy object at 0x054D07F0>,<openexp._canvas.legacy.Legacy object at 0x05324930>,<openexp._canvas.legacy.Legacy object at 0x05314190>,<openexp._canvas.legacy.Legacy object at 0x05494290>,<openexp._canvas.legacy.Legacy object at 0x05329170>,<openexp._canvas.legacy.Legacy object at 0x05324970>,75,SpatProbMultiple3.osexp,C:/Userdata/Michel/SpatProbMultiple3,no,mono,no,18,no,white,no,yes,0.09,98,1050,legacy,45,53,53,1,C:/Userdata/Michel/SpatProbMultiple3/beh/subject-17.csv,legacy,9,192,25,Kafkaesque Koffka,3.2.5,yes,598477b2b83f69022949e7e9,47,green,rectangular,red,rectangular,0,\,1760,space,12075,12075,"(80, 80, 80)","(0, 123, 0)","(177, 0, 0)","(155, 155, 155)",2,legacy,experiment,"[0, 1, 2, 3, 4, 5, 6, 7]",\,2500,3000,0,8,252.7587515,1024,2,48000,-16,main,"[(0, -252), (178, -178), (252, 0), (178, 178), (0, 252), (-178, 178), (-252, 0), (-178, -178)]",[],41,odd,3,NA,1039784,1044764,1044764,909539,908527,1923,964833,964833,1923,1923,921615,1195652,1922,1044764,1193889,1192907,1192907,NA,972,study_X,0,12075,1,yes,1680
undefined,undefined,NA,NA,NA,12075,12075,black,no,legacy,legacy,legacy,0,red,"(177, 0, 0)",color,present,lowProb4,rectangular,swap,same,swap,same,green,"(0, 123, 0)",lowProb,lowProb2,rectangular,uniform,1,undefined,0,0.244791667,1,1,366.8697917,1,47,70439,0,0,0,0,0,0,0,0,80,0,1,0.244791667,366.8697917,47,70439,79,79,79,11/27/2018 16:35,Default description,yes,<openexp._canvas.legacy.Legacy object at 0x054A07F0>,<openexp._canvas.legacy.Legacy object at 0x05506C50>,<openexp._canvas.legacy.Legacy object at 0x054D07F0>,<openexp._canvas.legacy.Legacy object at 0x05324930>,<openexp._canvas.legacy.Legacy object at 0x05314190>,<openexp._canvas.legacy.Legacy object at 0x05494290>,<openexp._canvas.legacy.Legacy object at 0x054AB4B0>,<openexp._canvas.legacy.Legacy object at 0x05324970>,75,SpatProbMultiple3.osexp,C:/Userdata/Michel/SpatProbMultiple3,no,mono,no,18,no,white,no,yes,0.09,98,1050,legacy,45,54,54,1,C:/Userdata/Michel/SpatProbMultiple3/beh/subject-17.csv,legacy,9,192,25,Kafkaesque Koffka,3.2.5,yes,598477b2b83f69022949e7e9,47,red,rectangular,green,rectangular,0,\,1168,space,12075,12075,"(80, 80, 80)","(0, 123, 0)","(177, 0, 0)","(155, 155, 155)",2,legacy,experiment,"[0, 1, 2, 3, 4, 5, 6, 7]",\,2500,3000,0,8,252.7587515,1024,2,48000,-16,main,"[(0, -252), (178, -178), (252, 0), (178, 178), (0, 252), (-178, 178), (-252, 0), (-178, -178)]",[],41,odd,2,NA,1039784,1044764,1044764,909539,908527,1923,964833,964833,1923,1923,921615,1198221,1922,1044764,1197051,1196069,1196069,NA,972,study_X,0,12075,1,yes,1680
undefined,undefined,NA,NA,NA,12075,12075,black,no,legacy,legacy,legacy,0,red,"(177, 0, 0)",color,present,lowProb5,circular,same,swap,same,swap,green,"(0, 123, 0)",lowProb,lowProb4,circular,uniform,1,undefined,0,0.25,1,1,371.9947917,1,48,71423,0,0,0,0,0,0,0,0,81,0,1,0.25,371.9947917,48,71423,80,80,80,11/27/2018 16:35,Default description,yes,<openexp._canvas.legacy.Legacy object at 0x054A07F0>,<openexp._canvas.legacy.Legacy object at 0x05506C50>,<openexp._canvas.legacy.Legacy object at 0x054D07F0>,<openexp._canvas.legacy.Legacy object at 0x05324930>,<openexp._canvas.legacy.Legacy object at 0x05314190>,<openexp._canvas.legacy.Legacy object at 0x05494290>,<openexp._canvas.legacy.Legacy object at 0x054AB5D0>,<openexp._canvas.legacy.Legacy object at 0x05324970>,75,SpatProbMultiple3.osexp,C:/Userdata/Michel/SpatProbMultiple3,no,mono,no,18,no,white,no,yes,0.09,98,1050,legacy,315,55,55,1,C:/Userdata/Michel/SpatProbMultiple3/beh/subject-17.csv,legacy,9,192,25,Kafkaesque Koffka,3.2.5,yes,598477b2b83f69022949e7e9,47,red,circular,green,circular,0,/,984,space,12075,12075,"(80, 80, 80)","(0, 123, 0)","(177, 0, 0)","(155, 155, 155)",2,legacy,experiment,"[0, 1, 2, 3, 4, 5, 6, 7]",/,2500,3000,0,8,252.7587515,1024,2,48000,-16,main,"[(0, -252), (178, -178), (252, 0), (178, 178), (0, 252), (-178, 178), (-252, 0), (-178, -178)]",[],41,odd,5,NA,1039784,1044764,1044764,909539,908527,1923,964833,964833,1923,1923,921615,1200621,1922,1044764,1199633,1198652,1198652,NA,972,study_X,0,12075,1,yes,1680
undefined,undefined,NA,NA,NA,12075,12075,black,no,legacy,legacy,legacy,0,green,"(0, 123, 0)",color,present,highProb,rectangular,swap,swap,swap,swap,red,"(177, 0, 0)",lowProb,lowProb4,rectangular,uniform,1,undefined,0,0.255208333,1,1,375.2864583,1,49,72055,0,0,0,0,0,0,0,0,82,0,1,0.255208333,375.2864583,49,72055,81,81,81,11/27/2018 16:35,Default description,yes,<openexp._canvas.legacy.Legacy object at 0x054A07F0>,<openexp._canvas.legacy.Legacy object at 0x05506C50>,<openexp._canvas.legacy.Legacy object at 0x054D07F0>,<openexp._canvas.legacy.Legacy object at 0x05324930>,<openexp._canvas.legacy.Legacy object at 0x05314190>,<openexp._canvas.legacy.Legacy object at 0x05494290>,<openexp._canvas.legacy.Legacy object at 0x054ED190>,<openexp._canvas.legacy.Legacy object at 0x05324970>,75,SpatProbMultiple3.osexp,C:/Userdata/Michel/SpatProbMultiple3,no,mono,no,18,no,white,no,yes,0.09,98,1050,legacy,315,56,56,1,C:/Userdata/Michel/SpatProbMultiple3/beh/subject-17.csv,legacy,9,192,25,Kafkaesque Koffka,3.2.5,yes,598477b2b83f69022949e7e9,47,green,rectangular,red,rectangular,0,/,632,space,12075,12075,"(80, 80, 80)","(0, 123, 0)","(177, 0, 0)","(155, 155, 155)",2,legacy,experiment,"[0, 1, 2, 3, 4, 5, 6, 7]",/,2500,3000,0,8,252.7587515,1024,2,48000,-16,main,"[(0, -252), (178, -178), (252, 0), (178, 178), (0, 252), (-178, 178), (-252, 0), (-178, -178)]",[],41,odd,5,NA,1039784,1044764,1044764,909539,908527,1923,964833,964833,1923,1923,921615,1202685,1922,1044764,1202050,1201068,1201068,NA,972,study_X,0,12075,1,yes,1680
undefined,undefined,NA,NA,NA,12075,12075,black,no,legacy,legacy,legacy,0,green,"(0, 123, 0)",color,present,highProb,rectangular,same,same,same,same,red,"(177, 0, 0)",lowProb,lowProb5,rectangular,uniform,1,undefined,0,0.260416667,1,1,384.546875,1,50,73833,0,0,0,0,0,0,0,0,83,0,1,0.260416667,384.546875,50,73833,82,82,82,11/27/2018 16:35,Default description,yes,<openexp._canvas.legacy.Legacy object at 0x054A07F0>,<openexp._canvas.legacy.Legacy object at 0x05506C50>,<openexp._canvas.legacy.Legacy object at 0x054D07F0>,<openexp._canvas.legacy.Legacy object at 0x05324930>,<openexp._canvas.legacy.Legacy object at 0x05314190>,<openexp._canvas.legacy.Legacy object at 0x05494290>,<openexp._canvas.legacy.Legacy object at 0x05329510>,<openexp._canvas.legacy.Legacy object at 0x05324970>,75,SpatProbMultiple3.osexp,C:/Userdata/Michel/SpatProbMultiple3,no,mono,no,18,no,white,no,yes,0.09,98,1050,legacy,45,57,57,1,C:/Userdata/Michel/SpatProbMultiple3/beh/subject-17.csv,legacy,9,192,25,Kafkaesque Koffka,3.2.5,yes,598477b2b83f69022949e7e9,47,green,rectangular,red,rectangular,0,\,1778,space,12075,12075,"(80, 80, 80)","(0, 123, 0)","(177, 0, 0)","(155, 155, 155)",2,legacy,experiment,"[0, 1, 2, 3, 4, 5, 6, 7]",\,2500,3000,0,8,252.7587515,1024,2,48000,-16,main,"[(0, -252), (178, -178), (252, 0), (178, 178), (0, 252), (-178, 178), (-252, 0), (-178, -178)]",[],41,odd,6,NA,1039784,1044764,1044764,909539,908527,1923,964833,964833,1923,1923,921615,1205868,1922,1044764,1204087,1203105,1203105,NA,972,study_X,0,12075,1,yes,1680
undefined,undefined,NA,NA,NA,12075,12075,black,no,legacy,legacy,legacy,0,red,"(177, 0, 0)",shape,present,lowProb3,circular,swap,swap,same,same,red,"(177, 0, 0)",lowProb,lowProb6,rectangular,uniform,1,undefined,0,0.265625,1,1,393.3072917,1,51,75515,0,0,0,0,0,0,0,0,84,0,1,0.265625,393.3072917,51,75515,83,83,83,11/27/2018 16:35,Default description,yes,<openexp._canvas.legacy.Legacy object at 0x054A07F0>,<openexp._canvas.legacy.Legacy object at 0x05506C50>,<openexp._canvas.legacy.Legacy object at 0x054D07F0>,<openexp._canvas.legacy.Legacy object at 0x05324930>,<openexp._canvas.legacy.Legacy object at 0x05314190>,<openexp._canvas.legacy.Legacy object at 0x05494290>,<openexp._canvas.legacy.Legacy object at 0x054A0F90>,<openexp._canvas.legacy.Legacy object at 0x05324970>,75,SpatProbMultiple3.osexp,C:/Userdata/Michel/SpatProbMultiple3,no,mono,no,18,no,white,no,yes,0.09,98,1050,legacy,315,58,58,1,C:/Userdata/Michel/SpatProbMultiple3/beh/subject-17.csv,legacy,9,192,25,Kafkaesque Koffka,3.2.5,yes,598477b2b83f69022949e7e9,47,red,circular,red,rectangular,0,/,1682,space,12075,12075,"(80, 80, 80)","(0, 123, 0)","(177, 0, 0)","(155, 155, 155)",2,legacy,experiment,"[0, 1, 2, 3, 4, 5, 6, 7]",/,2500,3000,0,8,252.7587515,1024,2,48000,-16,main,"[(0, -252), (178, -178), (252, 0), (178, 178), (0, 252), (-178, 178), (-252, 0), (-178, -178)]",[],41,odd,7,NA,1039784,1044764,1044764,909539,908527,1923,964833,964833,1923,1923,921615,1208948,1922,1044764,1207264,1206282,1206282,NA,972,study_X,0,12075,1,yes,1680
undefined,undefined,NA,NA,NA,12075,12075,black,no,legacy,legacy,legacy,0,red,"(177, 0, 0)",color,present,lowProb4,circular,same,same,swap,swap,green,"(0, 123, 0)",lowProb,lowProb3,circular,uniform,1,undefined,0,0.270833333,1,1,402.140625,1,52,77211,0,0,0,0,0,0,0,0,85,0,1,0.270833333,402.140625,52,77211,84,84,84,11/27/2018 16:35,Default description,yes,<openexp._canvas.legacy.Legacy object at 0x054A07F0>,<openexp._canvas.legacy.Legacy object at 0x05506C50>,<openexp._canvas.legacy.Legacy object at 0x054D07F0>,<openexp._canvas.legacy.Legacy object at 0x05324930>,<openexp._canvas.legacy.Legacy object at 0x05314190>,<openexp._canvas.legacy.Legacy object at 0x05494290>,<openexp._canvas.legacy.Legacy object at 0x054D09F0>,<openexp._canvas.legacy.Legacy object at 0x05324970>,75,SpatProbMultiple3.osexp,C:/Userdata/Michel/SpatProbMultiple3,no,mono,no,18,no,white,no,yes,0.09,98,1050,legacy,45,59,59,1,C:/Userdata/Michel/SpatProbMultiple3/beh/subject-17.csv,legacy,9,192,25,Kafkaesque Koffka,3.2.5,yes,598477b2b83f69022949e7e9,47,red,circular,green,circular,0,\,1696,space,12075,12075,"(80, 80, 80)","(0, 123, 0)","(177, 0, 0)","(155, 155, 155)",2,legacy,experiment,"[0, 1, 2, 3, 4, 5, 6, 7]",\,2500,3000,0,8,252.7587515,1024,2,48000,-16,main,"[(0, -252), (178, -178), (252, 0), (178, 178), (0, 252), (-178, 178), (-252, 0), (-178, -178)]",[],41,odd,3,NA,1039784,1044764,1044764,909539,908527,1923,964833,964833,1923,1923,921615,1212060,1922,1044764,1210362,1209380,1209380,NA,972,study_X,0,12075,1,yes,1680
undefined,undefined,NA,NA,NA,12075,12075,black,no,legacy,legacy,legacy,0,green,"(0, 123, 0)",shape,present,lowProb1,circular,swap,same,same,swap,green,"(0, 123, 0)",lowProb,lowProb3,rectangular,uniform,1,undefined,0,0.276041667,1,1,411.2864583,1,53,78967,0,0,0,0,0,0,0,0,86,0,1,0.276041667,411.2864583,53,78967,85,85,85,11/27/2018 16:35,Default description,yes,<openexp._canvas.legacy.Legacy object at 0x054A07F0>,<openexp._canvas.legacy.Legacy object at 0x05506C50>,<openexp._canvas.legacy.Legacy object at 0x054D07F0>,<openexp._canvas.legacy.Legacy object at 0x05324930>,<openexp._canvas.legacy.Legacy object at 0x05314190>,<openexp._canvas.legacy.Legacy object at 0x05494290>,<openexp._canvas.legacy.Legacy object at 0x054B7AB0>,<openexp._canvas.legacy.Legacy object at 0x05324970>,75,SpatProbMultiple3.osexp,C:/Userdata/Michel/SpatProbMultiple3,no,mono,no,18,no,white,no,yes,0.09,98,1050,legacy,45,60,60,1,C:/Userdata/Michel/SpatProbMultiple3/beh/subject-17.csv,legacy,9,192,25,Kafkaesque Koffka,3.2.5,yes,598477b2b83f69022949e7e9,47,green,circular,green,rectangular,0,\,1756,space,12075,12075,"(80, 80, 80)","(0, 123, 0)","(177, 0, 0)","(155, 155, 155)",2,legacy,experiment,"[0, 1, 2, 3, 4, 5, 6, 7]",\,2500,3000,0,8,252.7587515,1024,2,48000,-16,main,"[(0, -252), (178, -178), (252, 0), (178, 178), (0, 252), (-178, 178), (-252, 0), (-178, -178)]",[],41,odd,3,NA,1039784,1044764,1044764,909539,908527,1923,964833,964833,1923,1923,921615,1215229,1922,1044764,1213470,1212489,1212489,NA,972,study_X,0,12075,1,yes,1680
undefined,undefined,NA,NA,NA,12075,12075,black,no,legacy,legacy,legacy,0,green,"(0, 123, 0)",color,present,highProb,circular,same,same,swap,swap,red,"(177, 0, 0)",lowProb,lowProb5,circular,uniform,0,undefined,0,0.276041667,1,1,419.0104167,1,53,80450,0,0,0,0,0,0,0,0,87,0,1,0.276041667,419.0104167,53,80450,86,86,86,11/27/2018 16:35,Default description,yes,<openexp._canvas.legacy.Legacy object at 0x054A07F0>,<openexp._canvas.legacy.Legacy object at 0x05506C50>,<openexp._canvas.legacy.Legacy object at 0x054D07F0>,<openexp._canvas.legacy.Legacy object at 0x05324930>,<openexp._canvas.legacy.Legacy object at 0x05314190>,<openexp._canvas.legacy.Legacy object at 0x05494290>,<openexp._canvas.legacy.Legacy object at 0x054D7BD0>,<openexp._canvas.legacy.Legacy object at 0x05324970>,75,SpatProbMultiple3.osexp,C:/Userdata/Michel/SpatProbMultiple3,no,mono,no,18,no,white,no,yes,0.09,98,1050,legacy,45,61,61,1,C:/Userdata/Michel/SpatProbMultiple3/beh/subject-17.csv,legacy,9,192,25,Kafkaesque Koffka,3.2.5,yes,598477b2b83f69022949e7e9,47,green,circular,red,circular,0,/,1483,space,12075,12075,"(80, 80, 80)","(0, 123, 0)","(177, 0, 0)","(155, 155, 155)",2,legacy,experiment,"[0, 1, 2, 3, 4, 5, 6, 7]",\,2500,3000,0,8,252.7587515,1024,2,48000,-16,main,"[(0, -252), (178, -178), (252, 0), (178, 178), (0, 252), (-178, 178), (-252, 0), (-178, -178)]",[],41,odd,6,NA,1039784,1044764,1044764,909539,908527,1923,964833,964833,1923,1923,921615,1218133,1922,1044764,1216647,1215666,1215666,NA,972,study_X,0,12075,1,yes,1680
undefined,undefined,NA,NA,NA,12075,12075,black,no,legacy,legacy,legacy,0,red,"(177, 0, 0)",color,present,lowProb6,circular,swap,same,swap,same,green,"(0, 123, 0)",lowProb,lowProb3,circular,uniform,1,undefined,0,0.28125,1,1,425.640625,1,54,81723,0,0,0,0,0,0,0,0,88,0,1,0.28125,425.640625,54,81723,87,87,87,11/27/2018 16:35,Default description,yes,<openexp._canvas.legacy.Legacy object at 0x054A07F0>,<openexp._canvas.legacy.Legacy object at 0x05506C50>,<openexp._canvas.legacy.Legacy object at 0x054D07F0>,<openexp._canvas.legacy.Legacy object at 0x05324930>,<openexp._canvas.legacy.Legacy object at 0x05314190>,<openexp._canvas.legacy.Legacy object at 0x05494290>,<openexp._canvas.legacy.Legacy object at 0x055069D0>,<openexp._canvas.legacy.Legacy object at 0x05324970>,75,SpatProbMultiple3.osexp,C:/Userdata/Michel/SpatProbMultiple3,no,mono,no,18,no,white,no,yes,0.09,98,1050,legacy,315,62,62,1,C:/Userdata/Michel/SpatProbMultiple3/beh/subject-17.csv,legacy,9,192,25,Kafkaesque Koffka,3.2.5,yes,598477b2b83f69022949e7e9,47,red,circular,green,circular,0,/,1273,space,12075,12075,"(80, 80, 80)","(0, 123, 0)","(177, 0, 0)","(155, 155, 155)",2,legacy,experiment,"[0, 1, 2, 3, 4, 5, 6, 7]",/,2500,3000,0,8,252.7587515,1024,2,48000,-16,main,"[(0, -252), (178, -178), (252, 0), (178, 178), (0, 252), (-178, 178), (-252, 0), (-178, -178)]",[],41,odd,3,NA,1039784,1044764,1044764,909539,908527,1923,964833,964833,1923,1923,921615,1220829,1922,1044764,1219552,1218570,1218570,NA,972,study_X,0,12075,1,yes,1680
undefined,undefined,NA,NA,NA,12075,12075,black,no,legacy,legacy,legacy,0,green,"(0, 123, 0)",color,present,highProb,rectangular,swap,swap,swap,swap,red,"(177, 0, 0)",lowProb,lowProb3,rectangular,uniform,1,undefined,0,0.286458333,1,1,428.8333333,1,55,82336,0,0,0,0,0,0,0,0,89,0,1,0.286458333,428.8333333,55,82336,88,88,88,11/27/2018 16:35,Default description,yes,<openexp._canvas.legacy.Legacy object at 0x054A07F0>,<openexp._canvas.legacy.Legacy object at 0x05506C50>,<openexp._canvas.legacy.Legacy object at 0x054D07F0>,<openexp._canvas.legacy.Legacy object at 0x05324930>,<openexp._canvas.legacy.Legacy object at 0x05314190>,<openexp._canvas.legacy.Legacy object at 0x05494290>,<openexp._canvas.legacy.Legacy object at 0x05502F70>,<openexp._canvas.legacy.Legacy object at 0x05324970>,75,SpatProbMultiple3.osexp,C:/Userdata/Michel/SpatProbMultiple3,no,mono,no,18,no,white,no,yes,0.09,98,1050,legacy,315,63,63,1,C:/Userdata/Michel/SpatProbMultiple3/beh/subject-17.csv,legacy,9,192,25,Kafkaesque Koffka,3.2.5,yes,598477b2b83f69022949e7e9,47,green,rectangular,red,rectangular,0,/,613,space,12075,12075,"(80, 80, 80)","(0, 123, 0)","(177, 0, 0)","(155, 155, 155)",2,legacy,experiment,"[0, 1, 2, 3, 4, 5, 6, 7]",/,2500,3000,0,8,252.7587515,1024,2,48000,-16,main,"[(0, -252), (178, -178), (252, 0), (178, 178), (0, 252), (-178, 178), (-252, 0), (-178, -178)]",[],41,odd,3,NA,1039784,1044764,1044764,909539,908527,1923,964833,964833,1923,1923,921615,1222852,1922,1044764,1222236,1221254,1221254,NA,972,study_X,0,12075,1,yes,1680
