acc,accuracy,answerQ1,answerQ2,answerQ3,average_response_time,avg_rt,background,bidi,canvas_backend,clock_backend,color_backend,compensation,cond_disColor,cond_disColorRGB,cond_disFeature,cond_disPresent,cond_disProbability,cond_disShape,cond_primingDisColor,cond_primingDisShape,cond_primingTarColor,cond_primingTarShape,cond_tarColor,cond_tarColorRGB,cond_tarLocation,cond_tarLocationLong,cond_tarShape,coordinates,correct,correct_continuePress,count_Questions,count_blockAcc,count_blockFeed,count_blockLoop,count_blockRT,count_blockSeq,count_blockSumCorrect,count_blockSumRT,count_continuePress,count_example,count_expSettings,count_exp_mainLoop,count_experiment,count_instructions,count_instructions1,count_instructions2,count_log,count_main,count_prepCanvas,count_totalAcc,count_totalRT,count_totalSumCorrect,count_totalSumRT,count_trialResp,count_trialSeq,count_trialTask,datetime,description,disable_garbage_collection,dispBlank,dispBlockStart,dispFeedBlock,dispFix,dispInstructions,dispQuestions,dispSearch,dispStartScreen,distance2screen,experiment_file,experiment_path,font_bold,font_family,font_italic,font_size,font_underline,foreground,form_clicks,fullscreen,gaborFreq,gaborSize,height,keyboard_backend,lineOriTar,live_row,live_row_blockLoop,live_row_exp_mainLoop,logfile,mouse_backend,noExpBlocks,noExpTrials,noPracTrials,opensesame_codename,opensesame_version,osf_always_upload_experiment,osf_id,physical_screensize,previousDisColor,previousDisShape,previousTarColor,previousTarShape,repeat_cycle,response,responseTime,response_continuePress,response_time,response_time_continuePress,rgb_gray,rgb_green,rgb_red,rgb_white,round_decimals,sampler_backend,set_blockType,set_counterPositions,set_respCorrect,set_respTimeoutExp,set_respTimeoutPrac,set_rotation,set_setSize,sizeImaginary,sound_buf_size,sound_channels,sound_freq,sound_sample_size,start,stimPositions,stimuli,subject_nr,subject_parity,tarIdx,time_Questions,time_blockFeed,time_blockLoop,time_blockSeq,time_continuePress,time_example,time_expSettings,time_exp_mainLoop,time_experiment,time_instructions,time_instructions1,time_instructions2,time_log,time_main,time_prepCanvas,time_trialResp,time_trialSeq,time_trialTask,timing_EEGwait,timing_fix,title,total_correct,total_response_time,total_responses,uniform_coordinates,width
undefined,undefined,NA,NA,NA,6245,6245,black,no,legacy,legacy,legacy,0,green,"(0, 123, 0)",shape,present,highProb,circular,same,same,same,same,green,"(0, 123, 0)",lowProb,lowProb5,rectangular,uniform,1,undefined,0,0.005208333,1,1,5.203125,1,1,999,0,0,0,0,0,0,0,0,26,0,1,0.005208333,5.203125,1,999,25,25,25,11/27/2018 15:35,Default description,yes,<openexp._canvas.legacy.Legacy object at 0x12CD6430>,<openexp._canvas.legacy.Legacy object at 0x0B03F2D0>,<openexp._canvas.legacy.Legacy object at 0x12D27BD0>,<openexp._canvas.legacy.Legacy object at 0x0ADB8A70>,<openexp._canvas.legacy.Legacy object at 0x0B76D390>,<openexp._canvas.legacy.Legacy object at 0x12CC89B0>,<openexp._canvas.legacy.Legacy object at 0x12D27AB0>,<openexp._canvas.legacy.Legacy object at 0x0B03FBF0>,75,SpatProbMultiple3.osexp,C:/Userdata/Michel/SpatProbMultiple3,no,mono,no,18,no,white,no,yes,0.09,98,1050,legacy,45,0,0,1,C:/Userdata/Michel/SpatProbMultiple3/beh/subject-15.csv,legacy,9,192,25,Kafkaesque Koffka,3.2.5,yes,598477b2b83f69022949e7e9,47,green,circular,green,rectangular,0,\,999,space,6245,6245,"(80, 80, 80)","(0, 123, 0)","(177, 0, 0)","(155, 155, 155)",2,legacy,experiment,"[6, 7, 0, 1, 2, 3, 4, 5]",\,2500,3000,0,8,252.7587515,1024,2,48000,-16,main,"[(0, -252), (178, -178), (252, 0), (178, 178), (0, 252), (-178, 178), (-252, 0), (-178, -178)]",[],39,odd,4,NA,101673,184842,184842,11938,10935,1589,19747,19747,1589,1589,18183,192374,1585,184842,191372,185252,185252,NA,953,study_X,0,6245,1,yes,1680
undefined,undefined,NA,NA,NA,6245,6245,black,no,legacy,legacy,legacy,0,green,"(0, 123, 0)",color,absent,highProb,circular,same,same,same,swap,green,"(0, 123, 0)",lowProb,lowProb2,circular,uniform,1,undefined,0,0.010416667,1,1,12.95833333,1,2,2488,0,0,0,0,0,0,0,0,27,0,1,0.010416667,12.95833333,2,2488,26,26,26,11/27/2018 15:35,Default description,yes,<openexp._canvas.legacy.Legacy object at 0x12CD6430>,<openexp._canvas.legacy.Legacy object at 0x0B03F2D0>,<openexp._canvas.legacy.Legacy object at 0x12D27BD0>,<openexp._canvas.legacy.Legacy object at 0x0ADB8A70>,<openexp._canvas.legacy.Legacy object at 0x0B76D390>,<openexp._canvas.legacy.Legacy object at 0x12CC89B0>,<openexp._canvas.legacy.Legacy object at 0x12D0F4D0>,<openexp._canvas.legacy.Legacy object at 0x0B03FBF0>,75,SpatProbMultiple3.osexp,C:/Userdata/Michel/SpatProbMultiple3,no,mono,no,18,no,white,no,yes,0.09,98,1050,legacy,315,1,1,1,C:/Userdata/Michel/SpatProbMultiple3/beh/subject-15.csv,legacy,9,192,25,Kafkaesque Koffka,3.2.5,yes,598477b2b83f69022949e7e9,47,green,circular,green,circular,0,/,1489,space,6245,6245,"(80, 80, 80)","(0, 123, 0)","(177, 0, 0)","(155, 155, 155)",2,legacy,experiment,"[6, 7, 0, 1, 2, 3, 4, 5]",/,2500,3000,0,8,252.7587515,1024,2,48000,-16,main,"[(0, -252), (178, -178), (252, 0), (178, 178), (0, 252), (-178, 178), (-252, 0), (-178, -178)]",[],39,odd,0,NA,101673,184842,184842,11938,10935,1589,19747,19747,1589,1589,18183,195310,1585,184842,193817,192862,192862,NA,953,study_X,0,6245,1,yes,1680
undefined,undefined,NA,NA,NA,6245,6245,black,no,legacy,legacy,legacy,0,red,"(177, 0, 0)",shape,present,highProb,circular,swap,same,swap,swap,red,"(177, 0, 0)",lowProb,lowProb4,rectangular,uniform,1,undefined,0,0.015625,1,1,19.38541667,1,3,3722,0,0,0,0,0,0,0,0,28,0,1,0.015625,19.38541667,3,3722,27,27,27,11/27/2018 15:35,Default description,yes,<openexp._canvas.legacy.Legacy object at 0x12CD6430>,<openexp._canvas.legacy.Legacy object at 0x0B03F2D0>,<openexp._canvas.legacy.Legacy object at 0x12D27BD0>,<openexp._canvas.legacy.Legacy object at 0x0ADB8A70>,<openexp._canvas.legacy.Legacy object at 0x0B76D390>,<openexp._canvas.legacy.Legacy object at 0x12CC89B0>,<openexp._canvas.legacy.Legacy object at 0x12D00210>,<openexp._canvas.legacy.Legacy object at 0x0B03FBF0>,75,SpatProbMultiple3.osexp,C:/Userdata/Michel/SpatProbMultiple3,no,mono,no,18,no,white,no,yes,0.09,98,1050,legacy,45,2,2,1,C:/Userdata/Michel/SpatProbMultiple3/beh/subject-15.csv,legacy,9,192,25,Kafkaesque Koffka,3.2.5,yes,598477b2b83f69022949e7e9,47,red,circular,red,rectangular,0,\,1234,space,6245,6245,"(80, 80, 80)","(0, 123, 0)","(177, 0, 0)","(155, 155, 155)",2,legacy,experiment,"[6, 7, 0, 1, 2, 3, 4, 5]",\,2500,3000,0,8,252.7587515,1024,2,48000,-16,main,"[(0, -252), (178, -178), (252, 0), (178, 178), (0, 252), (-178, 178), (-252, 0), (-178, -178)]",[],39,odd,3,NA,101673,184842,184842,11938,10935,1589,19747,19747,1589,1589,18183,197950,1585,184842,196712,195757,195757,NA,953,study_X,0,6245,1,yes,1680
undefined,undefined,NA,NA,NA,6245,6245,black,no,legacy,legacy,legacy,0,red,"(177, 0, 0)",color,present,lowProb6,rectangular,same,swap,swap,same,green,"(0, 123, 0)",lowProb,lowProb5,rectangular,uniform,1,undefined,0,0.020833333,1,1,27.38541667,1,4,5258,0,0,0,0,0,0,0,0,29,0,1,0.020833333,27.38541667,4,5258,28,28,28,11/27/2018 15:35,Default description,yes,<openexp._canvas.legacy.Legacy object at 0x12CD6430>,<openexp._canvas.legacy.Legacy object at 0x0B03F2D0>,<openexp._canvas.legacy.Legacy object at 0x12D27BD0>,<openexp._canvas.legacy.Legacy object at 0x0ADB8A70>,<openexp._canvas.legacy.Legacy object at 0x0B76D390>,<openexp._canvas.legacy.Legacy object at 0x12CC89B0>,<openexp._canvas.legacy.Legacy object at 0x12CD20B0>,<openexp._canvas.legacy.Legacy object at 0x0B03FBF0>,75,SpatProbMultiple3.osexp,C:/Userdata/Michel/SpatProbMultiple3,no,mono,no,18,no,white,no,yes,0.09,98,1050,legacy,45,3,3,1,C:/Userdata/Michel/SpatProbMultiple3/beh/subject-15.csv,legacy,9,192,25,Kafkaesque Koffka,3.2.5,yes,598477b2b83f69022949e7e9,47,red,rectangular,green,rectangular,0,\,1536,space,6245,6245,"(80, 80, 80)","(0, 123, 0)","(177, 0, 0)","(155, 155, 155)",2,legacy,experiment,"[6, 7, 0, 1, 2, 3, 4, 5]",\,2500,3000,0,8,252.7587515,1024,2,48000,-16,main,"[(0, -252), (178, -178), (252, 0), (178, 178), (0, 252), (-178, 178), (-252, 0), (-178, -178)]",[],39,odd,4,NA,101673,184842,184842,11938,10935,1589,19747,19747,1589,1589,18183,200885,1585,184842,199346,198390,198390,NA,953,study_X,0,6245,1,yes,1680
undefined,undefined,NA,NA,NA,6245,6245,black,no,legacy,legacy,legacy,0,red,"(177, 0, 0)",shape,absent,lowProb5,rectangular,same,same,swap,same,red,"(177, 0, 0)",lowProb,lowProb4,rectangular,uniform,1,undefined,0,0.026041667,1,1,33,1,5,6336,0,0,0,0,0,0,0,0,30,0,1,0.026041667,33,5,6336,29,29,29,11/27/2018 15:35,Default description,yes,<openexp._canvas.legacy.Legacy object at 0x12CD6430>,<openexp._canvas.legacy.Legacy object at 0x0B03F2D0>,<openexp._canvas.legacy.Legacy object at 0x12D27BD0>,<openexp._canvas.legacy.Legacy object at 0x0ADB8A70>,<openexp._canvas.legacy.Legacy object at 0x0B76D390>,<openexp._canvas.legacy.Legacy object at 0x12CC89B0>,<openexp._canvas.legacy.Legacy object at 0x12D0AF10>,<openexp._canvas.legacy.Legacy object at 0x0B03FBF0>,75,SpatProbMultiple3.osexp,C:/Userdata/Michel/SpatProbMultiple3,no,mono,no,18,no,white,no,yes,0.09,98,1050,legacy,45,4,4,1,C:/Userdata/Michel/SpatProbMultiple3/beh/subject-15.csv,legacy,9,192,25,Kafkaesque Koffka,3.2.5,yes,598477b2b83f69022949e7e9,47,red,rectangular,red,rectangular,0,\,1078,space,6245,6245,"(80, 80, 80)","(0, 123, 0)","(177, 0, 0)","(155, 155, 155)",2,legacy,experiment,"[6, 7, 0, 1, 2, 3, 4, 5]",\,2500,3000,0,8,252.7587515,1024,2,48000,-16,main,"[(0, -252), (178, -178), (252, 0), (178, 178), (0, 252), (-178, 178), (-252, 0), (-178, -178)]",[],39,odd,3,NA,101673,184842,184842,11938,10935,1589,19747,19747,1589,1589,18183,203349,1585,184842,202269,201313,201313,NA,953,study_X,0,6245,1,yes,1680
undefined,undefined,NA,NA,NA,6245,6245,black,no,legacy,legacy,legacy,0,red,"(177, 0, 0)",color,absent,lowProb5,rectangular,same,same,same,same,red,"(177, 0, 0)",lowProb,lowProb6,rectangular,uniform,1,undefined,0,0.03125,1,1,40.52604167,1,6,7781,0,0,0,0,0,0,0,0,31,0,1,0.03125,40.52604167,6,7781,30,30,30,11/27/2018 15:35,Default description,yes,<openexp._canvas.legacy.Legacy object at 0x12CD6430>,<openexp._canvas.legacy.Legacy object at 0x0B03F2D0>,<openexp._canvas.legacy.Legacy object at 0x12D27BD0>,<openexp._canvas.legacy.Legacy object at 0x0ADB8A70>,<openexp._canvas.legacy.Legacy object at 0x0B76D390>,<openexp._canvas.legacy.Legacy object at 0x12CC89B0>,<openexp._canvas.legacy.Legacy object at 0x12D00330>,<openexp._canvas.legacy.Legacy object at 0x0B03FBF0>,75,SpatProbMultiple3.osexp,C:/Userdata/Michel/SpatProbMultiple3,no,mono,no,18,no,white,no,yes,0.09,98,1050,legacy,315,5,5,1,C:/Userdata/Michel/SpatProbMultiple3/beh/subject-15.csv,legacy,9,192,25,Kafkaesque Koffka,3.2.5,yes,598477b2b83f69022949e7e9,47,red,rectangular,red,rectangular,0,/,1445,space,6245,6245,"(80, 80, 80)","(0, 123, 0)","(177, 0, 0)","(155, 155, 155)",2,legacy,experiment,"[6, 7, 0, 1, 2, 3, 4, 5]",/,2500,3000,0,8,252.7587515,1024,2,48000,-16,main,"[(0, -252), (178, -178), (252, 0), (178, 178), (0, 252), (-178, 178), (-252, 0), (-178, -178)]",[],39,odd,5,NA,101673,184842,184842,11938,10935,1589,19747,19747,1589,1589,18183,206213,1585,184842,204766,203810,203810,NA,953,study_X,0,6245,1,yes,1680
undefined,undefined,NA,NA,NA,6245,6245,black,no,legacy,legacy,legacy,0,red,"(177, 0, 0)",shape,present,highProb,circular,same,swap,same,same,red,"(177, 0, 0)",highProbColor,highProbColor,rectangular,uniform,1,undefined,0,0.036458333,1,1,50.515625,1,7,9699,0,0,0,0,0,0,0,0,32,0,1,0.036458333,50.515625,7,9699,31,31,31,11/27/2018 15:35,Default description,yes,<openexp._canvas.legacy.Legacy object at 0x12CD6430>,<openexp._canvas.legacy.Legacy object at 0x0B03F2D0>,<openexp._canvas.legacy.Legacy object at 0x12D27BD0>,<openexp._canvas.legacy.Legacy object at 0x0ADB8A70>,<openexp._canvas.legacy.Legacy object at 0x0B76D390>,<openexp._canvas.legacy.Legacy object at 0x12CC89B0>,<openexp._canvas.legacy.Legacy object at 0x12CC2330>,<openexp._canvas.legacy.Legacy object at 0x0B03FBF0>,75,SpatProbMultiple3.osexp,C:/Userdata/Michel/SpatProbMultiple3,no,mono,no,18,no,white,no,yes,0.09,98,1050,legacy,315,6,6,1,C:/Userdata/Michel/SpatProbMultiple3/beh/subject-15.csv,legacy,9,192,25,Kafkaesque Koffka,3.2.5,yes,598477b2b83f69022949e7e9,47,red,circular,red,rectangular,0,/,1918,space,6245,6245,"(80, 80, 80)","(0, 123, 0)","(177, 0, 0)","(155, 155, 155)",2,legacy,experiment,"[6, 7, 0, 1, 2, 3, 4, 5]",/,2500,3000,0,8,252.7587515,1024,2,48000,-16,main,"[(0, -252), (178, -178), (252, 0), (178, 178), (0, 252), (-178, 178), (-252, 0), (-178, -178)]",[],39,odd,6,NA,101673,184842,184842,11938,10935,1589,19747,19747,1589,1589,18183,209517,1585,184842,207596,206641,206641,NA,953,study_X,0,6245,1,yes,1680
undefined,undefined,NA,NA,NA,6245,6245,black,no,legacy,legacy,legacy,0,red,"(177, 0, 0)",shape,present,highProbOther,rectangular,same,swap,same,swap,red,"(177, 0, 0)",lowProb,lowProb1,circular,uniform,1,undefined,0,0.041666667,1,1,56.41145833,1,8,10831,0,0,0,0,0,0,0,0,33,0,1,0.041666667,56.41145833,8,10831,32,32,32,11/27/2018 15:35,Default description,yes,<openexp._canvas.legacy.Legacy object at 0x12CD6430>,<openexp._canvas.legacy.Legacy object at 0x0B03F2D0>,<openexp._canvas.legacy.Legacy object at 0x12D27BD0>,<openexp._canvas.legacy.Legacy object at 0x0ADB8A70>,<openexp._canvas.legacy.Legacy object at 0x0B76D390>,<openexp._canvas.legacy.Legacy object at 0x12CC89B0>,<openexp._canvas.legacy.Legacy object at 0x12D0ACD0>,<openexp._canvas.legacy.Legacy object at 0x0B03FBF0>,75,SpatProbMultiple3.osexp,C:/Userdata/Michel/SpatProbMultiple3,no,mono,no,18,no,white,no,yes,0.09,98,1050,legacy,315,7,7,1,C:/Userdata/Michel/SpatProbMultiple3/beh/subject-15.csv,legacy,9,192,25,Kafkaesque Koffka,3.2.5,yes,598477b2b83f69022949e7e9,47,red,rectangular,red,circular,0,/,1132,space,6245,6245,"(80, 80, 80)","(0, 123, 0)","(177, 0, 0)","(155, 155, 155)",2,legacy,experiment,"[6, 7, 0, 1, 2, 3, 4, 5]",/,2500,3000,0,8,252.7587515,1024,2,48000,-16,main,"[(0, -252), (178, -178), (252, 0), (178, 178), (0, 252), (-178, 178), (-252, 0), (-178, -178)]",[],39,odd,7,NA,101673,184842,184842,11938,10935,1589,19747,19747,1589,1589,18183,212054,1585,184842,210918,209963,209963,NA,953,study_X,0,6245,1,yes,1680
undefined,undefined,NA,NA,NA,6245,6245,black,no,legacy,legacy,legacy,0,red,"(177, 0, 0)",color,present,highProb,circular,same,swap,swap,same,green,"(0, 123, 0)",highProbShape,highProbShape,circular,uniform,1,undefined,0,0.046875,1,1,61.76041667,1,9,11858,0,0,0,0,0,0,0,0,34,0,1,0.046875,61.76041667,9,11858,33,33,33,11/27/2018 15:35,Default description,yes,<openexp._canvas.legacy.Legacy object at 0x12CD6430>,<openexp._canvas.legacy.Legacy object at 0x0B03F2D0>,<openexp._canvas.legacy.Legacy object at 0x12D27BD0>,<openexp._canvas.legacy.Legacy object at 0x0ADB8A70>,<openexp._canvas.legacy.Legacy object at 0x0B76D390>,<openexp._canvas.legacy.Legacy object at 0x12CC89B0>,<openexp._canvas.legacy.Legacy object at 0x12D00EB0>,<openexp._canvas.legacy.Legacy object at 0x0B03FBF0>,75,SpatProbMultiple3.osexp,C:/Userdata/Michel/SpatProbMultiple3,no,mono,no,18,no,white,no,yes,0.09,98,1050,legacy,315,8,8,1,C:/Userdata/Michel/SpatProbMultiple3/beh/subject-15.csv,legacy,9,192,25,Kafkaesque Koffka,3.2.5,yes,598477b2b83f69022949e7e9,47,red,circular,green,circular,0,/,1027,space,6245,6245,"(80, 80, 80)","(0, 123, 0)","(177, 0, 0)","(155, 155, 155)",2,legacy,experiment,"[6, 7, 0, 1, 2, 3, 4, 5]",/,2500,3000,0,8,252.7587515,1024,2,48000,-16,main,"[(0, -252), (178, -178), (252, 0), (178, 178), (0, 252), (-178, 178), (-252, 0), (-178, -178)]",[],39,odd,2,NA,101673,184842,184842,11938,10935,1589,19747,19747,1589,1589,18183,214486,1585,184842,213455,212500,212500,NA,953,study_X,0,6245,1,yes,1680
undefined,undefined,NA,NA,NA,6245,6245,black,no,legacy,legacy,legacy,0,red,"(177, 0, 0)",shape,present,lowProb6,rectangular,same,swap,swap,same,red,"(177, 0, 0)",highProbColor,highProbColor,circular,uniform,0,undefined,0,0.046875,1,1,74.78125,1,9,14358,0,0,0,0,0,0,0,0,35,0,1,0.046875,74.78125,9,14358,34,34,34,11/27/2018 15:35,Default description,yes,<openexp._canvas.legacy.Legacy object at 0x12CD6430>,<openexp._canvas.legacy.Legacy object at 0x0B03F2D0>,<openexp._canvas.legacy.Legacy object at 0x12D27BD0>,<openexp._canvas.legacy.Legacy object at 0x0ADB8A70>,<openexp._canvas.legacy.Legacy object at 0x0B76D390>,<openexp._canvas.legacy.Legacy object at 0x12CC89B0>,<openexp._canvas.legacy.Legacy object at 0x12CD20B0>,<openexp._canvas.legacy.Legacy object at 0x0B03FBF0>,75,SpatProbMultiple3.osexp,C:/Userdata/Michel/SpatProbMultiple3,no,mono,no,18,no,white,no,yes,0.09,98,1050,legacy,315,9,9,1,C:/Userdata/Michel/SpatProbMultiple3/beh/subject-15.csv,legacy,9,192,25,Kafkaesque Koffka,3.2.5,yes,598477b2b83f69022949e7e9,47,red,rectangular,red,circular,0,None,2500,space,6245,6245,"(80, 80, 80)","(0, 123, 0)","(177, 0, 0)","(155, 155, 155)",2,legacy,experiment,"[6, 7, 0, 1, 2, 3, 4, 5]",/,2500,3000,0,8,252.7587515,1024,2,48000,-16,main,"[(0, -252), (178, -178), (252, 0), (178, 178), (0, 252), (-178, 178), (-252, 0), (-178, -178)]",[],39,odd,6,NA,101673,184842,184842,11938,10935,1589,19747,19747,1589,1589,18183,218402,1585,184842,215900,214946,214946,NA,953,study_X,0,6245,1,yes,1680
undefined,undefined,NA,NA,NA,6245,6245,black,no,legacy,legacy,legacy,0,red,"(177, 0, 0)",shape,present,highProb,rectangular,same,same,same,same,red,"(177, 0, 0)",highProbColor,highProbColor,circular,uniform,1,undefined,0,0.052083333,1,1,83.30729167,1,10,15995,0,0,0,0,0,0,0,0,36,0,1,0.052083333,83.30729167,10,15995,35,35,35,11/27/2018 15:35,Default description,yes,<openexp._canvas.legacy.Legacy object at 0x12CD6430>,<openexp._canvas.legacy.Legacy object at 0x0B03F2D0>,<openexp._canvas.legacy.Legacy object at 0x12D27BD0>,<openexp._canvas.legacy.Legacy object at 0x0ADB8A70>,<openexp._canvas.legacy.Legacy object at 0x0B76D390>,<openexp._canvas.legacy.Legacy object at 0x12CC89B0>,<openexp._canvas.legacy.Legacy object at 0x0B03F690>,<openexp._canvas.legacy.Legacy object at 0x0B03FBF0>,75,SpatProbMultiple3.osexp,C:/Userdata/Michel/SpatProbMultiple3,no,mono,no,18,no,white,no,yes,0.09,98,1050,legacy,315,10,10,1,C:/Userdata/Michel/SpatProbMultiple3/beh/subject-15.csv,legacy,9,192,25,Kafkaesque Koffka,3.2.5,yes,598477b2b83f69022949e7e9,47,red,rectangular,red,circular,0,/,1637,space,6245,6245,"(80, 80, 80)","(0, 123, 0)","(177, 0, 0)","(155, 155, 155)",2,legacy,experiment,"[6, 7, 0, 1, 2, 3, 4, 5]",/,2500,3000,0,8,252.7587515,1024,2,48000,-16,main,"[(0, -252), (178, -178), (252, 0), (178, 178), (0, 252), (-178, 178), (-252, 0), (-178, -178)]",[],39,odd,6,NA,101673,184842,184842,11938,10935,1589,19747,19747,1589,1589,18183,221445,1585,184842,219805,218850,218850,NA,953,study_X,0,6245,1,yes,1680
undefined,undefined,NA,NA,NA,6245,6245,black,no,legacy,legacy,legacy,0,green,"(0, 123, 0)",color,present,highProb,rectangular,swap,same,same,swap,red,"(177, 0, 0)",lowProb,lowProb4,rectangular,uniform,1,undefined,0,0.057291667,1,1,92.18229167,1,11,17699,0,0,0,0,0,0,0,0,37,0,1,0.057291667,92.18229167,11,17699,36,36,36,11/27/2018 15:35,Default description,yes,<openexp._canvas.legacy.Legacy object at 0x12CD6430>,<openexp._canvas.legacy.Legacy object at 0x0B03F2D0>,<openexp._canvas.legacy.Legacy object at 0x12D27BD0>,<openexp._canvas.legacy.Legacy object at 0x0ADB8A70>,<openexp._canvas.legacy.Legacy object at 0x0B76D390>,<openexp._canvas.legacy.Legacy object at 0x12CC89B0>,<openexp._canvas.legacy.Legacy object at 0x12CD23B0>,<openexp._canvas.legacy.Legacy object at 0x0B03FBF0>,75,SpatProbMultiple3.osexp,C:/Userdata/Michel/SpatProbMultiple3,no,mono,no,18,no,white,no,yes,0.09,98,1050,legacy,315,11,11,1,C:/Userdata/Michel/SpatProbMultiple3/beh/subject-15.csv,legacy,9,192,25,Kafkaesque Koffka,3.2.5,yes,598477b2b83f69022949e7e9,47,green,rectangular,red,rectangular,0,/,1704,space,6245,6245,"(80, 80, 80)","(0, 123, 0)","(177, 0, 0)","(155, 155, 155)",2,legacy,experiment,"[6, 7, 0, 1, 2, 3, 4, 5]",/,2500,3000,0,8,252.7587515,1024,2,48000,-16,main,"[(0, -252), (178, -178), (252, 0), (178, 178), (0, 252), (-178, 178), (-252, 0), (-178, -178)]",[],39,odd,3,NA,101673,184842,184842,11938,10935,1589,19747,19747,1589,1589,18183,224533,1585,184842,222826,221870,221870,NA,953,study_X,0,6245,1,yes,1680
undefined,undefined,NA,NA,NA,6245,6245,black,no,legacy,legacy,legacy,0,green,"(0, 123, 0)",shape,absent,lowProb4,circular,same,swap,swap,swap,green,"(0, 123, 0)",highProbColor,highProbColor,circular,uniform,1,undefined,0,0.0625,1,1,101.4583333,1,12,19480,0,0,0,0,0,0,0,0,38,0,1,0.0625,101.4583333,12,19480,37,37,37,11/27/2018 15:35,Default description,yes,<openexp._canvas.legacy.Legacy object at 0x12CD6430>,<openexp._canvas.legacy.Legacy object at 0x0B03F2D0>,<openexp._canvas.legacy.Legacy object at 0x12D27BD0>,<openexp._canvas.legacy.Legacy object at 0x0ADB8A70>,<openexp._canvas.legacy.Legacy object at 0x0B76D390>,<openexp._canvas.legacy.Legacy object at 0x12CC89B0>,<openexp._canvas.legacy.Legacy object at 0x12D0B870>,<openexp._canvas.legacy.Legacy object at 0x0B03FBF0>,75,SpatProbMultiple3.osexp,C:/Userdata/Michel/SpatProbMultiple3,no,mono,no,18,no,white,no,yes,0.09,98,1050,legacy,315,12,12,1,C:/Userdata/Michel/SpatProbMultiple3/beh/subject-15.csv,legacy,9,192,25,Kafkaesque Koffka,3.2.5,yes,598477b2b83f69022949e7e9,47,green,circular,green,circular,0,/,1781,space,6245,6245,"(80, 80, 80)","(0, 123, 0)","(177, 0, 0)","(155, 155, 155)",2,legacy,experiment,"[6, 7, 0, 1, 2, 3, 4, 5]",/,2500,3000,0,8,252.7587515,1024,2,48000,-16,main,"[(0, -252), (178, -178), (252, 0), (178, 178), (0, 252), (-178, 178), (-252, 0), (-178, -178)]",[],39,odd,6,NA,101673,184842,184842,11938,10935,1589,19747,19747,1589,1589,18183,227718,1585,184842,225933,224978,224978,NA,953,study_X,0,6245,1,yes,1680
undefined,undefined,NA,NA,NA,6245,6245,black,no,legacy,legacy,legacy,0,red,"(177, 0, 0)",color,present,highProb,circular,swap,same,same,same,green,"(0, 123, 0)",lowProb,lowProb4,circular,uniform,1,undefined,0,0.067708333,1,1,107.3125,1,13,20604,0,0,0,0,0,0,0,0,39,0,1,0.067708333,107.3125,13,20604,38,38,38,11/27/2018 15:35,Default description,yes,<openexp._canvas.legacy.Legacy object at 0x12CD6430>,<openexp._canvas.legacy.Legacy object at 0x0B03F2D0>,<openexp._canvas.legacy.Legacy object at 0x12D27BD0>,<openexp._canvas.legacy.Legacy object at 0x0ADB8A70>,<openexp._canvas.legacy.Legacy object at 0x0B76D390>,<openexp._canvas.legacy.Legacy object at 0x12CC89B0>,<openexp._canvas.legacy.Legacy object at 0x0B03FA90>,<openexp._canvas.legacy.Legacy object at 0x0B03FBF0>,75,SpatProbMultiple3.osexp,C:/Userdata/Michel/SpatProbMultiple3,no,mono,no,18,no,white,no,yes,0.09,98,1050,legacy,45,13,13,1,C:/Userdata/Michel/SpatProbMultiple3/beh/subject-15.csv,legacy,9,192,25,Kafkaesque Koffka,3.2.5,yes,598477b2b83f69022949e7e9,47,red,circular,green,circular,0,\,1124,space,6245,6245,"(80, 80, 80)","(0, 123, 0)","(177, 0, 0)","(155, 155, 155)",2,legacy,experiment,"[6, 7, 0, 1, 2, 3, 4, 5]",\,2500,3000,0,8,252.7587515,1024,2,48000,-16,main,"[(0, -252), (178, -178), (252, 0), (178, 178), (0, 252), (-178, 178), (-252, 0), (-178, -178)]",[],39,odd,3,NA,101673,184842,184842,11938,10935,1589,19747,19747,1589,1589,18183,230246,1585,184842,229119,228162,228162,NA,953,study_X,0,6245,1,yes,1680
undefined,undefined,NA,NA,NA,6245,6245,black,no,legacy,legacy,legacy,0,green,"(0, 123, 0)",shape,present,highProb,circular,swap,same,same,swap,green,"(0, 123, 0)",lowProb,lowProb3,rectangular,uniform,1,undefined,0,0.072916667,1,1,118.5364583,1,14,22759,0,0,0,0,0,0,0,0,40,0,1,0.072916667,118.5364583,14,22759,39,39,39,11/27/2018 15:35,Default description,yes,<openexp._canvas.legacy.Legacy object at 0x12CD6430>,<openexp._canvas.legacy.Legacy object at 0x0B03F2D0>,<openexp._canvas.legacy.Legacy object at 0x12D27BD0>,<openexp._canvas.legacy.Legacy object at 0x0ADB8A70>,<openexp._canvas.legacy.Legacy object at 0x0B76D390>,<openexp._canvas.legacy.Legacy object at 0x12CC89B0>,<openexp._canvas.legacy.Legacy object at 0x12D00EB0>,<openexp._canvas.legacy.Legacy object at 0x0B03FBF0>,75,SpatProbMultiple3.osexp,C:/Userdata/Michel/SpatProbMultiple3,no,mono,no,18,no,white,no,yes,0.09,98,1050,legacy,45,14,14,1,C:/Userdata/Michel/SpatProbMultiple3/beh/subject-15.csv,legacy,9,192,25,Kafkaesque Koffka,3.2.5,yes,598477b2b83f69022949e7e9,47,green,circular,green,rectangular,0,\,2155,space,6245,6245,"(80, 80, 80)","(0, 123, 0)","(177, 0, 0)","(155, 155, 155)",2,legacy,experiment,"[6, 7, 0, 1, 2, 3, 4, 5]",\,2500,3000,0,8,252.7587515,1024,2,48000,-16,main,"[(0, -252), (178, -178), (252, 0), (178, 178), (0, 252), (-178, 178), (-252, 0), (-178, -178)]",[],39,odd,1,NA,101673,184842,184842,11938,10935,1589,19747,19747,1589,1589,18183,233806,1585,184842,231647,230692,230692,NA,953,study_X,0,6245,1,yes,1680
undefined,undefined,NA,NA,NA,6245,6245,black,no,legacy,legacy,legacy,0,green,"(0, 123, 0)",color,absent,lowProb5,rectangular,same,swap,same,same,green,"(0, 123, 0)",lowProb,lowProb3,rectangular,uniform,1,undefined,0,0.078125,1,1,123.1354167,1,15,23642,0,0,0,0,0,0,0,0,41,0,1,0.078125,123.1354167,15,23642,40,40,40,11/27/2018 15:35,Default description,yes,<openexp._canvas.legacy.Legacy object at 0x12CD6430>,<openexp._canvas.legacy.Legacy object at 0x0B03F2D0>,<openexp._canvas.legacy.Legacy object at 0x12D27BD0>,<openexp._canvas.legacy.Legacy object at 0x0ADB8A70>,<openexp._canvas.legacy.Legacy object at 0x0B76D390>,<openexp._canvas.legacy.Legacy object at 0x12CC89B0>,<openexp._canvas.legacy.Legacy object at 0x12D0B730>,<openexp._canvas.legacy.Legacy object at 0x0B03FBF0>,75,SpatProbMultiple3.osexp,C:/Userdata/Michel/SpatProbMultiple3,no,mono,no,18,no,white,no,yes,0.09,98,1050,legacy,45,15,15,1,C:/Userdata/Michel/SpatProbMultiple3/beh/subject-15.csv,legacy,9,192,25,Kafkaesque Koffka,3.2.5,yes,598477b2b83f69022949e7e9,47,green,rectangular,green,rectangular,0,\,883,space,6245,6245,"(80, 80, 80)","(0, 123, 0)","(177, 0, 0)","(155, 155, 155)",2,legacy,experiment,"[6, 7, 0, 1, 2, 3, 4, 5]",\,2500,3000,0,8,252.7587515,1024,2,48000,-16,main,"[(0, -252), (178, -178), (252, 0), (178, 178), (0, 252), (-178, 178), (-252, 0), (-178, -178)]",[],39,odd,1,NA,101673,184842,184842,11938,10935,1589,19747,19747,1589,1589,18183,236101,1585,184842,235215,234260,234260,NA,953,study_X,0,6245,1,yes,1680
undefined,undefined,NA,NA,NA,6245,6245,black,no,legacy,legacy,legacy,0,red,"(177, 0, 0)",color,present,highProb,circular,swap,swap,same,swap,green,"(0, 123, 0)",highProbShape,highProbShape,circular,uniform,1,undefined,0,0.083333333,1,1,128.2291667,1,16,24620,0,0,0,0,0,0,0,0,42,0,1,0.083333333,128.2291667,16,24620,41,41,41,11/27/2018 15:35,Default description,yes,<openexp._canvas.legacy.Legacy object at 0x12CD6430>,<openexp._canvas.legacy.Legacy object at 0x0B03F2D0>,<openexp._canvas.legacy.Legacy object at 0x12D27BD0>,<openexp._canvas.legacy.Legacy object at 0x0ADB8A70>,<openexp._canvas.legacy.Legacy object at 0x0B76D390>,<openexp._canvas.legacy.Legacy object at 0x12CC89B0>,<openexp._canvas.legacy.Legacy object at 0x12D34EF0>,<openexp._canvas.legacy.Legacy object at 0x0B03FBF0>,75,SpatProbMultiple3.osexp,C:/Userdata/Michel/SpatProbMultiple3,no,mono,no,18,no,white,no,yes,0.09,98,1050,legacy,315,16,16,1,C:/Userdata/Michel/SpatProbMultiple3/beh/subject-15.csv,legacy,9,192,25,Kafkaesque Koffka,3.2.5,yes,598477b2b83f69022949e7e9,47,red,circular,green,circular,0,/,978,space,6245,6245,"(80, 80, 80)","(0, 123, 0)","(177, 0, 0)","(155, 155, 155)",2,legacy,experiment,"[6, 7, 0, 1, 2, 3, 4, 5]",/,2500,3000,0,8,252.7587515,1024,2,48000,-16,main,"[(0, -252), (178, -178), (252, 0), (178, 178), (0, 252), (-178, 178), (-252, 0), (-178, -178)]",[],39,odd,2,NA,101673,184842,184842,11938,10935,1589,19747,19747,1589,1589,18183,238469,1585,184842,237489,236533,236533,NA,953,study_X,0,6245,1,yes,1680
undefined,undefined,NA,NA,NA,6245,6245,black,no,legacy,legacy,legacy,0,green,"(0, 123, 0)",color,absent,lowProb1,circular,swap,same,same,same,green,"(0, 123, 0)",highProbColor,highProbColor,circular,uniform,0,undefined,0,0.083333333,1,1,141.25,1,16,27120,0,0,0,0,0,0,0,0,43,0,1,0.083333333,141.25,16,27120,42,42,42,11/27/2018 15:35,Default description,yes,<openexp._canvas.legacy.Legacy object at 0x12CD6430>,<openexp._canvas.legacy.Legacy object at 0x0B03F2D0>,<openexp._canvas.legacy.Legacy object at 0x12D27BD0>,<openexp._canvas.legacy.Legacy object at 0x0ADB8A70>,<openexp._canvas.legacy.Legacy object at 0x0B76D390>,<openexp._canvas.legacy.Legacy object at 0x12CC89B0>,<openexp._canvas.legacy.Legacy object at 0x12D0BB10>,<openexp._canvas.legacy.Legacy object at 0x0B03FBF0>,75,SpatProbMultiple3.osexp,C:/Userdata/Michel/SpatProbMultiple3,no,mono,no,18,no,white,no,yes,0.09,98,1050,legacy,45,17,17,1,C:/Userdata/Michel/SpatProbMultiple3/beh/subject-15.csv,legacy,9,192,25,Kafkaesque Koffka,3.2.5,yes,598477b2b83f69022949e7e9,47,green,circular,green,circular,0,None,2500,space,6245,6245,"(80, 80, 80)","(0, 123, 0)","(177, 0, 0)","(155, 155, 155)",2,legacy,experiment,"[6, 7, 0, 1, 2, 3, 4, 5]",\,2500,3000,0,8,252.7587515,1024,2,48000,-16,main,"[(0, -252), (178, -178), (252, 0), (178, 178), (0, 252), (-178, 178), (-252, 0), (-178, -178)]",[],39,odd,6,NA,101673,184842,184842,11938,10935,1589,19747,19747,1589,1589,18183,242375,1585,184842,239872,238917,238917,NA,953,study_X,0,6245,1,yes,1680
undefined,undefined,NA,NA,NA,6245,6245,black,no,legacy,legacy,legacy,0,red,"(177, 0, 0)",shape,present,highProb,rectangular,swap,swap,swap,same,red,"(177, 0, 0)",lowProb,lowProb5,circular,uniform,1,undefined,0,0.088541667,1,1,150.4947917,1,17,28895,0,0,0,0,0,0,0,0,44,0,1,0.088541667,150.4947917,17,28895,43,43,43,11/27/2018 15:35,Default description,yes,<openexp._canvas.legacy.Legacy object at 0x12CD6430>,<openexp._canvas.legacy.Legacy object at 0x0B03F2D0>,<openexp._canvas.legacy.Legacy object at 0x12D27BD0>,<openexp._canvas.legacy.Legacy object at 0x0ADB8A70>,<openexp._canvas.legacy.Legacy object at 0x0B76D390>,<openexp._canvas.legacy.Legacy object at 0x12CC89B0>,<openexp._canvas.legacy.Legacy object at 0x12D0B890>,<openexp._canvas.legacy.Legacy object at 0x0B03FBF0>,75,SpatProbMultiple3.osexp,C:/Userdata/Michel/SpatProbMultiple3,no,mono,no,18,no,white,no,yes,0.09,98,1050,legacy,315,18,18,1,C:/Userdata/Michel/SpatProbMultiple3/beh/subject-15.csv,legacy,9,192,25,Kafkaesque Koffka,3.2.5,yes,598477b2b83f69022949e7e9,47,red,rectangular,red,circular,0,/,1775,space,6245,6245,"(80, 80, 80)","(0, 123, 0)","(177, 0, 0)","(155, 155, 155)",2,legacy,experiment,"[6, 7, 0, 1, 2, 3, 4, 5]",/,2500,3000,0,8,252.7587515,1024,2,48000,-16,main,"[(0, -252), (178, -178), (252, 0), (178, 178), (0, 252), (-178, 178), (-252, 0), (-178, -178)]",[],39,odd,4,NA,101673,184842,184842,11938,10935,1589,19747,19747,1589,1589,18183,245558,1585,184842,243780,242824,242824,NA,953,study_X,0,6245,1,yes,1680
undefined,undefined,NA,NA,NA,6245,6245,black,no,legacy,legacy,legacy,0,green,"(0, 123, 0)",color,present,highProb,rectangular,swap,same,same,swap,red,"(177, 0, 0)",highProbShape,highProbShape,rectangular,uniform,1,undefined,0,0.09375,1,1,157.2239583,1,18,30187,0,0,0,0,0,0,0,0,45,0,1,0.09375,157.2239583,18,30187,44,44,44,11/27/2018 15:35,Default description,yes,<openexp._canvas.legacy.Legacy object at 0x12CD6430>,<openexp._canvas.legacy.Legacy object at 0x0B03F2D0>,<openexp._canvas.legacy.Legacy object at 0x12D27BD0>,<openexp._canvas.legacy.Legacy object at 0x0ADB8A70>,<openexp._canvas.legacy.Legacy object at 0x0B76D390>,<openexp._canvas.legacy.Legacy object at 0x12CC89B0>,<openexp._canvas.legacy.Legacy object at 0x12D0A1D0>,<openexp._canvas.legacy.Legacy object at 0x0B03FBF0>,75,SpatProbMultiple3.osexp,C:/Userdata/Michel/SpatProbMultiple3,no,mono,no,18,no,white,no,yes,0.09,98,1050,legacy,315,19,19,1,C:/Userdata/Michel/SpatProbMultiple3/beh/subject-15.csv,legacy,9,192,25,Kafkaesque Koffka,3.2.5,yes,598477b2b83f69022949e7e9,47,green,rectangular,red,rectangular,0,/,1292,space,6245,6245,"(80, 80, 80)","(0, 123, 0)","(177, 0, 0)","(155, 155, 155)",2,legacy,experiment,"[6, 7, 0, 1, 2, 3, 4, 5]",/,2500,3000,0,8,252.7587515,1024,2,48000,-16,main,"[(0, -252), (178, -178), (252, 0), (178, 178), (0, 252), (-178, 178), (-252, 0), (-178, -178)]",[],39,odd,2,NA,101673,184842,184842,11938,10935,1589,19747,19747,1589,1589,18183,248245,1585,184842,246951,245996,245996,NA,953,study_X,0,6245,1,yes,1680
undefined,undefined,NA,NA,NA,6245,6245,black,no,legacy,legacy,legacy,0,green,"(0, 123, 0)",color,absent,lowProb4,rectangular,same,same,swap,same,green,"(0, 123, 0)",lowProb,lowProb2,rectangular,uniform,1,undefined,0,0.098958333,1,1,168.8802083,1,19,32425,0,0,0,0,0,0,0,0,46,0,1,0.098958333,168.8802083,19,32425,45,45,45,11/27/2018 15:35,Default description,yes,<openexp._canvas.legacy.Legacy object at 0x12CD6430>,<openexp._canvas.legacy.Legacy object at 0x0B03F2D0>,<openexp._canvas.legacy.Legacy object at 0x12D27BD0>,<openexp._canvas.legacy.Legacy object at 0x0ADB8A70>,<openexp._canvas.legacy.Legacy object at 0x0B76D390>,<openexp._canvas.legacy.Legacy object at 0x12CC89B0>,<openexp._canvas.legacy.Legacy object at 0x12CD6110>,<openexp._canvas.legacy.Legacy object at 0x0B03FBF0>,75,SpatProbMultiple3.osexp,C:/Userdata/Michel/SpatProbMultiple3,no,mono,no,18,no,white,no,yes,0.09,98,1050,legacy,45,20,20,1,C:/Userdata/Michel/SpatProbMultiple3/beh/subject-15.csv,legacy,9,192,25,Kafkaesque Koffka,3.2.5,yes,598477b2b83f69022949e7e9,47,green,rectangular,green,rectangular,0,\,2238,space,6245,6245,"(80, 80, 80)","(0, 123, 0)","(177, 0, 0)","(155, 155, 155)",2,legacy,experiment,"[6, 7, 0, 1, 2, 3, 4, 5]",\,2500,3000,0,8,252.7587515,1024,2,48000,-16,main,"[(0, -252), (178, -178), (252, 0), (178, 178), (0, 252), (-178, 178), (-252, 0), (-178, -178)]",[],39,odd,0,NA,101673,184842,184842,11938,10935,1589,19747,19747,1589,1589,18183,251885,1585,184842,249644,248689,248689,NA,953,study_X,0,6245,1,yes,1680
undefined,undefined,NA,NA,NA,6245,6245,black,no,legacy,legacy,legacy,0,green,"(0, 123, 0)",color,present,lowProb2,circular,same,swap,swap,swap,red,"(177, 0, 0)",lowProb,lowProb1,circular,uniform,0,undefined,0,0.098958333,1,1,181.9010417,1,19,34925,0,0,0,0,0,0,0,0,47,0,1,0.098958333,181.9010417,19,34925,46,46,46,11/27/2018 15:35,Default description,yes,<openexp._canvas.legacy.Legacy object at 0x12CD6430>,<openexp._canvas.legacy.Legacy object at 0x0B03F2D0>,<openexp._canvas.legacy.Legacy object at 0x12D27BD0>,<openexp._canvas.legacy.Legacy object at 0x0ADB8A70>,<openexp._canvas.legacy.Legacy object at 0x0B76D390>,<openexp._canvas.legacy.Legacy object at 0x12CC89B0>,<openexp._canvas.legacy.Legacy object at 0x12CC2390>,<openexp._canvas.legacy.Legacy object at 0x0B03FBF0>,75,SpatProbMultiple3.osexp,C:/Userdata/Michel/SpatProbMultiple3,no,mono,no,18,no,white,no,yes,0.09,98,1050,legacy,315,21,21,1,C:/Userdata/Michel/SpatProbMultiple3/beh/subject-15.csv,legacy,9,192,25,Kafkaesque Koffka,3.2.5,yes,598477b2b83f69022949e7e9,47,green,circular,red,circular,0,None,2500,space,6245,6245,"(80, 80, 80)","(0, 123, 0)","(177, 0, 0)","(155, 155, 155)",2,legacy,experiment,"[6, 7, 0, 1, 2, 3, 4, 5]",/,2500,3000,0,8,252.7587515,1024,2,48000,-16,main,"[(0, -252), (178, -178), (252, 0), (178, 178), (0, 252), (-178, 178), (-252, 0), (-178, -178)]",[],39,odd,7,NA,101673,184842,184842,11938,10935,1589,19747,19747,1589,1589,18183,255784,1585,184842,253281,252326,252326,NA,953,study_X,0,6245,1,yes,1680
undefined,undefined,NA,NA,NA,6245,6245,black,no,legacy,legacy,legacy,0,red,"(177, 0, 0)",shape,present,highProb,rectangular,swap,swap,same,same,red,"(177, 0, 0)",lowProb,lowProb3,circular,uniform,1,undefined,0,0.104166667,1,1,188.0520833,1,20,36106,0,0,0,0,0,0,0,0,48,0,1,0.104166667,188.0520833,20,36106,47,47,47,11/27/2018 15:35,Default description,yes,<openexp._canvas.legacy.Legacy object at 0x12CD6430>,<openexp._canvas.legacy.Legacy object at 0x0B03F2D0>,<openexp._canvas.legacy.Legacy object at 0x12D27BD0>,<openexp._canvas.legacy.Legacy object at 0x0ADB8A70>,<openexp._canvas.legacy.Legacy object at 0x0B76D390>,<openexp._canvas.legacy.Legacy object at 0x12CC89B0>,<openexp._canvas.legacy.Legacy object at 0x12D00270>,<openexp._canvas.legacy.Legacy object at 0x0B03FBF0>,75,SpatProbMultiple3.osexp,C:/Userdata/Michel/SpatProbMultiple3,no,mono,no,18,no,white,no,yes,0.09,98,1050,legacy,315,22,22,1,C:/Userdata/Michel/SpatProbMultiple3/beh/subject-15.csv,legacy,9,192,25,Kafkaesque Koffka,3.2.5,yes,598477b2b83f69022949e7e9,47,red,rectangular,red,circular,0,/,1181,space,6245,6245,"(80, 80, 80)","(0, 123, 0)","(177, 0, 0)","(155, 155, 155)",2,legacy,experiment,"[6, 7, 0, 1, 2, 3, 4, 5]",/,2500,3000,0,8,252.7587515,1024,2,48000,-16,main,"[(0, -252), (178, -178), (252, 0), (178, 178), (0, 252), (-178, 178), (-252, 0), (-178, -178)]",[],39,odd,1,NA,101673,184842,184842,11938,10935,1589,19747,19747,1589,1589,18183,258357,1585,184842,257172,256216,256216,NA,953,study_X,0,6245,1,yes,1680
undefined,undefined,NA,NA,NA,6245,6245,black,no,legacy,legacy,legacy,0,green,"(0, 123, 0)",color,present,lowProb6,rectangular,swap,same,same,swap,red,"(177, 0, 0)",highProbShape,highProbShape,rectangular,uniform,1,undefined,0,0.109375,1,1,197.1302083,1,21,37849,0,0,0,0,0,0,0,0,49,0,1,0.109375,197.1302083,21,37849,48,48,48,11/27/2018 15:35,Default description,yes,<openexp._canvas.legacy.Legacy object at 0x12CD6430>,<openexp._canvas.legacy.Legacy object at 0x0B03F2D0>,<openexp._canvas.legacy.Legacy object at 0x12D27BD0>,<openexp._canvas.legacy.Legacy object at 0x0ADB8A70>,<openexp._canvas.legacy.Legacy object at 0x0B76D390>,<openexp._canvas.legacy.Legacy object at 0x12CC89B0>,<openexp._canvas.legacy.Legacy object at 0x12D00250>,<openexp._canvas.legacy.Legacy object at 0x0B03FBF0>,75,SpatProbMultiple3.osexp,C:/Userdata/Michel/SpatProbMultiple3,no,mono,no,18,no,white,no,yes,0.09,98,1050,legacy,45,23,23,1,C:/Userdata/Michel/SpatProbMultiple3/beh/subject-15.csv,legacy,9,192,25,Kafkaesque Koffka,3.2.5,yes,598477b2b83f69022949e7e9,47,green,rectangular,red,rectangular,0,\,1743,space,6245,6245,"(80, 80, 80)","(0, 123, 0)","(177, 0, 0)","(155, 155, 155)",2,legacy,experiment,"[6, 7, 0, 1, 2, 3, 4, 5]",\,2500,3000,0,8,252.7587515,1024,2,48000,-16,main,"[(0, -252), (178, -178), (252, 0), (178, 178), (0, 252), (-178, 178), (-252, 0), (-178, -178)]",[],39,odd,2,NA,101673,184842,184842,11938,10935,1589,19747,19747,1589,1589,18183,261501,1585,184842,259754,258799,258799,NA,953,study_X,0,6245,1,yes,1680
undefined,undefined,NA,NA,NA,6245,6245,black,no,legacy,legacy,legacy,0,red,"(177, 0, 0)",shape,absent,lowProb3,circular,swap,swap,same,swap,red,"(177, 0, 0)",highProbShape,highProbShape,circular,uniform,1,undefined,0,0.114583333,1,1,202.65625,1,22,38910,0,0,0,0,0,0,0,0,50,0,1,0.114583333,202.65625,22,38910,49,49,49,11/27/2018 15:35,Default description,yes,<openexp._canvas.legacy.Legacy object at 0x12CD6430>,<openexp._canvas.legacy.Legacy object at 0x0B03F2D0>,<openexp._canvas.legacy.Legacy object at 0x12D27BD0>,<openexp._canvas.legacy.Legacy object at 0x0ADB8A70>,<openexp._canvas.legacy.Legacy object at 0x0B76D390>,<openexp._canvas.legacy.Legacy object at 0x12CC89B0>,<openexp._canvas.legacy.Legacy object at 0x12D0B350>,<openexp._canvas.legacy.Legacy object at 0x0B03FBF0>,75,SpatProbMultiple3.osexp,C:/Userdata/Michel/SpatProbMultiple3,no,mono,no,18,no,white,no,yes,0.09,98,1050,legacy,45,24,24,1,C:/Userdata/Michel/SpatProbMultiple3/beh/subject-15.csv,legacy,9,192,25,Kafkaesque Koffka,3.2.5,yes,598477b2b83f69022949e7e9,47,red,circular,red,circular,0,\,1061,space,6245,6245,"(80, 80, 80)","(0, 123, 0)","(177, 0, 0)","(155, 155, 155)",2,legacy,experiment,"[6, 7, 0, 1, 2, 3, 4, 5]",\,2500,3000,0,8,252.7587515,1024,2,48000,-16,main,"[(0, -252), (178, -178), (252, 0), (178, 178), (0, 252), (-178, 178), (-252, 0), (-178, -178)]",[],39,odd,2,NA,101673,184842,184842,11938,10935,1589,19747,19747,1589,1589,18183,263966,1585,184842,262901,261946,261946,NA,953,study_X,0,6245,1,yes,1680
undefined,undefined,NA,NA,NA,6245,6245,black,no,legacy,legacy,legacy,0,green,"(0, 123, 0)",shape,present,highProb,rectangular,swap,swap,swap,same,green,"(0, 123, 0)",lowProb,lowProb2,circular,uniform,0,undefined,0,0.114583333,1,1,209.9322917,1,22,40307,0,0,0,0,0,0,0,0,51,0,1,0.114583333,209.9322917,22,40307,50,50,50,11/27/2018 15:35,Default description,yes,<openexp._canvas.legacy.Legacy object at 0x12CD6430>,<openexp._canvas.legacy.Legacy object at 0x0B03F2D0>,<openexp._canvas.legacy.Legacy object at 0x12D27BD0>,<openexp._canvas.legacy.Legacy object at 0x0ADB8A70>,<openexp._canvas.legacy.Legacy object at 0x0B76D390>,<openexp._canvas.legacy.Legacy object at 0x12CC89B0>,<openexp._canvas.legacy.Legacy object at 0x0B03F690>,<openexp._canvas.legacy.Legacy object at 0x0B03FBF0>,75,SpatProbMultiple3.osexp,C:/Userdata/Michel/SpatProbMultiple3,no,mono,no,18,no,white,no,yes,0.09,98,1050,legacy,45,25,25,1,C:/Userdata/Michel/SpatProbMultiple3/beh/subject-15.csv,legacy,9,192,25,Kafkaesque Koffka,3.2.5,yes,598477b2b83f69022949e7e9,47,green,rectangular,green,circular,0,/,1397,space,6245,6245,"(80, 80, 80)","(0, 123, 0)","(177, 0, 0)","(155, 155, 155)",2,legacy,experiment,"[6, 7, 0, 1, 2, 3, 4, 5]",\,2500,3000,0,8,252.7587515,1024,2,48000,-16,main,"[(0, -252), (178, -178), (252, 0), (178, 178), (0, 252), (-178, 178), (-252, 0), (-178, -178)]",[],39,odd,0,NA,101673,184842,184842,11938,10935,1589,19747,19747,1589,1589,18183,266773,1585,184842,265373,264417,264417,NA,953,study_X,0,6245,1,yes,1680
undefined,undefined,NA,NA,NA,6245,6245,black,no,legacy,legacy,legacy,0,green,"(0, 123, 0)",color,present,highProb,circular,same,swap,swap,same,red,"(177, 0, 0)",lowProb,lowProb6,circular,uniform,1,undefined,0,0.119791667,1,1,221.0572917,1,23,42443,0,0,0,0,0,0,0,0,52,0,1,0.119791667,221.0572917,23,42443,51,51,51,11/27/2018 15:35,Default description,yes,<openexp._canvas.legacy.Legacy object at 0x12CD6430>,<openexp._canvas.legacy.Legacy object at 0x0B03F2D0>,<openexp._canvas.legacy.Legacy object at 0x12D27BD0>,<openexp._canvas.legacy.Legacy object at 0x0ADB8A70>,<openexp._canvas.legacy.Legacy object at 0x0B76D390>,<openexp._canvas.legacy.Legacy object at 0x12CC89B0>,<openexp._canvas.legacy.Legacy object at 0x12CD23B0>,<openexp._canvas.legacy.Legacy object at 0x0B03FBF0>,75,SpatProbMultiple3.osexp,C:/Userdata/Michel/SpatProbMultiple3,no,mono,no,18,no,white,no,yes,0.09,98,1050,legacy,315,26,26,1,C:/Userdata/Michel/SpatProbMultiple3/beh/subject-15.csv,legacy,9,192,25,Kafkaesque Koffka,3.2.5,yes,598477b2b83f69022949e7e9,47,green,circular,red,circular,0,/,2136,space,6245,6245,"(80, 80, 80)","(0, 123, 0)","(177, 0, 0)","(155, 155, 155)",2,legacy,experiment,"[6, 7, 0, 1, 2, 3, 4, 5]",/,2500,3000,0,8,252.7587515,1024,2,48000,-16,main,"[(0, -252), (178, -178), (252, 0), (178, 178), (0, 252), (-178, 178), (-252, 0), (-178, -178)]",[],39,odd,5,NA,101673,184842,184842,11938,10935,1589,19747,19747,1589,1589,18183,270333,1585,184842,268194,267238,267239,NA,953,study_X,0,6245,1,yes,1680
undefined,undefined,NA,NA,NA,6245,6245,black,no,legacy,legacy,legacy,0,red,"(177, 0, 0)",shape,present,highProb,circular,swap,same,same,swap,red,"(177, 0, 0)",lowProb,lowProb3,rectangular,uniform,1,undefined,0,0.125,1,1,228.0833333,1,24,43792,0,0,0,0,0,0,0,0,53,0,1,0.125,228.0833333,24,43792,52,52,52,11/27/2018 15:35,Default description,yes,<openexp._canvas.legacy.Legacy object at 0x12CD6430>,<openexp._canvas.legacy.Legacy object at 0x0B03F2D0>,<openexp._canvas.legacy.Legacy object at 0x12D27BD0>,<openexp._canvas.legacy.Legacy object at 0x0ADB8A70>,<openexp._canvas.legacy.Legacy object at 0x0B76D390>,<openexp._canvas.legacy.Legacy object at 0x12CC89B0>,<openexp._canvas.legacy.Legacy object at 0x12D34C10>,<openexp._canvas.legacy.Legacy object at 0x0B03FBF0>,75,SpatProbMultiple3.osexp,C:/Userdata/Michel/SpatProbMultiple3,no,mono,no,18,no,white,no,yes,0.09,98,1050,legacy,45,27,27,1,C:/Userdata/Michel/SpatProbMultiple3/beh/subject-15.csv,legacy,9,192,25,Kafkaesque Koffka,3.2.5,yes,598477b2b83f69022949e7e9,47,red,circular,red,rectangular,0,\,1349,space,6245,6245,"(80, 80, 80)","(0, 123, 0)","(177, 0, 0)","(155, 155, 155)",2,legacy,experiment,"[6, 7, 0, 1, 2, 3, 4, 5]",\,2500,3000,0,8,252.7587515,1024,2,48000,-16,main,"[(0, -252), (178, -178), (252, 0), (178, 178), (0, 252), (-178, 178), (-252, 0), (-178, -178)]",[],39,odd,1,NA,101673,184842,184842,11938,10935,1589,19747,19747,1589,1589,18183,273077,1585,184842,271724,270768,270769,NA,953,study_X,0,6245,1,yes,1680
undefined,undefined,NA,NA,NA,6245,6245,black,no,legacy,legacy,legacy,0,red,"(177, 0, 0)",color,present,highProb,rectangular,same,swap,swap,same,green,"(0, 123, 0)",lowProb,lowProb5,rectangular,uniform,1,undefined,0,0.130208333,1,1,235.3229167,1,25,45182,0,0,0,0,0,0,0,0,54,0,1,0.130208333,235.3229167,25,45182,53,53,53,11/27/2018 15:35,Default description,yes,<openexp._canvas.legacy.Legacy object at 0x12CD6430>,<openexp._canvas.legacy.Legacy object at 0x0B03F2D0>,<openexp._canvas.legacy.Legacy object at 0x12D27BD0>,<openexp._canvas.legacy.Legacy object at 0x0ADB8A70>,<openexp._canvas.legacy.Legacy object at 0x0B76D390>,<openexp._canvas.legacy.Legacy object at 0x12CC89B0>,<openexp._canvas.legacy.Legacy object at 0x0B03F750>,<openexp._canvas.legacy.Legacy object at 0x0B03FBF0>,75,SpatProbMultiple3.osexp,C:/Userdata/Michel/SpatProbMultiple3,no,mono,no,18,no,white,no,yes,0.09,98,1050,legacy,315,28,28,1,C:/Userdata/Michel/SpatProbMultiple3/beh/subject-15.csv,legacy,9,192,25,Kafkaesque Koffka,3.2.5,yes,598477b2b83f69022949e7e9,47,red,rectangular,green,rectangular,0,/,1390,space,6245,6245,"(80, 80, 80)","(0, 123, 0)","(177, 0, 0)","(155, 155, 155)",2,legacy,experiment,"[6, 7, 0, 1, 2, 3, 4, 5]",/,2500,3000,0,8,252.7587515,1024,2,48000,-16,main,"[(0, -252), (178, -178), (252, 0), (178, 178), (0, 252), (-178, 178), (-252, 0), (-178, -178)]",[],39,odd,4,NA,101673,184842,184842,11938,10935,1589,19747,19747,1589,1589,18183,275885,1585,184842,274492,273536,273536,NA,953,study_X,0,6245,1,yes,1680
undefined,undefined,NA,NA,NA,6245,6245,black,no,legacy,legacy,legacy,0,green,"(0, 123, 0)",color,present,highProb,rectangular,swap,same,swap,same,red,"(177, 0, 0)",highProbShape,highProbShape,rectangular,uniform,1,undefined,0,0.135416667,1,1,242.2708333,1,26,46516,0,0,0,0,0,0,0,0,55,0,1,0.135416667,242.2708333,26,46516,54,54,54,11/27/2018 15:35,Default description,yes,<openexp._canvas.legacy.Legacy object at 0x12CD6430>,<openexp._canvas.legacy.Legacy object at 0x0B03F2D0>,<openexp._canvas.legacy.Legacy object at 0x12D27BD0>,<openexp._canvas.legacy.Legacy object at 0x0ADB8A70>,<openexp._canvas.legacy.Legacy object at 0x0B76D390>,<openexp._canvas.legacy.Legacy object at 0x12CC89B0>,<openexp._canvas.legacy.Legacy object at 0x12D27150>,<openexp._canvas.legacy.Legacy object at 0x0B03FBF0>,75,SpatProbMultiple3.osexp,C:/Userdata/Michel/SpatProbMultiple3,no,mono,no,18,no,white,no,yes,0.09,98,1050,legacy,45,29,29,1,C:/Userdata/Michel/SpatProbMultiple3/beh/subject-15.csv,legacy,9,192,25,Kafkaesque Koffka,3.2.5,yes,598477b2b83f69022949e7e9,47,green,rectangular,red,rectangular,0,\,1334,space,6245,6245,"(80, 80, 80)","(0, 123, 0)","(177, 0, 0)","(155, 155, 155)",2,legacy,experiment,"[6, 7, 0, 1, 2, 3, 4, 5]",\,2500,3000,0,8,252.7587515,1024,2,48000,-16,main,"[(0, -252), (178, -178), (252, 0), (178, 178), (0, 252), (-178, 178), (-252, 0), (-178, -178)]",[],39,odd,2,NA,101673,184842,184842,11938,10935,1589,19747,19747,1589,1589,18183,278605,1585,184842,277267,276312,276312,NA,953,study_X,0,6245,1,yes,1680
undefined,undefined,NA,NA,NA,6245,6245,black,no,legacy,legacy,legacy,0,red,"(177, 0, 0)",color,present,lowProb2,rectangular,swap,same,swap,same,green,"(0, 123, 0)",highProbColor,highProbColor,rectangular,uniform,0,undefined,0,0.135416667,1,1,255.2916667,1,26,49016,0,0,0,0,0,0,0,0,56,0,1,0.135416667,255.2916667,26,49016,55,55,55,11/27/2018 15:35,Default description,yes,<openexp._canvas.legacy.Legacy object at 0x12CD6430>,<openexp._canvas.legacy.Legacy object at 0x0B03F2D0>,<openexp._canvas.legacy.Legacy object at 0x12D27BD0>,<openexp._canvas.legacy.Legacy object at 0x0ADB8A70>,<openexp._canvas.legacy.Legacy object at 0x0B76D390>,<openexp._canvas.legacy.Legacy object at 0x12CC89B0>,<openexp._canvas.legacy.Legacy object at 0x12D0F0F0>,<openexp._canvas.legacy.Legacy object at 0x0B03FBF0>,75,SpatProbMultiple3.osexp,C:/Userdata/Michel/SpatProbMultiple3,no,mono,no,18,no,white,no,yes,0.09,98,1050,legacy,315,30,30,1,C:/Userdata/Michel/SpatProbMultiple3/beh/subject-15.csv,legacy,9,192,25,Kafkaesque Koffka,3.2.5,yes,598477b2b83f69022949e7e9,47,red,rectangular,green,rectangular,0,None,2500,space,6245,6245,"(80, 80, 80)","(0, 123, 0)","(177, 0, 0)","(155, 155, 155)",2,legacy,experiment,"[6, 7, 0, 1, 2, 3, 4, 5]",/,2500,3000,0,8,252.7587515,1024,2,48000,-16,main,"[(0, -252), (178, -178), (252, 0), (178, 178), (0, 252), (-178, 178), (-252, 0), (-178, -178)]",[],39,odd,6,NA,101673,184842,184842,11938,10935,1589,19747,19747,1589,1589,18183,282506,1585,184842,280004,279048,279048,NA,953,study_X,0,6245,1,yes,1680
undefined,undefined,NA,NA,NA,6245,6245,black,no,legacy,legacy,legacy,0,red,"(177, 0, 0)",color,present,highProb,rectangular,same,same,same,same,green,"(0, 123, 0)",lowProb,lowProb5,rectangular,uniform,1,undefined,0,0.140625,1,1,261.3854167,1,27,50186,0,0,0,0,0,0,0,0,57,0,1,0.140625,261.3854167,27,50186,56,56,56,11/27/2018 15:35,Default description,yes,<openexp._canvas.legacy.Legacy object at 0x12CD6430>,<openexp._canvas.legacy.Legacy object at 0x0B03F2D0>,<openexp._canvas.legacy.Legacy object at 0x12D27BD0>,<openexp._canvas.legacy.Legacy object at 0x0ADB8A70>,<openexp._canvas.legacy.Legacy object at 0x0B76D390>,<openexp._canvas.legacy.Legacy object at 0x12CC89B0>,<openexp._canvas.legacy.Legacy object at 0x12CD6C10>,<openexp._canvas.legacy.Legacy object at 0x0B03FBF0>,75,SpatProbMultiple3.osexp,C:/Userdata/Michel/SpatProbMultiple3,no,mono,no,18,no,white,no,yes,0.09,98,1050,legacy,45,31,31,1,C:/Userdata/Michel/SpatProbMultiple3/beh/subject-15.csv,legacy,9,192,25,Kafkaesque Koffka,3.2.5,yes,598477b2b83f69022949e7e9,47,red,rectangular,green,rectangular,0,\,1170,space,6245,6245,"(80, 80, 80)","(0, 123, 0)","(177, 0, 0)","(155, 155, 155)",2,legacy,experiment,"[6, 7, 0, 1, 2, 3, 4, 5]",\,2500,3000,0,8,252.7587515,1024,2,48000,-16,main,"[(0, -252), (178, -178), (252, 0), (178, 178), (0, 252), (-178, 178), (-252, 0), (-178, -178)]",[],39,odd,4,NA,101673,184842,184842,11938,10935,1589,19747,19747,1589,1589,18183,285077,1585,184842,283904,282948,282948,NA,953,study_X,0,6245,1,yes,1680
undefined,undefined,NA,NA,NA,6245,6245,black,no,legacy,legacy,legacy,0,green,"(0, 123, 0)",color,present,highProb,circular,swap,swap,swap,swap,red,"(177, 0, 0)",lowProb,lowProb5,circular,uniform,1,undefined,0,0.145833333,1,1,272.7447917,1,28,52367,0,0,0,0,0,0,0,0,58,0,1,0.145833333,272.7447917,28,52367,57,57,57,11/27/2018 15:35,Default description,yes,<openexp._canvas.legacy.Legacy object at 0x12CD6430>,<openexp._canvas.legacy.Legacy object at 0x0B03F2D0>,<openexp._canvas.legacy.Legacy object at 0x12D27BD0>,<openexp._canvas.legacy.Legacy object at 0x0ADB8A70>,<openexp._canvas.legacy.Legacy object at 0x0B76D390>,<openexp._canvas.legacy.Legacy object at 0x12CC89B0>,<openexp._canvas.legacy.Legacy object at 0x12CC2330>,<openexp._canvas.legacy.Legacy object at 0x0B03FBF0>,75,SpatProbMultiple3.osexp,C:/Userdata/Michel/SpatProbMultiple3,no,mono,no,18,no,white,no,yes,0.09,98,1050,legacy,315,32,32,1,C:/Userdata/Michel/SpatProbMultiple3/beh/subject-15.csv,legacy,9,192,25,Kafkaesque Koffka,3.2.5,yes,598477b2b83f69022949e7e9,47,green,circular,red,circular,0,/,2181,space,6245,6245,"(80, 80, 80)","(0, 123, 0)","(177, 0, 0)","(155, 155, 155)",2,legacy,experiment,"[6, 7, 0, 1, 2, 3, 4, 5]",/,2500,3000,0,8,252.7587515,1024,2,48000,-16,main,"[(0, -252), (178, -178), (252, 0), (178, 178), (0, 252), (-178, 178), (-252, 0), (-178, -178)]",[],39,odd,4,NA,101673,184842,184842,11938,10935,1589,19747,19747,1589,1589,18183,288661,1585,184842,286476,285521,285521,NA,953,study_X,0,6245,1,yes,1680
undefined,undefined,NA,NA,NA,6245,6245,black,no,legacy,legacy,legacy,0,red,"(177, 0, 0)",color,present,highProb,circular,swap,same,swap,same,green,"(0, 123, 0)",lowProb,lowProb2,circular,uniform,1,undefined,0,0.151041667,1,1,282.9427083,1,29,54325,0,0,0,0,0,0,0,0,59,0,1,0.151041667,282.9427083,29,54325,58,58,58,11/27/2018 15:35,Default description,yes,<openexp._canvas.legacy.Legacy object at 0x12CD6430>,<openexp._canvas.legacy.Legacy object at 0x0B03F2D0>,<openexp._canvas.legacy.Legacy object at 0x12D27BD0>,<openexp._canvas.legacy.Legacy object at 0x0ADB8A70>,<openexp._canvas.legacy.Legacy object at 0x0B76D390>,<openexp._canvas.legacy.Legacy object at 0x12CC89B0>,<openexp._canvas.legacy.Legacy object at 0x12D0B350>,<openexp._canvas.legacy.Legacy object at 0x0B03FBF0>,75,SpatProbMultiple3.osexp,C:/Userdata/Michel/SpatProbMultiple3,no,mono,no,18,no,white,no,yes,0.09,98,1050,legacy,45,33,33,1,C:/Userdata/Michel/SpatProbMultiple3/beh/subject-15.csv,legacy,9,192,25,Kafkaesque Koffka,3.2.5,yes,598477b2b83f69022949e7e9,47,red,circular,green,circular,0,\,1958,space,6245,6245,"(80, 80, 80)","(0, 123, 0)","(177, 0, 0)","(155, 155, 155)",2,legacy,experiment,"[6, 7, 0, 1, 2, 3, 4, 5]",\,2500,3000,0,8,252.7587515,1024,2,48000,-16,main,"[(0, -252), (178, -178), (252, 0), (178, 178), (0, 252), (-178, 178), (-252, 0), (-178, -178)]",[],39,odd,0,NA,101673,184842,184842,11938,10935,1589,19747,19747,1589,1589,18183,292021,1585,184842,290060,289105,289105,NA,953,study_X,0,6245,1,yes,1680
undefined,undefined,NA,NA,NA,6245,6245,black,no,legacy,legacy,legacy,0,green,"(0, 123, 0)",color,present,lowProb3,rectangular,swap,swap,swap,swap,red,"(177, 0, 0)",lowProb,lowProb5,rectangular,uniform,1,undefined,0,0.15625,1,1,290.9375,1,30,55860,0,0,0,0,0,0,0,0,60,0,1,0.15625,290.9375,30,55860,59,59,59,11/27/2018 15:35,Default description,yes,<openexp._canvas.legacy.Legacy object at 0x12CD6430>,<openexp._canvas.legacy.Legacy object at 0x0B03F2D0>,<openexp._canvas.legacy.Legacy object at 0x12D27BD0>,<openexp._canvas.legacy.Legacy object at 0x0ADB8A70>,<openexp._canvas.legacy.Legacy object at 0x0B76D390>,<openexp._canvas.legacy.Legacy object at 0x12CC89B0>,<openexp._canvas.legacy.Legacy object at 0x12CD6790>,<openexp._canvas.legacy.Legacy object at 0x0B03FBF0>,75,SpatProbMultiple3.osexp,C:/Userdata/Michel/SpatProbMultiple3,no,mono,no,18,no,white,no,yes,0.09,98,1050,legacy,45,34,34,1,C:/Userdata/Michel/SpatProbMultiple3/beh/subject-15.csv,legacy,9,192,25,Kafkaesque Koffka,3.2.5,yes,598477b2b83f69022949e7e9,47,green,rectangular,red,rectangular,0,\,1535,space,6245,6245,"(80, 80, 80)","(0, 123, 0)","(177, 0, 0)","(155, 155, 155)",2,legacy,experiment,"[6, 7, 0, 1, 2, 3, 4, 5]",\,2500,3000,0,8,252.7587515,1024,2,48000,-16,main,"[(0, -252), (178, -178), (252, 0), (178, 178), (0, 252), (-178, 178), (-252, 0), (-178, -178)]",[],39,odd,4,NA,101673,184842,184842,11938,10935,1589,19747,19747,1589,1589,18183,294996,1585,184842,293458,292503,292503,NA,953,study_X,0,6245,1,yes,1680
undefined,undefined,NA,NA,NA,6245,6245,black,no,legacy,legacy,legacy,0,red,"(177, 0, 0)",color,present,lowProb4,circular,swap,swap,swap,swap,green,"(0, 123, 0)",lowProb,lowProb1,circular,uniform,1,undefined,0,0.161458333,1,1,300.8125,1,31,57756,0,0,0,0,0,0,0,0,61,0,1,0.161458333,300.8125,31,57756,60,60,60,11/27/2018 15:35,Default description,yes,<openexp._canvas.legacy.Legacy object at 0x12CD6430>,<openexp._canvas.legacy.Legacy object at 0x0B03F2D0>,<openexp._canvas.legacy.Legacy object at 0x12D27BD0>,<openexp._canvas.legacy.Legacy object at 0x0ADB8A70>,<openexp._canvas.legacy.Legacy object at 0x0B76D390>,<openexp._canvas.legacy.Legacy object at 0x12CC89B0>,<openexp._canvas.legacy.Legacy object at 0x12D0B050>,<openexp._canvas.legacy.Legacy object at 0x0B03FBF0>,75,SpatProbMultiple3.osexp,C:/Userdata/Michel/SpatProbMultiple3,no,mono,no,18,no,white,no,yes,0.09,98,1050,legacy,315,35,35,1,C:/Userdata/Michel/SpatProbMultiple3/beh/subject-15.csv,legacy,9,192,25,Kafkaesque Koffka,3.2.5,yes,598477b2b83f69022949e7e9,47,red,circular,green,circular,0,/,1896,space,6245,6245,"(80, 80, 80)","(0, 123, 0)","(177, 0, 0)","(155, 155, 155)",2,legacy,experiment,"[6, 7, 0, 1, 2, 3, 4, 5]",/,2500,3000,0,8,252.7587515,1024,2,48000,-16,main,"[(0, -252), (178, -178), (252, 0), (178, 178), (0, 252), (-178, 178), (-252, 0), (-178, -178)]",[],39,odd,7,NA,101673,184842,184842,11938,10935,1589,19747,19747,1589,1589,18183,298293,1585,184842,296394,295439,295439,NA,953,study_X,0,6245,1,yes,1680
undefined,undefined,NA,NA,NA,6245,6245,black,no,legacy,legacy,legacy,0,green,"(0, 123, 0)",shape,present,highProb,rectangular,swap,swap,same,same,green,"(0, 123, 0)",lowProb,lowProb4,circular,uniform,1,undefined,0,0.166666667,1,1,306.6822917,1,32,58883,0,0,0,0,0,0,0,0,62,0,1,0.166666667,306.6822917,32,58883,61,61,61,11/27/2018 15:35,Default description,yes,<openexp._canvas.legacy.Legacy object at 0x12CD6430>,<openexp._canvas.legacy.Legacy object at 0x0B03F2D0>,<openexp._canvas.legacy.Legacy object at 0x12D27BD0>,<openexp._canvas.legacy.Legacy object at 0x0ADB8A70>,<openexp._canvas.legacy.Legacy object at 0x0B76D390>,<openexp._canvas.legacy.Legacy object at 0x12CC89B0>,<openexp._canvas.legacy.Legacy object at 0x12D0A470>,<openexp._canvas.legacy.Legacy object at 0x0B03FBF0>,75,SpatProbMultiple3.osexp,C:/Userdata/Michel/SpatProbMultiple3,no,mono,no,18,no,white,no,yes,0.09,98,1050,legacy,315,36,36,1,C:/Userdata/Michel/SpatProbMultiple3/beh/subject-15.csv,legacy,9,192,25,Kafkaesque Koffka,3.2.5,yes,598477b2b83f69022949e7e9,47,green,rectangular,green,circular,0,/,1127,space,6245,6245,"(80, 80, 80)","(0, 123, 0)","(177, 0, 0)","(155, 155, 155)",2,legacy,experiment,"[6, 7, 0, 1, 2, 3, 4, 5]",/,2500,3000,0,8,252.7587515,1024,2,48000,-16,main,"[(0, -252), (178, -178), (252, 0), (178, 178), (0, 252), (-178, 178), (-252, 0), (-178, -178)]",[],39,odd,3,NA,101673,184842,184842,11938,10935,1589,19747,19747,1589,1589,18183,300821,1585,184842,299691,298736,298736,NA,953,study_X,0,6245,1,yes,1680
undefined,undefined,NA,NA,NA,6245,6245,black,no,legacy,legacy,legacy,0,green,"(0, 123, 0)",color,present,highProbOther,rectangular,same,same,swap,swap,red,"(177, 0, 0)",highProbColor,highProbColor,rectangular,uniform,1,undefined,0,0.171875,1,1,318.6302083,1,33,61177,0,0,0,0,0,0,0,0,63,0,1,0.171875,318.6302083,33,61177,62,62,62,11/27/2018 15:35,Default description,yes,<openexp._canvas.legacy.Legacy object at 0x12CD6430>,<openexp._canvas.legacy.Legacy object at 0x0B03F2D0>,<openexp._canvas.legacy.Legacy object at 0x12D27BD0>,<openexp._canvas.legacy.Legacy object at 0x0ADB8A70>,<openexp._canvas.legacy.Legacy object at 0x0B76D390>,<openexp._canvas.legacy.Legacy object at 0x12CC89B0>,<openexp._canvas.legacy.Legacy object at 0x12D34330>,<openexp._canvas.legacy.Legacy object at 0x0B03FBF0>,75,SpatProbMultiple3.osexp,C:/Userdata/Michel/SpatProbMultiple3,no,mono,no,18,no,white,no,yes,0.09,98,1050,legacy,315,37,37,1,C:/Userdata/Michel/SpatProbMultiple3/beh/subject-15.csv,legacy,9,192,25,Kafkaesque Koffka,3.2.5,yes,598477b2b83f69022949e7e9,47,green,rectangular,red,rectangular,0,/,2294,space,6245,6245,"(80, 80, 80)","(0, 123, 0)","(177, 0, 0)","(155, 155, 155)",2,legacy,experiment,"[6, 7, 0, 1, 2, 3, 4, 5]",/,2500,3000,0,8,252.7587515,1024,2,48000,-16,main,"[(0, -252), (178, -178), (252, 0), (178, 178), (0, 252), (-178, 178), (-252, 0), (-178, -178)]",[],39,odd,6,NA,101673,184842,184842,11938,10935,1589,19747,19747,1589,1589,18183,304517,1585,184842,302219,301263,301263,NA,953,study_X,0,6245,1,yes,1680
undefined,undefined,NA,NA,NA,6245,6245,black,no,legacy,legacy,legacy,0,red,"(177, 0, 0)",color,present,highProb,rectangular,swap,same,swap,same,green,"(0, 123, 0)",lowProb,lowProb4,rectangular,uniform,1,undefined,0,0.177083333,1,1,325.640625,1,34,62523,0,0,0,0,0,0,0,0,64,0,1,0.177083333,325.640625,34,62523,63,63,63,11/27/2018 15:35,Default description,yes,<openexp._canvas.legacy.Legacy object at 0x12CD6430>,<openexp._canvas.legacy.Legacy object at 0x0B03F2D0>,<openexp._canvas.legacy.Legacy object at 0x12D27BD0>,<openexp._canvas.legacy.Legacy object at 0x0ADB8A70>,<openexp._canvas.legacy.Legacy object at 0x0B76D390>,<openexp._canvas.legacy.Legacy object at 0x12CC89B0>,<openexp._canvas.legacy.Legacy object at 0x12D009B0>,<openexp._canvas.legacy.Legacy object at 0x0B03FBF0>,75,SpatProbMultiple3.osexp,C:/Userdata/Michel/SpatProbMultiple3,no,mono,no,18,no,white,no,yes,0.09,98,1050,legacy,45,38,38,1,C:/Userdata/Michel/SpatProbMultiple3/beh/subject-15.csv,legacy,9,192,25,Kafkaesque Koffka,3.2.5,yes,598477b2b83f69022949e7e9,47,red,rectangular,green,rectangular,0,\,1346,space,6245,6245,"(80, 80, 80)","(0, 123, 0)","(177, 0, 0)","(155, 155, 155)",2,legacy,experiment,"[6, 7, 0, 1, 2, 3, 4, 5]",\,2500,3000,0,8,252.7587515,1024,2,48000,-16,main,"[(0, -252), (178, -178), (252, 0), (178, 178), (0, 252), (-178, 178), (-252, 0), (-178, -178)]",[],39,odd,3,NA,101673,184842,184842,11938,10935,1589,19747,19747,1589,1589,18183,307261,1585,184842,305911,304955,304955,NA,953,study_X,0,6245,1,yes,1680
undefined,undefined,NA,NA,NA,6245,6245,black,no,legacy,legacy,legacy,0,red,"(177, 0, 0)",shape,present,highProb,rectangular,same,same,swap,swap,red,"(177, 0, 0)",highProbColor,highProbColor,circular,uniform,1,undefined,0,0.182291667,1,1,332.7604167,1,35,63890,0,0,0,0,0,0,0,0,65,0,1,0.182291667,332.7604167,35,63890,64,64,64,11/27/2018 15:35,Default description,yes,<openexp._canvas.legacy.Legacy object at 0x12CD6430>,<openexp._canvas.legacy.Legacy object at 0x0B03F2D0>,<openexp._canvas.legacy.Legacy object at 0x12D27BD0>,<openexp._canvas.legacy.Legacy object at 0x0ADB8A70>,<openexp._canvas.legacy.Legacy object at 0x0B76D390>,<openexp._canvas.legacy.Legacy object at 0x12CC89B0>,<openexp._canvas.legacy.Legacy object at 0x0B03F870>,<openexp._canvas.legacy.Legacy object at 0x0B03FBF0>,75,SpatProbMultiple3.osexp,C:/Userdata/Michel/SpatProbMultiple3,no,mono,no,18,no,white,no,yes,0.09,98,1050,legacy,45,39,39,1,C:/Userdata/Michel/SpatProbMultiple3/beh/subject-15.csv,legacy,9,192,25,Kafkaesque Koffka,3.2.5,yes,598477b2b83f69022949e7e9,47,red,rectangular,red,circular,0,\,1367,space,6245,6245,"(80, 80, 80)","(0, 123, 0)","(177, 0, 0)","(155, 155, 155)",2,legacy,experiment,"[6, 7, 0, 1, 2, 3, 4, 5]",\,2500,3000,0,8,252.7587515,1024,2,48000,-16,main,"[(0, -252), (178, -178), (252, 0), (178, 178), (0, 252), (-178, 178), (-252, 0), (-178, -178)]",[],39,odd,6,NA,101673,184842,184842,11938,10935,1589,19747,19747,1589,1589,18183,310028,1585,184842,308659,307703,307703,NA,953,study_X,0,6245,1,yes,1680
undefined,undefined,NA,NA,NA,6245,6245,black,no,legacy,legacy,legacy,0,green,"(0, 123, 0)",shape,present,highProb,rectangular,swap,same,swap,same,green,"(0, 123, 0)",lowProb,lowProb4,circular,uniform,1,undefined,0,0.1875,1,1,337.5416667,1,36,64808,0,0,0,0,0,0,0,0,66,0,1,0.1875,337.5416667,36,64808,65,65,65,11/27/2018 15:35,Default description,yes,<openexp._canvas.legacy.Legacy object at 0x12CD6430>,<openexp._canvas.legacy.Legacy object at 0x0B03F2D0>,<openexp._canvas.legacy.Legacy object at 0x12D27BD0>,<openexp._canvas.legacy.Legacy object at 0x0ADB8A70>,<openexp._canvas.legacy.Legacy object at 0x0B76D390>,<openexp._canvas.legacy.Legacy object at 0x12CC89B0>,<openexp._canvas.legacy.Legacy object at 0x12D00E50>,<openexp._canvas.legacy.Legacy object at 0x0B03FBF0>,75,SpatProbMultiple3.osexp,C:/Userdata/Michel/SpatProbMultiple3,no,mono,no,18,no,white,no,yes,0.09,98,1050,legacy,315,40,40,1,C:/Userdata/Michel/SpatProbMultiple3/beh/subject-15.csv,legacy,9,192,25,Kafkaesque Koffka,3.2.5,yes,598477b2b83f69022949e7e9,47,green,rectangular,green,circular,0,/,918,space,6245,6245,"(80, 80, 80)","(0, 123, 0)","(177, 0, 0)","(155, 155, 155)",2,legacy,experiment,"[6, 7, 0, 1, 2, 3, 4, 5]",/,2500,3000,0,8,252.7587515,1024,2,48000,-16,main,"[(0, -252), (178, -178), (252, 0), (178, 178), (0, 252), (-178, 178), (-252, 0), (-178, -178)]",[],39,odd,3,NA,101673,184842,184842,11938,10935,1589,19747,19747,1589,1589,18183,312348,1585,184842,311427,310472,310472,NA,953,study_X,0,6245,1,yes,1680
undefined,undefined,NA,NA,NA,6245,6245,black,no,legacy,legacy,legacy,0,red,"(177, 0, 0)",color,present,highProb,rectangular,swap,same,same,swap,green,"(0, 123, 0)",lowProb,lowProb4,rectangular,uniform,1,undefined,0,0.192708333,1,1,345.59375,1,37,66354,0,0,0,0,0,0,0,0,67,0,1,0.192708333,345.59375,37,66354,66,66,66,11/27/2018 15:35,Default description,yes,<openexp._canvas.legacy.Legacy object at 0x12CD6430>,<openexp._canvas.legacy.Legacy object at 0x0B03F2D0>,<openexp._canvas.legacy.Legacy object at 0x12D27BD0>,<openexp._canvas.legacy.Legacy object at 0x0ADB8A70>,<openexp._canvas.legacy.Legacy object at 0x0B76D390>,<openexp._canvas.legacy.Legacy object at 0x12CC89B0>,<openexp._canvas.legacy.Legacy object at 0x12D27050>,<openexp._canvas.legacy.Legacy object at 0x0B03FBF0>,75,SpatProbMultiple3.osexp,C:/Userdata/Michel/SpatProbMultiple3,no,mono,no,18,no,white,no,yes,0.09,98,1050,legacy,45,41,41,1,C:/Userdata/Michel/SpatProbMultiple3/beh/subject-15.csv,legacy,9,192,25,Kafkaesque Koffka,3.2.5,yes,598477b2b83f69022949e7e9,47,red,rectangular,green,rectangular,0,\,1546,space,6245,6245,"(80, 80, 80)","(0, 123, 0)","(177, 0, 0)","(155, 155, 155)",2,legacy,experiment,"[6, 7, 0, 1, 2, 3, 4, 5]",\,2500,3000,0,8,252.7587515,1024,2,48000,-16,main,"[(0, -252), (178, -178), (252, 0), (178, 178), (0, 252), (-178, 178), (-252, 0), (-178, -178)]",[],39,odd,3,NA,101673,184842,184842,11938,10935,1589,19747,19747,1589,1589,18183,315309,1585,184842,313760,312804,312805,NA,953,study_X,0,6245,1,yes,1680
undefined,undefined,NA,NA,NA,6245,6245,black,no,legacy,legacy,legacy,0,red,"(177, 0, 0)",shape,present,highProb,circular,same,swap,swap,same,red,"(177, 0, 0)",highProbColor,highProbColor,rectangular,uniform,0,undefined,0,0.192708333,1,1,357.0885417,1,37,68561,0,0,0,0,0,0,0,0,68,0,1,0.192708333,357.0885417,37,68561,67,67,67,11/27/2018 15:35,Default description,yes,<openexp._canvas.legacy.Legacy object at 0x12CD6430>,<openexp._canvas.legacy.Legacy object at 0x0B03F2D0>,<openexp._canvas.legacy.Legacy object at 0x12D27BD0>,<openexp._canvas.legacy.Legacy object at 0x0ADB8A70>,<openexp._canvas.legacy.Legacy object at 0x0B76D390>,<openexp._canvas.legacy.Legacy object at 0x12CC89B0>,<openexp._canvas.legacy.Legacy object at 0x12D0B850>,<openexp._canvas.legacy.Legacy object at 0x0B03FBF0>,75,SpatProbMultiple3.osexp,C:/Userdata/Michel/SpatProbMultiple3,no,mono,no,18,no,white,no,yes,0.09,98,1050,legacy,45,42,42,1,C:/Userdata/Michel/SpatProbMultiple3/beh/subject-15.csv,legacy,9,192,25,Kafkaesque Koffka,3.2.5,yes,598477b2b83f69022949e7e9,47,red,circular,red,rectangular,0,/,2207,space,6245,6245,"(80, 80, 80)","(0, 123, 0)","(177, 0, 0)","(155, 155, 155)",2,legacy,experiment,"[6, 7, 0, 1, 2, 3, 4, 5]",\,2500,3000,0,8,252.7587515,1024,2,48000,-16,main,"[(0, -252), (178, -178), (252, 0), (178, 178), (0, 252), (-178, 178), (-252, 0), (-178, -178)]",[],39,odd,6,NA,101673,184842,184842,11938,10935,1589,19747,19747,1589,1589,18183,318909,1585,184842,316699,315744,315744,NA,953,study_X,0,6245,1,yes,1680
undefined,undefined,NA,NA,NA,6245,6245,black,no,legacy,legacy,legacy,0,red,"(177, 0, 0)",color,present,highProb,circular,same,same,swap,swap,green,"(0, 123, 0)",lowProb,lowProb4,circular,uniform,1,undefined,0,0.197916667,1,1,364.6666667,1,38,70016,0,0,0,0,0,0,0,0,69,0,1,0.197916667,364.6666667,38,70016,68,68,68,11/27/2018 15:35,Default description,yes,<openexp._canvas.legacy.Legacy object at 0x12CD6430>,<openexp._canvas.legacy.Legacy object at 0x0B03F2D0>,<openexp._canvas.legacy.Legacy object at 0x12D27BD0>,<openexp._canvas.legacy.Legacy object at 0x0ADB8A70>,<openexp._canvas.legacy.Legacy object at 0x0B76D390>,<openexp._canvas.legacy.Legacy object at 0x12CC89B0>,<openexp._canvas.legacy.Legacy object at 0x12CD6A30>,<openexp._canvas.legacy.Legacy object at 0x0B03FBF0>,75,SpatProbMultiple3.osexp,C:/Userdata/Michel/SpatProbMultiple3,no,mono,no,18,no,white,no,yes,0.09,98,1050,legacy,45,43,43,1,C:/Userdata/Michel/SpatProbMultiple3/beh/subject-15.csv,legacy,9,192,25,Kafkaesque Koffka,3.2.5,yes,598477b2b83f69022949e7e9,47,red,circular,green,circular,0,\,1455,space,6245,6245,"(80, 80, 80)","(0, 123, 0)","(177, 0, 0)","(155, 155, 155)",2,legacy,experiment,"[6, 7, 0, 1, 2, 3, 4, 5]",\,2500,3000,0,8,252.7587515,1024,2,48000,-16,main,"[(0, -252), (178, -178), (252, 0), (178, 178), (0, 252), (-178, 178), (-252, 0), (-178, -178)]",[],39,odd,3,NA,101673,184842,184842,11938,10935,1589,19747,19747,1589,1589,18183,321757,1585,184842,320298,319342,319342,NA,953,study_X,0,6245,1,yes,1680
undefined,undefined,NA,NA,NA,6245,6245,black,no,legacy,legacy,legacy,0,red,"(177, 0, 0)",shape,absent,lowProb6,rectangular,same,swap,swap,swap,red,"(177, 0, 0)",lowProb,lowProb1,rectangular,uniform,0,undefined,0,0.197916667,1,1,377.6875,1,38,72516,0,0,0,0,0,0,0,0,70,0,1,0.197916667,377.6875,38,72516,69,69,69,11/27/2018 15:35,Default description,yes,<openexp._canvas.legacy.Legacy object at 0x12CD6430>,<openexp._canvas.legacy.Legacy object at 0x0B03F2D0>,<openexp._canvas.legacy.Legacy object at 0x12D27BD0>,<openexp._canvas.legacy.Legacy object at 0x0ADB8A70>,<openexp._canvas.legacy.Legacy object at 0x0B76D390>,<openexp._canvas.legacy.Legacy object at 0x12CC89B0>,<openexp._canvas.legacy.Legacy object at 0x12D34230>,<openexp._canvas.legacy.Legacy object at 0x0B03FBF0>,75,SpatProbMultiple3.osexp,C:/Userdata/Michel/SpatProbMultiple3,no,mono,no,18,no,white,no,yes,0.09,98,1050,legacy,315,44,44,1,C:/Userdata/Michel/SpatProbMultiple3/beh/subject-15.csv,legacy,9,192,25,Kafkaesque Koffka,3.2.5,yes,598477b2b83f69022949e7e9,47,red,rectangular,red,rectangular,0,None,2500,space,6245,6245,"(80, 80, 80)","(0, 123, 0)","(177, 0, 0)","(155, 155, 155)",2,legacy,experiment,"[6, 7, 0, 1, 2, 3, 4, 5]",/,2500,3000,0,8,252.7587515,1024,2,48000,-16,main,"[(0, -252), (178, -178), (252, 0), (178, 178), (0, 252), (-178, 178), (-252, 0), (-178, -178)]",[],39,odd,7,NA,101673,184842,184842,11938,10935,1589,19747,19747,1589,1589,18183,325652,1585,184842,323149,322194,322194,NA,953,study_X,0,6245,1,yes,1680
undefined,undefined,NA,NA,NA,6245,6245,black,no,legacy,legacy,legacy,0,red,"(177, 0, 0)",color,present,lowProb3,rectangular,same,same,swap,same,green,"(0, 123, 0)",highProbShape,highProbShape,rectangular,uniform,1,undefined,0,0.203125,1,1,388.3072917,1,39,74555,0,0,0,0,0,0,0,0,71,0,1,0.203125,388.3072917,39,74555,70,70,70,11/27/2018 15:35,Default description,yes,<openexp._canvas.legacy.Legacy object at 0x12CD6430>,<openexp._canvas.legacy.Legacy object at 0x0B03F2D0>,<openexp._canvas.legacy.Legacy object at 0x12D27BD0>,<openexp._canvas.legacy.Legacy object at 0x0ADB8A70>,<openexp._canvas.legacy.Legacy object at 0x0B76D390>,<openexp._canvas.legacy.Legacy object at 0x12CC89B0>,<openexp._canvas.legacy.Legacy object at 0x12D0B390>,<openexp._canvas.legacy.Legacy object at 0x0B03FBF0>,75,SpatProbMultiple3.osexp,C:/Userdata/Michel/SpatProbMultiple3,no,mono,no,18,no,white,no,yes,0.09,98,1050,legacy,315,45,45,1,C:/Userdata/Michel/SpatProbMultiple3/beh/subject-15.csv,legacy,9,192,25,Kafkaesque Koffka,3.2.5,yes,598477b2b83f69022949e7e9,47,red,rectangular,green,rectangular,0,/,2039,space,6245,6245,"(80, 80, 80)","(0, 123, 0)","(177, 0, 0)","(155, 155, 155)",2,legacy,experiment,"[6, 7, 0, 1, 2, 3, 4, 5]",/,2500,3000,0,8,252.7587515,1024,2,48000,-16,main,"[(0, -252), (178, -178), (252, 0), (178, 178), (0, 252), (-178, 178), (-252, 0), (-178, -178)]",[],39,odd,2,NA,101673,184842,184842,11938,10935,1589,19747,19747,1589,1589,18183,329084,1585,184842,327042,326087,326087,NA,953,study_X,0,6245,1,yes,1680
undefined,undefined,NA,NA,NA,6245,6245,black,no,legacy,legacy,legacy,0,green,"(0, 123, 0)",color,present,highProb,rectangular,swap,same,swap,same,red,"(177, 0, 0)",highProbShape,highProbShape,rectangular,uniform,1,undefined,0,0.208333333,1,1,392.171875,1,40,75297,0,0,0,0,0,0,0,0,72,0,1,0.208333333,392.171875,40,75297,71,71,71,11/27/2018 15:35,Default description,yes,<openexp._canvas.legacy.Legacy object at 0x12CD6430>,<openexp._canvas.legacy.Legacy object at 0x0B03F2D0>,<openexp._canvas.legacy.Legacy object at 0x12D27BD0>,<openexp._canvas.legacy.Legacy object at 0x0ADB8A70>,<openexp._canvas.legacy.Legacy object at 0x0B76D390>,<openexp._canvas.legacy.Legacy object at 0x12CC89B0>,<openexp._canvas.legacy.Legacy object at 0x12D0AED0>,<openexp._canvas.legacy.Legacy object at 0x0B03FBF0>,75,SpatProbMultiple3.osexp,C:/Userdata/Michel/SpatProbMultiple3,no,mono,no,18,no,white,no,yes,0.09,98,1050,legacy,315,46,46,1,C:/Userdata/Michel/SpatProbMultiple3/beh/subject-15.csv,legacy,9,192,25,Kafkaesque Koffka,3.2.5,yes,598477b2b83f69022949e7e9,47,green,rectangular,red,rectangular,0,/,742,space,6245,6245,"(80, 80, 80)","(0, 123, 0)","(177, 0, 0)","(155, 155, 155)",2,legacy,experiment,"[6, 7, 0, 1, 2, 3, 4, 5]",/,2500,3000,0,8,252.7587515,1024,2,48000,-16,main,"[(0, -252), (178, -178), (252, 0), (178, 178), (0, 252), (-178, 178), (-252, 0), (-178, -178)]",[],39,odd,2,NA,101673,184842,184842,11938,10935,1589,19747,19747,1589,1589,18183,331212,1585,184842,330467,329512,329512,NA,953,study_X,0,6245,1,yes,1680
undefined,undefined,NA,NA,NA,6245,6245,black,no,legacy,legacy,legacy,0,red,"(177, 0, 0)",color,present,lowProb6,rectangular,swap,same,swap,same,green,"(0, 123, 0)",lowProb,lowProb1,rectangular,uniform,1,undefined,0,0.213541667,1,1,400.6458333,1,41,76924,0,0,0,0,0,0,0,0,73,0,1,0.213541667,400.6458333,41,76924,72,72,72,11/27/2018 15:35,Default description,yes,<openexp._canvas.legacy.Legacy object at 0x12CD6430>,<openexp._canvas.legacy.Legacy object at 0x0B03F2D0>,<openexp._canvas.legacy.Legacy object at 0x12D27BD0>,<openexp._canvas.legacy.Legacy object at 0x0ADB8A70>,<openexp._canvas.legacy.Legacy object at 0x0B76D390>,<openexp._canvas.legacy.Legacy object at 0x12CC89B0>,<openexp._canvas.legacy.Legacy object at 0x12D34330>,<openexp._canvas.legacy.Legacy object at 0x0B03FBF0>,75,SpatProbMultiple3.osexp,C:/Userdata/Michel/SpatProbMultiple3,no,mono,no,18,no,white,no,yes,0.09,98,1050,legacy,315,47,47,1,C:/Userdata/Michel/SpatProbMultiple3/beh/subject-15.csv,legacy,9,192,25,Kafkaesque Koffka,3.2.5,yes,598477b2b83f69022949e7e9,47,red,rectangular,green,rectangular,0,/,1627,space,6245,6245,"(80, 80, 80)","(0, 123, 0)","(177, 0, 0)","(155, 155, 155)",2,legacy,experiment,"[6, 7, 0, 1, 2, 3, 4, 5]",/,2500,3000,0,8,252.7587515,1024,2,48000,-16,main,"[(0, -252), (178, -178), (252, 0), (178, 178), (0, 252), (-178, 178), (-252, 0), (-178, -178)]",[],39,odd,7,NA,101673,184842,184842,11938,10935,1589,19747,19747,1589,1589,18183,334253,1585,184842,332623,331668,331668,NA,953,study_X,0,6245,1,yes,1680
undefined,undefined,NA,NA,NA,6245,6245,black,no,legacy,legacy,legacy,0,green,"(0, 123, 0)",color,present,highProb,rectangular,swap,same,swap,same,red,"(177, 0, 0)",lowProb,lowProb5,rectangular,uniform,1,undefined,0,0.21875,1,1,410.1302083,1,42,78745,0,0,0,0,0,0,0,0,74,0,1,0.21875,410.1302083,42,78745,73,73,73,11/27/2018 15:35,Default description,yes,<openexp._canvas.legacy.Legacy object at 0x12CD6430>,<openexp._canvas.legacy.Legacy object at 0x0B03F2D0>,<openexp._canvas.legacy.Legacy object at 0x12D27BD0>,<openexp._canvas.legacy.Legacy object at 0x0ADB8A70>,<openexp._canvas.legacy.Legacy object at 0x0B76D390>,<openexp._canvas.legacy.Legacy object at 0x12CC89B0>,<openexp._canvas.legacy.Legacy object at 0x12D0B850>,<openexp._canvas.legacy.Legacy object at 0x0B03FBF0>,75,SpatProbMultiple3.osexp,C:/Userdata/Michel/SpatProbMultiple3,no,mono,no,18,no,white,no,yes,0.09,98,1050,legacy,315,48,48,1,C:/Userdata/Michel/SpatProbMultiple3/beh/subject-15.csv,legacy,9,192,25,Kafkaesque Koffka,3.2.5,yes,598477b2b83f69022949e7e9,47,green,rectangular,red,rectangular,0,/,1821,space,6245,6245,"(80, 80, 80)","(0, 123, 0)","(177, 0, 0)","(155, 155, 155)",2,legacy,experiment,"[6, 7, 0, 1, 2, 3, 4, 5]",/,2500,3000,0,8,252.7587515,1024,2,48000,-16,main,"[(0, -252), (178, -178), (252, 0), (178, 178), (0, 252), (-178, 178), (-252, 0), (-178, -178)]",[],39,odd,4,NA,101673,184842,184842,11938,10935,1589,19747,19747,1589,1589,18183,337461,1585,184842,335636,334681,334681,NA,953,study_X,0,6245,1,yes,1680
undefined,undefined,NA,NA,NA,6245,6245,black,no,legacy,legacy,legacy,0,green,"(0, 123, 0)",color,present,highProb,circular,same,swap,same,swap,red,"(177, 0, 0)",lowProb,lowProb4,circular,uniform,1,undefined,0,0.223958333,1,1,417.8177083,1,43,80221,0,0,0,0,0,0,0,0,75,0,1,0.223958333,417.8177083,43,80221,74,74,74,11/27/2018 15:35,Default description,yes,<openexp._canvas.legacy.Legacy object at 0x12CD6430>,<openexp._canvas.legacy.Legacy object at 0x0B03F2D0>,<openexp._canvas.legacy.Legacy object at 0x12D27BD0>,<openexp._canvas.legacy.Legacy object at 0x0ADB8A70>,<openexp._canvas.legacy.Legacy object at 0x0B76D390>,<openexp._canvas.legacy.Legacy object at 0x12CC89B0>,<openexp._canvas.legacy.Legacy object at 0x0B03F9D0>,<openexp._canvas.legacy.Legacy object at 0x0B03FBF0>,75,SpatProbMultiple3.osexp,C:/Userdata/Michel/SpatProbMultiple3,no,mono,no,18,no,white,no,yes,0.09,98,1050,legacy,315,49,49,1,C:/Userdata/Michel/SpatProbMultiple3/beh/subject-15.csv,legacy,9,192,25,Kafkaesque Koffka,3.2.5,yes,598477b2b83f69022949e7e9,47,green,circular,red,circular,0,/,1476,space,6245,6245,"(80, 80, 80)","(0, 123, 0)","(177, 0, 0)","(155, 155, 155)",2,legacy,experiment,"[6, 7, 0, 1, 2, 3, 4, 5]",/,2500,3000,0,8,252.7587515,1024,2,48000,-16,main,"[(0, -252), (178, -178), (252, 0), (178, 178), (0, 252), (-178, 178), (-252, 0), (-178, -178)]",[],39,odd,3,NA,101673,184842,184842,11938,10935,1589,19747,19747,1589,1589,18183,340341,1585,184842,338861,337906,337906,NA,953,study_X,0,6245,1,yes,1680
undefined,undefined,NA,NA,NA,6245,6245,black,no,legacy,legacy,legacy,0,green,"(0, 123, 0)",color,present,highProb,circular,same,same,same,same,red,"(177, 0, 0)",lowProb,lowProb4,circular,uniform,1,undefined,0,0.229166667,1,1,421.4479167,1,44,80918,0,0,0,0,0,0,0,0,76,0,1,0.229166667,421.4479167,44,80918,75,75,75,11/27/2018 15:35,Default description,yes,<openexp._canvas.legacy.Legacy object at 0x12CD6430>,<openexp._canvas.legacy.Legacy object at 0x0B03F2D0>,<openexp._canvas.legacy.Legacy object at 0x12D27BD0>,<openexp._canvas.legacy.Legacy object at 0x0ADB8A70>,<openexp._canvas.legacy.Legacy object at 0x0B76D390>,<openexp._canvas.legacy.Legacy object at 0x12CC89B0>,<openexp._canvas.legacy.Legacy object at 0x12CC21F0>,<openexp._canvas.legacy.Legacy object at 0x0B03FBF0>,75,SpatProbMultiple3.osexp,C:/Userdata/Michel/SpatProbMultiple3,no,mono,no,18,no,white,no,yes,0.09,98,1050,legacy,45,50,50,1,C:/Userdata/Michel/SpatProbMultiple3/beh/subject-15.csv,legacy,9,192,25,Kafkaesque Koffka,3.2.5,yes,598477b2b83f69022949e7e9,47,green,circular,red,circular,0,\,697,space,6245,6245,"(80, 80, 80)","(0, 123, 0)","(177, 0, 0)","(155, 155, 155)",2,legacy,experiment,"[6, 7, 0, 1, 2, 3, 4, 5]",\,2500,3000,0,8,252.7587515,1024,2,48000,-16,main,"[(0, -252), (178, -178), (252, 0), (178, 178), (0, 252), (-178, 178), (-252, 0), (-178, -178)]",[],39,odd,3,NA,101673,184842,184842,11938,10935,1589,19747,19747,1589,1589,18183,342444,1585,184842,341745,340789,340789,NA,953,study_X,0,6245,1,yes,1680
undefined,undefined,NA,NA,NA,6245,6245,black,no,legacy,legacy,legacy,0,red,"(177, 0, 0)",color,absent,lowProb6,circular,swap,same,same,same,red,"(177, 0, 0)",highProbShape,highProbShape,circular,uniform,1,undefined,0,0.234375,1,1,426.421875,1,45,81873,0,0,0,0,0,0,0,0,77,0,1,0.234375,426.421875,45,81873,76,76,76,11/27/2018 15:35,Default description,yes,<openexp._canvas.legacy.Legacy object at 0x12CD6430>,<openexp._canvas.legacy.Legacy object at 0x0B03F2D0>,<openexp._canvas.legacy.Legacy object at 0x12D27BD0>,<openexp._canvas.legacy.Legacy object at 0x0ADB8A70>,<openexp._canvas.legacy.Legacy object at 0x0B76D390>,<openexp._canvas.legacy.Legacy object at 0x12CC89B0>,<openexp._canvas.legacy.Legacy object at 0x12CD63F0>,<openexp._canvas.legacy.Legacy object at 0x0B03FBF0>,75,SpatProbMultiple3.osexp,C:/Userdata/Michel/SpatProbMultiple3,no,mono,no,18,no,white,no,yes,0.09,98,1050,legacy,45,51,51,1,C:/Userdata/Michel/SpatProbMultiple3/beh/subject-15.csv,legacy,9,192,25,Kafkaesque Koffka,3.2.5,yes,598477b2b83f69022949e7e9,47,red,circular,red,circular,0,\,955,space,6245,6245,"(80, 80, 80)","(0, 123, 0)","(177, 0, 0)","(155, 155, 155)",2,legacy,experiment,"[6, 7, 0, 1, 2, 3, 4, 5]",\,2500,3000,0,8,252.7587515,1024,2,48000,-16,main,"[(0, -252), (178, -178), (252, 0), (178, 178), (0, 252), (-178, 178), (-252, 0), (-178, -178)]",[],39,odd,2,NA,101673,184842,184842,11938,10935,1589,19747,19747,1589,1589,18183,344796,1585,184842,343838,342883,342883,NA,953,study_X,0,6245,1,yes,1680
undefined,undefined,NA,NA,NA,6245,6245,black,no,legacy,legacy,legacy,0,red,"(177, 0, 0)",shape,present,lowProb2,circular,same,same,same,swap,red,"(177, 0, 0)",highProbColor,highProbColor,rectangular,uniform,0,undefined,0,0.234375,1,1,433.9479167,1,45,83318,0,0,0,0,0,0,0,0,78,0,1,0.234375,433.9479167,45,83318,77,77,77,11/27/2018 15:35,Default description,yes,<openexp._canvas.legacy.Legacy object at 0x12CD6430>,<openexp._canvas.legacy.Legacy object at 0x0B03F2D0>,<openexp._canvas.legacy.Legacy object at 0x12D27BD0>,<openexp._canvas.legacy.Legacy object at 0x0ADB8A70>,<openexp._canvas.legacy.Legacy object at 0x0B76D390>,<openexp._canvas.legacy.Legacy object at 0x12CC89B0>,<openexp._canvas.legacy.Legacy object at 0x0B03F5F0>,<openexp._canvas.legacy.Legacy object at 0x0B03FBF0>,75,SpatProbMultiple3.osexp,C:/Userdata/Michel/SpatProbMultiple3,no,mono,no,18,no,white,no,yes,0.09,98,1050,legacy,315,52,52,1,C:/Userdata/Michel/SpatProbMultiple3/beh/subject-15.csv,legacy,9,192,25,Kafkaesque Koffka,3.2.5,yes,598477b2b83f69022949e7e9,47,red,circular,red,rectangular,0,\,1445,space,6245,6245,"(80, 80, 80)","(0, 123, 0)","(177, 0, 0)","(155, 155, 155)",2,legacy,experiment,"[6, 7, 0, 1, 2, 3, 4, 5]",/,2500,3000,0,8,252.7587515,1024,2,48000,-16,main,"[(0, -252), (178, -178), (252, 0), (178, 178), (0, 252), (-178, 178), (-252, 0), (-178, -178)]",[],39,odd,6,NA,101673,184842,184842,11938,10935,1589,19747,19747,1589,1589,18183,347660,1585,184842,346212,345257,345257,NA,953,study_X,0,6245,1,yes,1680
undefined,undefined,NA,NA,NA,6245,6245,black,no,legacy,legacy,legacy,0,red,"(177, 0, 0)",color,present,highProb,circular,same,same,swap,swap,green,"(0, 123, 0)",lowProb,lowProb6,circular,uniform,0,undefined,0,0.234375,1,1,439.0729167,1,45,84302,0,0,0,0,0,0,0,0,79,0,1,0.234375,439.0729167,45,84302,78,78,78,11/27/2018 15:35,Default description,yes,<openexp._canvas.legacy.Legacy object at 0x12CD6430>,<openexp._canvas.legacy.Legacy object at 0x0B03F2D0>,<openexp._canvas.legacy.Legacy object at 0x12D27BD0>,<openexp._canvas.legacy.Legacy object at 0x0ADB8A70>,<openexp._canvas.legacy.Legacy object at 0x0B76D390>,<openexp._canvas.legacy.Legacy object at 0x12CC89B0>,<openexp._canvas.legacy.Legacy object at 0x12D349F0>,<openexp._canvas.legacy.Legacy object at 0x0B03FBF0>,75,SpatProbMultiple3.osexp,C:/Userdata/Michel/SpatProbMultiple3,no,mono,no,18,no,white,no,yes,0.09,98,1050,legacy,315,53,53,1,C:/Userdata/Michel/SpatProbMultiple3/beh/subject-15.csv,legacy,9,192,25,Kafkaesque Koffka,3.2.5,yes,598477b2b83f69022949e7e9,47,red,circular,green,circular,0,\,984,space,6245,6245,"(80, 80, 80)","(0, 123, 0)","(177, 0, 0)","(155, 155, 155)",2,legacy,experiment,"[6, 7, 0, 1, 2, 3, 4, 5]",/,2500,3000,0,8,252.7587515,1024,2,48000,-16,main,"[(0, -252), (178, -178), (252, 0), (178, 178), (0, 252), (-178, 178), (-252, 0), (-178, -178)]",[],39,odd,5,NA,101673,184842,184842,11938,10935,1589,19747,19747,1589,1589,18183,350045,1585,184842,349057,348102,348102,NA,953,study_X,0,6245,1,yes,1680
undefined,undefined,NA,NA,NA,6245,6245,black,no,legacy,legacy,legacy,0,green,"(0, 123, 0)",shape,present,highProb,rectangular,swap,swap,same,same,green,"(0, 123, 0)",lowProb,lowProb5,circular,uniform,0,undefined,0,0.234375,1,1,444.0625,1,45,85260,0,0,0,0,0,0,0,0,80,0,1,0.234375,444.0625,45,85260,79,79,79,11/27/2018 15:35,Default description,yes,<openexp._canvas.legacy.Legacy object at 0x12CD6430>,<openexp._canvas.legacy.Legacy object at 0x0B03F2D0>,<openexp._canvas.legacy.Legacy object at 0x12D27BD0>,<openexp._canvas.legacy.Legacy object at 0x0ADB8A70>,<openexp._canvas.legacy.Legacy object at 0x0B76D390>,<openexp._canvas.legacy.Legacy object at 0x12CC89B0>,<openexp._canvas.legacy.Legacy object at 0x12CD65F0>,<openexp._canvas.legacy.Legacy object at 0x0B03FBF0>,75,SpatProbMultiple3.osexp,C:/Userdata/Michel/SpatProbMultiple3,no,mono,no,18,no,white,no,yes,0.09,98,1050,legacy,315,54,54,1,C:/Userdata/Michel/SpatProbMultiple3/beh/subject-15.csv,legacy,9,192,25,Kafkaesque Koffka,3.2.5,yes,598477b2b83f69022949e7e9,47,green,rectangular,green,circular,0,\,958,space,6245,6245,"(80, 80, 80)","(0, 123, 0)","(177, 0, 0)","(155, 155, 155)",2,legacy,experiment,"[6, 7, 0, 1, 2, 3, 4, 5]",/,2500,3000,0,8,252.7587515,1024,2,48000,-16,main,"[(0, -252), (178, -178), (252, 0), (178, 178), (0, 252), (-178, 178), (-252, 0), (-178, -178)]",[],39,odd,4,NA,101673,184842,184842,11938,10935,1589,19747,19747,1589,1589,18183,352405,1585,184842,351443,350488,350488,NA,953,study_X,0,6245,1,yes,1680
undefined,undefined,NA,NA,NA,6245,6245,black,no,legacy,legacy,legacy,0,red,"(177, 0, 0)",shape,absent,lowProb5,circular,swap,swap,swap,same,red,"(177, 0, 0)",highProbShape,highProbShape,circular,uniform,0,undefined,0,0.234375,1,1,451.3489583,1,45,86659,0,0,0,0,0,0,0,0,81,0,1,0.234375,451.3489583,45,86659,80,80,80,11/27/2018 15:35,Default description,yes,<openexp._canvas.legacy.Legacy object at 0x12CD6430>,<openexp._canvas.legacy.Legacy object at 0x0B03F2D0>,<openexp._canvas.legacy.Legacy object at 0x12D27BD0>,<openexp._canvas.legacy.Legacy object at 0x0ADB8A70>,<openexp._canvas.legacy.Legacy object at 0x0B76D390>,<openexp._canvas.legacy.Legacy object at 0x12CC89B0>,<openexp._canvas.legacy.Legacy object at 0x12CD6E50>,<openexp._canvas.legacy.Legacy object at 0x0B03FBF0>,75,SpatProbMultiple3.osexp,C:/Userdata/Michel/SpatProbMultiple3,no,mono,no,18,no,white,no,yes,0.09,98,1050,legacy,315,55,55,1,C:/Userdata/Michel/SpatProbMultiple3/beh/subject-15.csv,legacy,9,192,25,Kafkaesque Koffka,3.2.5,yes,598477b2b83f69022949e7e9,47,red,circular,red,circular,0,\,1399,space,6245,6245,"(80, 80, 80)","(0, 123, 0)","(177, 0, 0)","(155, 155, 155)",2,legacy,experiment,"[6, 7, 0, 1, 2, 3, 4, 5]",/,2500,3000,0,8,252.7587515,1024,2,48000,-16,main,"[(0, -252), (178, -178), (252, 0), (178, 178), (0, 252), (-178, 178), (-252, 0), (-178, -178)]",[],39,odd,2,NA,101673,184842,184842,11938,10935,1589,19747,19747,1589,1589,18183,355213,1585,184842,353810,352854,352855,NA,953,study_X,0,6245,1,yes,1680
undefined,undefined,NA,NA,NA,6245,6245,black,no,legacy,legacy,legacy,0,red,"(177, 0, 0)",color,present,highProb,circular,same,same,swap,same,green,"(0, 123, 0)",lowProb,lowProb4,circular,uniform,0,undefined,0,0.234375,1,1,457.1666667,1,45,87776,0,0,0,0,0,0,0,0,82,0,1,0.234375,457.1666667,45,87776,81,81,81,11/27/2018 15:35,Default description,yes,<openexp._canvas.legacy.Legacy object at 0x12CD6430>,<openexp._canvas.legacy.Legacy object at 0x0B03F2D0>,<openexp._canvas.legacy.Legacy object at 0x12D27BD0>,<openexp._canvas.legacy.Legacy object at 0x0ADB8A70>,<openexp._canvas.legacy.Legacy object at 0x0B76D390>,<openexp._canvas.legacy.Legacy object at 0x12CC89B0>,<openexp._canvas.legacy.Legacy object at 0x12CD6790>,<openexp._canvas.legacy.Legacy object at 0x0B03FBF0>,75,SpatProbMultiple3.osexp,C:/Userdata/Michel/SpatProbMultiple3,no,mono,no,18,no,white,no,yes,0.09,98,1050,legacy,315,56,56,1,C:/Userdata/Michel/SpatProbMultiple3/beh/subject-15.csv,legacy,9,192,25,Kafkaesque Koffka,3.2.5,yes,598477b2b83f69022949e7e9,47,red,circular,green,circular,0,\,1117,space,6245,6245,"(80, 80, 80)","(0, 123, 0)","(177, 0, 0)","(155, 155, 155)",2,legacy,experiment,"[6, 7, 0, 1, 2, 3, 4, 5]",/,2500,3000,0,8,252.7587515,1024,2,48000,-16,main,"[(0, -252), (178, -178), (252, 0), (178, 178), (0, 252), (-178, 178), (-252, 0), (-178, -178)]",[],39,odd,3,NA,101673,184842,184842,11938,10935,1589,19747,19747,1589,1589,18183,357724,1585,184842,356604,355649,355649,NA,953,study_X,0,6245,1,yes,1680
undefined,undefined,NA,NA,NA,6245,6245,black,no,legacy,legacy,legacy,0,green,"(0, 123, 0)",shape,present,highProb,circular,swap,same,same,swap,green,"(0, 123, 0)",lowProb,lowProb2,rectangular,uniform,0,undefined,0,0.234375,1,1,463.7395833,1,45,89038,0,0,0,0,0,0,0,0,83,0,1,0.234375,463.7395833,45,89038,82,82,82,11/27/2018 15:35,Default description,yes,<openexp._canvas.legacy.Legacy object at 0x12CD6430>,<openexp._canvas.legacy.Legacy object at 0x0B03F2D0>,<openexp._canvas.legacy.Legacy object at 0x12D27BD0>,<openexp._canvas.legacy.Legacy object at 0x0ADB8A70>,<openexp._canvas.legacy.Legacy object at 0x0B76D390>,<openexp._canvas.legacy.Legacy object at 0x12CC89B0>,<openexp._canvas.legacy.Legacy object at 0x0ADB8CF0>,<openexp._canvas.legacy.Legacy object at 0x0B03FBF0>,75,SpatProbMultiple3.osexp,C:/Userdata/Michel/SpatProbMultiple3,no,mono,no,18,no,white,no,yes,0.09,98,1050,legacy,45,57,57,1,C:/Userdata/Michel/SpatProbMultiple3/beh/subject-15.csv,legacy,9,192,25,Kafkaesque Koffka,3.2.5,yes,598477b2b83f69022949e7e9,47,green,circular,green,rectangular,0,/,1262,space,6245,6245,"(80, 80, 80)","(0, 123, 0)","(177, 0, 0)","(155, 155, 155)",2,legacy,experiment,"[6, 7, 0, 1, 2, 3, 4, 5]",\,2500,3000,0,8,252.7587515,1024,2,48000,-16,main,"[(0, -252), (178, -178), (252, 0), (178, 178), (0, 252), (-178, 178), (-252, 0), (-178, -178)]",[],39,odd,0,NA,101673,184842,184842,11938,10935,1589,19747,19747,1589,1589,18183,360388,1585,184842,359123,358168,358168,NA,953,study_X,0,6245,1,yes,1680
undefined,undefined,NA,NA,NA,6245,6245,black,no,legacy,legacy,legacy,0,red,"(177, 0, 0)",color,present,lowProb5,rectangular,swap,swap,same,same,green,"(0, 123, 0)",lowProb,lowProb4,rectangular,uniform,1,undefined,0,0.239583333,1,1,469.8229167,1,46,90206,0,0,0,0,0,0,0,0,84,0,1,0.239583333,469.8229167,46,90206,83,83,83,11/27/2018 15:35,Default description,yes,<openexp._canvas.legacy.Legacy object at 0x12CD6430>,<openexp._canvas.legacy.Legacy object at 0x0B03F2D0>,<openexp._canvas.legacy.Legacy object at 0x12D27BD0>,<openexp._canvas.legacy.Legacy object at 0x0ADB8A70>,<openexp._canvas.legacy.Legacy object at 0x0B76D390>,<openexp._canvas.legacy.Legacy object at 0x12CC89B0>,<openexp._canvas.legacy.Legacy object at 0x0ADB8410>,<openexp._canvas.legacy.Legacy object at 0x0B03FBF0>,75,SpatProbMultiple3.osexp,C:/Userdata/Michel/SpatProbMultiple3,no,mono,no,18,no,white,no,yes,0.09,98,1050,legacy,315,58,58,1,C:/Userdata/Michel/SpatProbMultiple3/beh/subject-15.csv,legacy,9,192,25,Kafkaesque Koffka,3.2.5,yes,598477b2b83f69022949e7e9,47,red,rectangular,green,rectangular,0,/,1168,space,6245,6245,"(80, 80, 80)","(0, 123, 0)","(177, 0, 0)","(155, 155, 155)",2,legacy,experiment,"[6, 7, 0, 1, 2, 3, 4, 5]",/,2500,3000,0,8,252.7587515,1024,2,48000,-16,main,"[(0, -252), (178, -178), (252, 0), (178, 178), (0, 252), (-178, 178), (-252, 0), (-178, -178)]",[],39,odd,3,NA,101673,184842,184842,11938,10935,1589,19747,19747,1589,1589,18183,362956,1585,184842,361785,360830,360830,NA,953,study_X,0,6245,1,yes,1680
undefined,undefined,NA,NA,NA,6245,6245,black,no,legacy,legacy,legacy,0,green,"(0, 123, 0)",shape,present,highProb,circular,swap,swap,same,same,green,"(0, 123, 0)",highProbColor,highProbColor,rectangular,uniform,1,undefined,0,0.244791667,1,1,479.9791667,1,47,92156,0,0,0,0,0,0,0,0,85,0,1,0.244791667,479.9791667,47,92156,84,84,84,11/27/2018 15:35,Default description,yes,<openexp._canvas.legacy.Legacy object at 0x12CD6430>,<openexp._canvas.legacy.Legacy object at 0x0B03F2D0>,<openexp._canvas.legacy.Legacy object at 0x12D27BD0>,<openexp._canvas.legacy.Legacy object at 0x0ADB8A70>,<openexp._canvas.legacy.Legacy object at 0x0B76D390>,<openexp._canvas.legacy.Legacy object at 0x12CC89B0>,<openexp._canvas.legacy.Legacy object at 0x12D34AF0>,<openexp._canvas.legacy.Legacy object at 0x0B03FBF0>,75,SpatProbMultiple3.osexp,C:/Userdata/Michel/SpatProbMultiple3,no,mono,no,18,no,white,no,yes,0.09,98,1050,legacy,45,59,59,1,C:/Userdata/Michel/SpatProbMultiple3/beh/subject-15.csv,legacy,9,192,25,Kafkaesque Koffka,3.2.5,yes,598477b2b83f69022949e7e9,47,green,circular,green,rectangular,0,\,1950,space,6245,6245,"(80, 80, 80)","(0, 123, 0)","(177, 0, 0)","(155, 155, 155)",2,legacy,experiment,"[6, 7, 0, 1, 2, 3, 4, 5]",\,2500,3000,0,8,252.7587515,1024,2,48000,-16,main,"[(0, -252), (178, -178), (252, 0), (178, 178), (0, 252), (-178, 178), (-252, 0), (-178, -178)]",[],39,odd,6,NA,101673,184842,184842,11938,10935,1589,19747,19747,1589,1589,18183,366324,1585,184842,364370,363415,363415,NA,953,study_X,0,6245,1,yes,1680
undefined,undefined,NA,NA,NA,6245,6245,black,no,legacy,legacy,legacy,0,green,"(0, 123, 0)",shape,present,highProb,circular,same,same,same,same,green,"(0, 123, 0)",lowProb,lowProb6,rectangular,uniform,1,undefined,0,0.25,1,1,488.953125,1,48,93879,0,0,0,0,0,0,0,0,86,0,1,0.25,488.953125,48,93879,85,85,85,11/27/2018 15:35,Default description,yes,<openexp._canvas.legacy.Legacy object at 0x12CD6430>,<openexp._canvas.legacy.Legacy object at 0x0B03F2D0>,<openexp._canvas.legacy.Legacy object at 0x12D27BD0>,<openexp._canvas.legacy.Legacy object at 0x0ADB8A70>,<openexp._canvas.legacy.Legacy object at 0x0B76D390>,<openexp._canvas.legacy.Legacy object at 0x12CC89B0>,<openexp._canvas.legacy.Legacy object at 0x12D0FDD0>,<openexp._canvas.legacy.Legacy object at 0x0B03FBF0>,75,SpatProbMultiple3.osexp,C:/Userdata/Michel/SpatProbMultiple3,no,mono,no,18,no,white,no,yes,0.09,98,1050,legacy,315,60,60,1,C:/Userdata/Michel/SpatProbMultiple3/beh/subject-15.csv,legacy,9,192,25,Kafkaesque Koffka,3.2.5,yes,598477b2b83f69022949e7e9,47,green,circular,green,rectangular,0,/,1723,space,6245,6245,"(80, 80, 80)","(0, 123, 0)","(177, 0, 0)","(155, 155, 155)",2,legacy,experiment,"[6, 7, 0, 1, 2, 3, 4, 5]",/,2500,3000,0,8,252.7587515,1024,2,48000,-16,main,"[(0, -252), (178, -178), (252, 0), (178, 178), (0, 252), (-178, 178), (-252, 0), (-178, -178)]",[],39,odd,5,NA,101673,184842,184842,11938,10935,1589,19747,19747,1589,1589,18183,369445,1585,184842,367718,366763,366763,NA,953,study_X,0,6245,1,yes,1680
undefined,undefined,NA,NA,NA,6245,6245,black,no,legacy,legacy,legacy,0,red,"(177, 0, 0)",shape,present,lowProb5,rectangular,swap,swap,swap,swap,red,"(177, 0, 0)",lowProb,lowProb6,circular,uniform,1,undefined,0,0.255208333,1,1,492.953125,1,49,94647,0,0,0,0,0,0,0,0,87,0,1,0.255208333,492.953125,49,94647,86,86,86,11/27/2018 15:35,Default description,yes,<openexp._canvas.legacy.Legacy object at 0x12CD6430>,<openexp._canvas.legacy.Legacy object at 0x0B03F2D0>,<openexp._canvas.legacy.Legacy object at 0x12D27BD0>,<openexp._canvas.legacy.Legacy object at 0x0ADB8A70>,<openexp._canvas.legacy.Legacy object at 0x0B76D390>,<openexp._canvas.legacy.Legacy object at 0x12CC89B0>,<openexp._canvas.legacy.Legacy object at 0x12D27710>,<openexp._canvas.legacy.Legacy object at 0x0B03FBF0>,75,SpatProbMultiple3.osexp,C:/Userdata/Michel/SpatProbMultiple3,no,mono,no,18,no,white,no,yes,0.09,98,1050,legacy,315,61,61,1,C:/Userdata/Michel/SpatProbMultiple3/beh/subject-15.csv,legacy,9,192,25,Kafkaesque Koffka,3.2.5,yes,598477b2b83f69022949e7e9,47,red,rectangular,red,circular,0,/,768,space,6245,6245,"(80, 80, 80)","(0, 123, 0)","(177, 0, 0)","(155, 155, 155)",2,legacy,experiment,"[6, 7, 0, 1, 2, 3, 4, 5]",/,2500,3000,0,8,252.7587515,1024,2,48000,-16,main,"[(0, -252), (178, -178), (252, 0), (178, 178), (0, 252), (-178, 178), (-252, 0), (-178, -178)]",[],39,odd,5,NA,101673,184842,184842,11938,10935,1589,19747,19747,1589,1589,18183,371613,1585,184842,370841,369886,369886,NA,953,study_X,0,6245,1,yes,1680
undefined,undefined,NA,NA,NA,6245,6245,black,no,legacy,legacy,legacy,0,green,"(0, 123, 0)",color,present,highProb,circular,swap,swap,same,same,red,"(177, 0, 0)",lowProb,lowProb6,circular,uniform,1,undefined,0,0.260416667,1,1,496.4895833,1,50,95326,0,0,0,0,0,0,0,0,88,0,1,0.260416667,496.4895833,50,95326,87,87,87,11/27/2018 15:35,Default description,yes,<openexp._canvas.legacy.Legacy object at 0x12CD6430>,<openexp._canvas.legacy.Legacy object at 0x0B03F2D0>,<openexp._canvas.legacy.Legacy object at 0x12D27BD0>,<openexp._canvas.legacy.Legacy object at 0x0ADB8A70>,<openexp._canvas.legacy.Legacy object at 0x0B76D390>,<openexp._canvas.legacy.Legacy object at 0x12CC89B0>,<openexp._canvas.legacy.Legacy object at 0x12D27730>,<openexp._canvas.legacy.Legacy object at 0x0B03FBF0>,75,SpatProbMultiple3.osexp,C:/Userdata/Michel/SpatProbMultiple3,no,mono,no,18,no,white,no,yes,0.09,98,1050,legacy,45,62,62,1,C:/Userdata/Michel/SpatProbMultiple3/beh/subject-15.csv,legacy,9,192,25,Kafkaesque Koffka,3.2.5,yes,598477b2b83f69022949e7e9,47,green,circular,red,circular,0,\,679,space,6245,6245,"(80, 80, 80)","(0, 123, 0)","(177, 0, 0)","(155, 155, 155)",2,legacy,experiment,"[6, 7, 0, 1, 2, 3, 4, 5]",\,2500,3000,0,8,252.7587515,1024,2,48000,-16,main,"[(0, -252), (178, -178), (252, 0), (178, 178), (0, 252), (-178, 178), (-252, 0), (-178, -178)]",[],39,odd,5,NA,101673,184842,184842,11938,10935,1589,19747,19747,1589,1589,18183,373693,1585,184842,373010,372054,372055,NA,953,study_X,0,6245,1,yes,1680
undefined,undefined,NA,NA,NA,6245,6245,black,no,legacy,legacy,legacy,0,green,"(0, 123, 0)",color,present,lowProb4,rectangular,same,swap,same,swap,red,"(177, 0, 0)",highProbColor,highProbColor,rectangular,uniform,0,undefined,0,0.260416667,1,1,509.5104167,1,50,97826,0,0,0,0,0,0,0,0,89,0,1,0.260416667,509.5104167,50,97826,88,88,88,11/27/2018 15:35,Default description,yes,<openexp._canvas.legacy.Legacy object at 0x12CD6430>,<openexp._canvas.legacy.Legacy object at 0x0B03F2D0>,<openexp._canvas.legacy.Legacy object at 0x12D27BD0>,<openexp._canvas.legacy.Legacy object at 0x0ADB8A70>,<openexp._canvas.legacy.Legacy object at 0x0B76D390>,<openexp._canvas.legacy.Legacy object at 0x12CC89B0>,<openexp._canvas.legacy.Legacy object at 0x0B03FAB0>,<openexp._canvas.legacy.Legacy object at 0x0B03FBF0>,75,SpatProbMultiple3.osexp,C:/Userdata/Michel/SpatProbMultiple3,no,mono,no,18,no,white,no,yes,0.09,98,1050,legacy,315,63,63,1,C:/Userdata/Michel/SpatProbMultiple3/beh/subject-15.csv,legacy,9,192,25,Kafkaesque Koffka,3.2.5,yes,598477b2b83f69022949e7e9,47,green,rectangular,red,rectangular,0,None,2500,space,6245,6245,"(80, 80, 80)","(0, 123, 0)","(177, 0, 0)","(155, 155, 155)",2,legacy,experiment,"[6, 7, 0, 1, 2, 3, 4, 5]",/,2500,3000,0,8,252.7587515,1024,2,48000,-16,main,"[(0, -252), (178, -178), (252, 0), (178, 178), (0, 252), (-178, 178), (-252, 0), (-178, -178)]",[],39,odd,6,NA,101673,184842,184842,11938,10935,1589,19747,19747,1589,1589,18183,377638,1585,184842,375136,374180,374180,NA,953,study_X,0,6245,1,yes,1680
undefined,undefined,NA,NA,NA,6245,6245,black,no,legacy,legacy,legacy,0,green,"(0, 123, 0)",color,absent,lowProb1,rectangular,same,same,swap,same,green,"(0, 123, 0)",highProbShape,highProbShape,rectangular,uniform,1,undefined,0,0.265625,1,1,514.6927083,1,51,98821,0,0,0,0,0,0,0,0,90,0,1,0.265625,514.6927083,51,98821,89,89,89,11/27/2018 15:35,Default description,yes,<openexp._canvas.legacy.Legacy object at 0x12CD6430>,<openexp._canvas.legacy.Legacy object at 0x0B03F2D0>,<openexp._canvas.legacy.Legacy object at 0x12D27BD0>,<openexp._canvas.legacy.Legacy object at 0x0ADB8A70>,<openexp._canvas.legacy.Legacy object at 0x0B76D390>,<openexp._canvas.legacy.Legacy object at 0x12CC89B0>,<openexp._canvas.legacy.Legacy object at 0x12D0F4D0>,<openexp._canvas.legacy.Legacy object at 0x0B03FBF0>,75,SpatProbMultiple3.osexp,C:/Userdata/Michel/SpatProbMultiple3,no,mono,no,18,no,white,no,yes,0.09,98,1050,legacy,315,64,64,1,C:/Userdata/Michel/SpatProbMultiple3/beh/subject-15.csv,legacy,9,192,25,Kafkaesque Koffka,3.2.5,yes,598477b2b83f69022949e7e9,47,green,rectangular,green,rectangular,0,/,995,space,6245,6245,"(80, 80, 80)","(0, 123, 0)","(177, 0, 0)","(155, 155, 155)",2,legacy,experiment,"[6, 7, 0, 1, 2, 3, 4, 5]",/,2500,3000,0,8,252.7587515,1024,2,48000,-16,main,"[(0, -252), (178, -178), (252, 0), (178, 178), (0, 252), (-178, 178), (-252, 0), (-178, -178)]",[],39,odd,2,NA,101673,184842,184842,11938,10935,1589,19747,19747,1589,1589,18183,380028,1585,184842,379030,378075,378075,NA,953,study_X,0,6245,1,yes,1680
