"acc","accuracy","average_response_time","avg_rt","background","bidi","canvas_backend","clock_backend","color_backend","compensation","cond_disColor","cond_disColorRGB","cond_disFeature","cond_disPresent","cond_disProbability","cond_disShape","cond_primingDisColor","cond_primingDisShape","cond_primingTarColor","cond_primingTarShape","cond_tarColor","cond_tarColorRGB","cond_tarLocation","cond_tarLocationLong","cond_tarShape","coordinates","correct","correct_continuePress","count_blockAcc","count_blockFeed","count_blockLoop","count_blockRT","count_blockSeq","count_blockSumCorrect","count_blockSumRT","count_continuePress","count_example","count_expSettings","count_exp_mainLoop","count_experiment","count_instructions","count_instructions1","count_instructions2","count_log","count_main","count_prepCanvas","count_totalAcc","count_totalRT","count_totalSumCorrect","count_totalSumRT","count_trialResp","count_trialSeq","count_trialTask","datetime","description","disable_garbage_collection","dispBlank","dispBlockStart","dispFeedBlock","dispFix","dispInstructions","dispSearch","dispStartScreen","distance2screen","experiment_file","experiment_path","font_bold","font_family","font_italic","font_size","font_underline","foreground","form_clicks","fullscreen","gaborFreq","gaborSize","height","keyboard_backend","lineOriTar","live_row","live_row_blockLoop","live_row_exp_mainLoop","logfile","mouse_backend","noExpBlocks","noExpTrials","noPracTrials","opensesame_codename","opensesame_version","osf_always_upload_experiment","osf_id","physical_screensize","previousDisColor","previousDisShape","previousTarColor","previousTarShape","repeat_cycle","response","responseTime","response_continuePress","response_time","response_time_continuePress","rgb_gray","rgb_green","rgb_red","rgb_white","round_decimals","sampler_backend","set_blockType","set_counterPositions","set_respCorrect","set_respTimeoutExp","set_respTimeoutPrac","set_rotation","set_setSize","sizeImaginary","sound_buf_size","sound_channels","sound_freq","sound_sample_size","start","stimPositions","stimuli","subject_nr","subject_parity","tarIdx","time_blockFeed","time_blockLoop","time_blockSeq","time_continuePress","time_example","time_expSettings","time_exp_mainLoop","time_experiment","time_instructions","time_instructions1","time_instructions2","time_log","time_main","time_prepCanvas","time_trialResp","time_trialSeq","time_trialTask","timing_EEGwait","timing_fix","title","total_correct","total_response_time","total_responses","uniform_coordinates","width"
"undefined","undefined","10661","10661","black","no","legacy","legacy","legacy","0","green","(0, 122, 0)","shape","absent","lowProb4","rectangular","same","same","swap","same","green","(0, 122, 0)","highProbColor","highProbColor","rectangular","uniform","1","undefined","0.00520833333333","1","1","4.20833333333","1","1","808","0","0","0","0","0","0","0","0","25","0","1","0.00520833333333","4.20833333333","1","808","25","25","25","08/25/17 10:11:11","Default description","yes","<openexp._canvas.legacy.legacy object at 0x047F27F0>","<openexp._canvas.legacy.legacy object at 0x047FD7B0>","<openexp._canvas.legacy.legacy object at 0x047E7290>","<openexp._canvas.legacy.legacy object at 0x048DF9D0>","<openexp._canvas.legacy.legacy object at 0x048B14B0>","<openexp._canvas.legacy.legacy object at 0x047EE550>","<openexp._canvas.legacy.legacy object at 0x048B29F0>","75","IndividualPriorityWithDis_v1.osexp","C:/Userdata/Michel/SpatialProb/IndividualPriorityMaps/Experiment2","no","mono","no","18","no","white","no","yes","0.09","98","1050","legacy","315","0","0","1","C:/Userdata/Michel/SpatialProb/IndividualPriorityMaps/Experiment2/data/subject-25.csv","legacy","9","192","25","Jazzy James","3.1.3","yes","598477b2b83f69022949e7e9","47","green","rectangular","green","rectangular","0","/","808","space","10661","10661","(80, 80, 80)","(0, 122, 0)","(179, 0, 0)","(155, 155, 155)","2","legacy","experiment","[0, 1, 2, 3, 4, 5, 6, 7]","/","2500","3000","0","8","252.758751519","1024","2","48000","-16","main","[(0, -252), (178, -178), (252, 0), (178, 178), (0, 252), (-178, 178), (-252, 0), (-178, -178)]","[]","25","odd","0","196171","219219","219219","122474","121467","1599","140062","140062","1599","1599","133135","226247","1598","219219","225435","219602","219602","NA","757","study_X","0","10661","1","yes","1680"
"undefined","undefined","10661","10661","black","no","legacy","legacy","legacy","0","green","(0, 122, 0)","color","absent","lowProb1","rectangular","same","same","same","same","green","(0, 122, 0)","lowProb","lowProb5","rectangular","uniform","1","undefined","0.0104166666667","1","1","9.33854166667","1","2","1793","0","0","0","0","0","0","0","0","26","0","1","0.0104166666667","9.33854166667","2","1793","26","26","26","08/25/17 10:11:11","Default description","yes","<openexp._canvas.legacy.legacy object at 0x047F27F0>","<openexp._canvas.legacy.legacy object at 0x047FD7B0>","<openexp._canvas.legacy.legacy object at 0x047E7290>","<openexp._canvas.legacy.legacy object at 0x048DF9D0>","<openexp._canvas.legacy.legacy object at 0x048B14B0>","<openexp._canvas.legacy.legacy object at 0x047FDFB0>","<openexp._canvas.legacy.legacy object at 0x048B29F0>","75","IndividualPriorityWithDis_v1.osexp","C:/Userdata/Michel/SpatialProb/IndividualPriorityMaps/Experiment2","no","mono","no","18","no","white","no","yes","0.09","98","1050","legacy","45","1","1","1","C:/Userdata/Michel/SpatialProb/IndividualPriorityMaps/Experiment2/data/subject-25.csv","legacy","9","192","25","Jazzy James","3.1.3","yes","598477b2b83f69022949e7e9","47","green","rectangular","green","rectangular","0","\","985","space","10661","10661","(80, 80, 80)","(0, 122, 0)","(179, 0, 0)","(155, 155, 155)","2","legacy","experiment","[0, 1, 2, 3, 4, 5, 6, 7]","\","2500","3000","0","8","252.758751519","1024","2","48000","-16","main","[(0, -252), (178, -178), (252, 0), (178, 178), (0, 252), (-178, 178), (-252, 0), (-178, -178)]","[]","25","odd","6","196171","219219","219219","122474","121467","1599","140062","140062","1599","1599","133135","228414","1598","219219","227426","226663","226664","NA","757","study_X","0","10661","1","yes","1680"
"undefined","undefined","10661","10661","black","no","legacy","legacy","legacy","0","green","(0, 122, 0)","color","present","highProb","circular","same","swap","swap","swap","red","(179, 0, 0)","lowProb","lowProb2","circular","uniform","1","undefined","0.015625","1","1","13.5833333333","1","3","2608","0","0","0","0","0","0","0","0","27","0","1","0.015625","13.5833333333","3","2608","27","27","27","08/25/17 10:11:11","Default description","yes","<openexp._canvas.legacy.legacy object at 0x047F27F0>","<openexp._canvas.legacy.legacy object at 0x047FD7B0>","<openexp._canvas.legacy.legacy object at 0x047E7290>","<openexp._canvas.legacy.legacy object at 0x048DF9D0>","<openexp._canvas.legacy.legacy object at 0x048B14B0>","<openexp._canvas.legacy.legacy object at 0x047EF950>","<openexp._canvas.legacy.legacy object at 0x048B29F0>","75","IndividualPriorityWithDis_v1.osexp","C:/Userdata/Michel/SpatialProb/IndividualPriorityMaps/Experiment2","no","mono","no","18","no","white","no","yes","0.09","98","1050","legacy","315","2","2","1","C:/Userdata/Michel/SpatialProb/IndividualPriorityMaps/Experiment2/data/subject-25.csv","legacy","9","192","25","Jazzy James","3.1.3","yes","598477b2b83f69022949e7e9","47","green","circular","red","circular","0","/","815","space","10661","10661","(80, 80, 80)","(0, 122, 0)","(179, 0, 0)","(155, 155, 155)","2","legacy","experiment","[0, 1, 2, 3, 4, 5, 6, 7]","/","2500","3000","0","8","252.758751519","1024","2","48000","-16","main","[(0, -252), (178, -178), (252, 0), (178, 178), (0, 252), (-178, 178), (-252, 0), (-178, -178)]","[]","25","odd","2","196171","219219","219219","122474","121467","1599","140062","140062","1599","1599","133135","230406","1598","219219","229588","228826","228826","NA","757","study_X","0","10661","1","yes","1680"
"undefined","undefined","10661","10661","black","no","legacy","legacy","legacy","0","red","(179, 0, 0)","shape","present","lowProb5","rectangular","swap","swap","same","same","red","(179, 0, 0)","lowProb","lowProb3","circular","uniform","0","undefined","0.015625","1","1","17.0520833333","1","3","3274","0","0","0","0","0","0","0","0","28","0","1","0.015625","17.0520833333","3","3274","28","28","28","08/25/17 10:11:11","Default description","yes","<openexp._canvas.legacy.legacy object at 0x047F27F0>","<openexp._canvas.legacy.legacy object at 0x047FD7B0>","<openexp._canvas.legacy.legacy object at 0x047E7290>","<openexp._canvas.legacy.legacy object at 0x048DF9D0>","<openexp._canvas.legacy.legacy object at 0x048B14B0>","<openexp._canvas.legacy.legacy object at 0x047E7FD0>","<openexp._canvas.legacy.legacy object at 0x048B29F0>","75","IndividualPriorityWithDis_v1.osexp","C:/Userdata/Michel/SpatialProb/IndividualPriorityMaps/Experiment2","no","mono","no","18","no","white","no","yes","0.09","98","1050","legacy","45","3","3","1","C:/Userdata/Michel/SpatialProb/IndividualPriorityMaps/Experiment2/data/subject-25.csv","legacy","9","192","25","Jazzy James","3.1.3","yes","598477b2b83f69022949e7e9","47","red","rectangular","red","circular","0","/","666","space","10661","10661","(80, 80, 80)","(0, 122, 0)","(179, 0, 0)","(155, 155, 155)","2","legacy","experiment","[0, 1, 2, 3, 4, 5, 6, 7]","\","2500","3000","0","8","252.758751519","1024","2","48000","-16","main","[(0, -252), (178, -178), (252, 0), (178, 178), (0, 252), (-178, 178), (-252, 0), (-178, -178)]","[]","25","odd","3","196171","219219","219219","122474","121467","1599","140062","140062","1599","1599","133135","232239","1598","219219","231570","230807","230807","NA","757","study_X","0","10661","1","yes","1680"
"undefined","undefined","10661","10661","black","no","legacy","legacy","legacy","0","green","(0, 122, 0)","color","absent","lowProb6","rectangular","swap","same","swap","swap","green","(0, 122, 0)","lowProb","lowProb2","rectangular","uniform","1","undefined","0.0208333333333","1","1","20.2291666667","1","4","3884","0","0","0","0","0","0","0","0","29","0","1","0.0208333333333","20.2291666667","4","3884","29","29","29","08/25/17 10:11:11","Default description","yes","<openexp._canvas.legacy.legacy object at 0x047F27F0>","<openexp._canvas.legacy.legacy object at 0x047FD7B0>","<openexp._canvas.legacy.legacy object at 0x047E7290>","<openexp._canvas.legacy.legacy object at 0x048DF9D0>","<openexp._canvas.legacy.legacy object at 0x048B14B0>","<openexp._canvas.legacy.legacy object at 0x047EFF50>","<openexp._canvas.legacy.legacy object at 0x048B29F0>","75","IndividualPriorityWithDis_v1.osexp","C:/Userdata/Michel/SpatialProb/IndividualPriorityMaps/Experiment2","no","mono","no","18","no","white","no","yes","0.09","98","1050","legacy","315","4","4","1","C:/Userdata/Michel/SpatialProb/IndividualPriorityMaps/Experiment2/data/subject-25.csv","legacy","9","192","25","Jazzy James","3.1.3","yes","598477b2b83f69022949e7e9","47","green","rectangular","green","rectangular","0","/","610","space","10661","10661","(80, 80, 80)","(0, 122, 0)","(179, 0, 0)","(155, 155, 155)","2","legacy","experiment","[0, 1, 2, 3, 4, 5, 6, 7]","/","2500","3000","0","8","252.758751519","1024","2","48000","-16","main","[(0, -252), (178, -178), (252, 0), (178, 178), (0, 252), (-178, 178), (-252, 0), (-178, -178)]","[]","25","odd","2","196171","219219","219219","122474","121467","1599","140062","140062","1599","1599","133135","234015","1598","219219","233402","232639","232639","NA","757","study_X","0","10661","1","yes","1680"
"undefined","undefined","10661","10661","black","no","legacy","legacy","legacy","0","red","(179, 0, 0)","color","absent","highProbOther","rectangular","swap","same","swap","same","red","(179, 0, 0)","lowProb","lowProb1","rectangular","uniform","1","undefined","0.0260416666667","1","1","23.5","1","5","4512","0","0","0","0","0","0","0","0","30","0","1","0.0260416666667","23.5","5","4512","30","30","30","08/25/17 10:11:11","Default description","yes","<openexp._canvas.legacy.legacy object at 0x047F27F0>","<openexp._canvas.legacy.legacy object at 0x047FD7B0>","<openexp._canvas.legacy.legacy object at 0x047E7290>","<openexp._canvas.legacy.legacy object at 0x048DF9D0>","<openexp._canvas.legacy.legacy object at 0x048B14B0>","<openexp._canvas.legacy.legacy object at 0x048DF2B0>","<openexp._canvas.legacy.legacy object at 0x048B29F0>","75","IndividualPriorityWithDis_v1.osexp","C:/Userdata/Michel/SpatialProb/IndividualPriorityMaps/Experiment2","no","mono","no","18","no","white","no","yes","0.09","98","1050","legacy","45","5","5","1","C:/Userdata/Michel/SpatialProb/IndividualPriorityMaps/Experiment2/data/subject-25.csv","legacy","9","192","25","Jazzy James","3.1.3","yes","598477b2b83f69022949e7e9","47","red","rectangular","red","rectangular","0","\","628","space","10661","10661","(80, 80, 80)","(0, 122, 0)","(179, 0, 0)","(155, 155, 155)","2","legacy","experiment","[0, 1, 2, 3, 4, 5, 6, 7]","\","2500","3000","0","8","252.758751519","1024","2","48000","-16","main","[(0, -252), (178, -178), (252, 0), (178, 178), (0, 252), (-178, 178), (-252, 0), (-178, -178)]","[]","25","odd","1","196171","219219","219219","122474","121467","1599","140062","140062","1599","1599","133135","235807","1598","219219","235176","234413","234413","NA","757","study_X","0","10661","1","yes","1680"
"undefined","undefined","10661","10661","black","no","legacy","legacy","legacy","0","green","(0, 122, 0)","color","present","highProb","rectangular","swap","same","same","same","red","(179, 0, 0)","lowProb","lowProb5","rectangular","uniform","1","undefined","0.03125","1","1","29.046875","1","6","5577","0","0","0","0","0","0","0","0","31","0","1","0.03125","29.046875","6","5577","31","31","31","08/25/17 10:11:11","Default description","yes","<openexp._canvas.legacy.legacy object at 0x047F27F0>","<openexp._canvas.legacy.legacy object at 0x047FD7B0>","<openexp._canvas.legacy.legacy object at 0x047E7290>","<openexp._canvas.legacy.legacy object at 0x048DF9D0>","<openexp._canvas.legacy.legacy object at 0x048B14B0>","<openexp._canvas.legacy.legacy object at 0x047E7ED0>","<openexp._canvas.legacy.legacy object at 0x048B29F0>","75","IndividualPriorityWithDis_v1.osexp","C:/Userdata/Michel/SpatialProb/IndividualPriorityMaps/Experiment2","no","mono","no","18","no","white","no","yes","0.09","98","1050","legacy","45","6","6","1","C:/Userdata/Michel/SpatialProb/IndividualPriorityMaps/Experiment2/data/subject-25.csv","legacy","9","192","25","Jazzy James","3.1.3","yes","598477b2b83f69022949e7e9","47","green","rectangular","red","rectangular","0","\","1065","space","10661","10661","(80, 80, 80)","(0, 122, 0)","(179, 0, 0)","(155, 155, 155)","2","legacy","experiment","[0, 1, 2, 3, 4, 5, 6, 7]","\","2500","3000","0","8","252.758751519","1024","2","48000","-16","main","[(0, -252), (178, -178), (252, 0), (178, 178), (0, 252), (-178, 178), (-252, 0), (-178, -178)]","[]","25","odd","6","196171","219219","219219","122474","121467","1599","140062","140062","1599","1599","133135","238031","1598","219219","236962","236199","236199","NA","757","study_X","0","10661","1","yes","1680"
"undefined","undefined","10661","10661","black","no","legacy","legacy","legacy","0","green","(0, 122, 0)","shape","present","highProb","circular","same","swap","swap","same","green","(0, 122, 0)","lowProb","lowProb2","rectangular","uniform","1","undefined","0.0364583333333","1","1","33.6458333333","1","7","6460","0","0","0","0","0","0","0","0","32","0","1","0.0364583333333","33.6458333333","7","6460","32","32","32","08/25/17 10:11:11","Default description","yes","<openexp._canvas.legacy.legacy object at 0x047F27F0>","<openexp._canvas.legacy.legacy object at 0x047FD7B0>","<openexp._canvas.legacy.legacy object at 0x047E7290>","<openexp._canvas.legacy.legacy object at 0x048DF9D0>","<openexp._canvas.legacy.legacy object at 0x048B14B0>","<openexp._canvas.legacy.legacy object at 0x047EE550>","<openexp._canvas.legacy.legacy object at 0x048B29F0>","75","IndividualPriorityWithDis_v1.osexp","C:/Userdata/Michel/SpatialProb/IndividualPriorityMaps/Experiment2","no","mono","no","18","no","white","no","yes","0.09","98","1050","legacy","45","7","7","1","C:/Userdata/Michel/SpatialProb/IndividualPriorityMaps/Experiment2/data/subject-25.csv","legacy","9","192","25","Jazzy James","3.1.3","yes","598477b2b83f69022949e7e9","47","green","circular","green","rectangular","0","\","883","space","10661","10661","(80, 80, 80)","(0, 122, 0)","(179, 0, 0)","(155, 155, 155)","2","legacy","experiment","[0, 1, 2, 3, 4, 5, 6, 7]","\","2500","3000","0","8","252.758751519","1024","2","48000","-16","main","[(0, -252), (178, -178), (252, 0), (178, 178), (0, 252), (-178, 178), (-252, 0), (-178, -178)]","[]","25","odd","2","196171","219219","219219","122474","121467","1599","140062","140062","1599","1599","133135","240087","1598","219219","239200","238437","238437","NA","757","study_X","0","10661","1","yes","1680"
"undefined","undefined","10661","10661","black","no","legacy","legacy","legacy","0","red","(179, 0, 0)","shape","present","lowProb4","rectangular","swap","swap","swap","swap","red","(179, 0, 0)","lowProb","lowProb5","circular","uniform","1","undefined","0.0416666666667","1","1","39.8645833333","1","8","7654","0","0","0","0","0","0","0","0","33","0","1","0.0416666666667","39.8645833333","8","7654","33","33","33","08/25/17 10:11:11","Default description","yes","<openexp._canvas.legacy.legacy object at 0x047F27F0>","<openexp._canvas.legacy.legacy object at 0x047FD7B0>","<openexp._canvas.legacy.legacy object at 0x047E7290>","<openexp._canvas.legacy.legacy object at 0x048DF9D0>","<openexp._canvas.legacy.legacy object at 0x048B14B0>","<openexp._canvas.legacy.legacy object at 0x048DFAB0>","<openexp._canvas.legacy.legacy object at 0x048B29F0>","75","IndividualPriorityWithDis_v1.osexp","C:/Userdata/Michel/SpatialProb/IndividualPriorityMaps/Experiment2","no","mono","no","18","no","white","no","yes","0.09","98","1050","legacy","315","8","8","1","C:/Userdata/Michel/SpatialProb/IndividualPriorityMaps/Experiment2/data/subject-25.csv","legacy","9","192","25","Jazzy James","3.1.3","yes","598477b2b83f69022949e7e9","47","red","rectangular","red","circular","0","/","1194","space","10661","10661","(80, 80, 80)","(0, 122, 0)","(179, 0, 0)","(155, 155, 155)","2","legacy","experiment","[0, 1, 2, 3, 4, 5, 6, 7]","/","2500","3000","0","8","252.758751519","1024","2","48000","-16","main","[(0, -252), (178, -178), (252, 0), (178, 178), (0, 252), (-178, 178), (-252, 0), (-178, -178)]","[]","25","odd","6","196171","219219","219219","122474","121467","1599","140062","140062","1599","1599","133135","242455","1598","219219","241257","240494","240494","NA","757","study_X","0","10661","1","yes","1680"
"undefined","undefined","10661","10661","black","no","legacy","legacy","legacy","0","red","(179, 0, 0)","shape","present","lowProb1","circular","same","swap","same","swap","red","(179, 0, 0)","highProbShape","highProbShape","rectangular","uniform","1","undefined","0.046875","1","1","45.8125","1","9","8796","0","0","0","0","0","0","0","0","34","0","1","0.046875","45.8125","9","8796","34","34","34","08/25/17 10:11:11","Default description","yes","<openexp._canvas.legacy.legacy object at 0x047F27F0>","<openexp._canvas.legacy.legacy object at 0x047FD7B0>","<openexp._canvas.legacy.legacy object at 0x047E7290>","<openexp._canvas.legacy.legacy object at 0x048DF9D0>","<openexp._canvas.legacy.legacy object at 0x048B14B0>","<openexp._canvas.legacy.legacy object at 0x047F96D0>","<openexp._canvas.legacy.legacy object at 0x048B29F0>","75","IndividualPriorityWithDis_v1.osexp","C:/Userdata/Michel/SpatialProb/IndividualPriorityMaps/Experiment2","no","mono","no","18","no","white","no","yes","0.09","98","1050","legacy","45","9","9","1","C:/Userdata/Michel/SpatialProb/IndividualPriorityMaps/Experiment2/data/subject-25.csv","legacy","9","192","25","Jazzy James","3.1.3","yes","598477b2b83f69022949e7e9","47","red","circular","red","rectangular","0","\","1142","space","10661","10661","(80, 80, 80)","(0, 122, 0)","(179, 0, 0)","(155, 155, 155)","2","legacy","experiment","[0, 1, 2, 3, 4, 5, 6, 7]","\","2500","3000","0","8","252.758751519","1024","2","48000","-16","main","[(0, -252), (178, -178), (252, 0), (178, 178), (0, 252), (-178, 178), (-252, 0), (-178, -178)]","[]","25","odd","4","196171","219219","219219","122474","121467","1599","140062","140062","1599","1599","133135","244766","1598","219219","243621","242858","242858","NA","757","study_X","0","10661","1","yes","1680"
"undefined","undefined","10661","10661","black","no","legacy","legacy","legacy","0","green","(0, 122, 0)","color","present","highProb","rectangular","swap","swap","same","same","red","(179, 0, 0)","lowProb","lowProb1","rectangular","uniform","1","undefined","0.0520833333333","1","1","49.875","1","10","9576","0","0","0","0","0","0","0","0","35","0","1","0.0520833333333","49.875","10","9576","35","35","35","08/25/17 10:11:11","Default description","yes","<openexp._canvas.legacy.legacy object at 0x047F27F0>","<openexp._canvas.legacy.legacy object at 0x047FD7B0>","<openexp._canvas.legacy.legacy object at 0x047E7290>","<openexp._canvas.legacy.legacy object at 0x048DF9D0>","<openexp._canvas.legacy.legacy object at 0x048B14B0>","<openexp._canvas.legacy.legacy object at 0x047E7790>","<openexp._canvas.legacy.legacy object at 0x048B29F0>","75","IndividualPriorityWithDis_v1.osexp","C:/Userdata/Michel/SpatialProb/IndividualPriorityMaps/Experiment2","no","mono","no","18","no","white","no","yes","0.09","98","1050","legacy","45","10","10","1","C:/Userdata/Michel/SpatialProb/IndividualPriorityMaps/Experiment2/data/subject-25.csv","legacy","9","192","25","Jazzy James","3.1.3","yes","598477b2b83f69022949e7e9","47","green","rectangular","red","rectangular","0","\","780","space","10661","10661","(80, 80, 80)","(0, 122, 0)","(179, 0, 0)","(155, 155, 155)","2","legacy","experiment","[0, 1, 2, 3, 4, 5, 6, 7]","\","2500","3000","0","8","252.758751519","1024","2","48000","-16","main","[(0, -252), (178, -178), (252, 0), (178, 178), (0, 252), (-178, 178), (-252, 0), (-178, -178)]","[]","25","odd","1","196171","219219","219219","122474","121467","1599","140062","140062","1599","1599","133135","246710","1598","219219","245927","245165","245165","NA","757","study_X","0","10661","1","yes","1680"
"undefined","undefined","10661","10661","black","no","legacy","legacy","legacy","0","green","(0, 122, 0)","color","present","highProb","rectangular","same","same","same","same","red","(179, 0, 0)","lowProb","lowProb6","rectangular","uniform","1","undefined","0.0572916666667","1","1","56.8020833333","1","11","10906","0","0","0","0","0","0","0","0","36","0","1","0.0572916666667","56.8020833333","11","10906","36","36","36","08/25/17 10:11:11","Default description","yes","<openexp._canvas.legacy.legacy object at 0x047F27F0>","<openexp._canvas.legacy.legacy object at 0x047FD7B0>","<openexp._canvas.legacy.legacy object at 0x047E7290>","<openexp._canvas.legacy.legacy object at 0x048DF9D0>","<openexp._canvas.legacy.legacy object at 0x048B14B0>","<openexp._canvas.legacy.legacy object at 0x047EEBF0>","<openexp._canvas.legacy.legacy object at 0x048B29F0>","75","IndividualPriorityWithDis_v1.osexp","C:/Userdata/Michel/SpatialProb/IndividualPriorityMaps/Experiment2","no","mono","no","18","no","white","no","yes","0.09","98","1050","legacy","315","11","11","1","C:/Userdata/Michel/SpatialProb/IndividualPriorityMaps/Experiment2/data/subject-25.csv","legacy","9","192","25","Jazzy James","3.1.3","yes","598477b2b83f69022949e7e9","47","green","rectangular","red","rectangular","0","/","1330","space","10661","10661","(80, 80, 80)","(0, 122, 0)","(179, 0, 0)","(155, 155, 155)","2","legacy","experiment","[0, 1, 2, 3, 4, 5, 6, 7]","/","2500","3000","0","8","252.758751519","1024","2","48000","-16","main","[(0, -252), (178, -178), (252, 0), (178, 178), (0, 252), (-178, 178), (-252, 0), (-178, -178)]","[]","25","odd","7","196171","219219","219219","122474","121467","1599","140062","140062","1599","1599","133135","249207","1598","219219","247874","247111","247111","NA","757","study_X","0","10661","1","yes","1680"
"undefined","undefined","10661","10661","black","no","legacy","legacy","legacy","0","red","(179, 0, 0)","color","present","highProb","circular","swap","swap","swap","swap","green","(0, 122, 0)","lowProb","lowProb6","circular","uniform","0","undefined","0.0572916666667","1","1","69.8229166667","1","11","13406","0","0","0","0","0","0","0","0","37","0","1","0.0572916666667","69.8229166667","11","13406","37","37","37","08/25/17 10:11:11","Default description","yes","<openexp._canvas.legacy.legacy object at 0x047F27F0>","<openexp._canvas.legacy.legacy object at 0x047FD7B0>","<openexp._canvas.legacy.legacy object at 0x047E7290>","<openexp._canvas.legacy.legacy object at 0x048DF9D0>","<openexp._canvas.legacy.legacy object at 0x048B14B0>","<openexp._canvas.legacy.legacy object at 0x048DFDD0>","<openexp._canvas.legacy.legacy object at 0x048B29F0>","75","IndividualPriorityWithDis_v1.osexp","C:/Userdata/Michel/SpatialProb/IndividualPriorityMaps/Experiment2","no","mono","no","18","no","white","no","yes","0.09","98","1050","legacy","315","12","12","1","C:/Userdata/Michel/SpatialProb/IndividualPriorityMaps/Experiment2/data/subject-25.csv","legacy","9","192","25","Jazzy James","3.1.3","yes","598477b2b83f69022949e7e9","47","red","circular","green","circular","0","None","2500","space","10661","10661","(80, 80, 80)","(0, 122, 0)","(179, 0, 0)","(155, 155, 155)","2","legacy","experiment","[0, 1, 2, 3, 4, 5, 6, 7]","/","2500","3000","0","8","252.758751519","1024","2","48000","-16","main","[(0, -252), (178, -178), (252, 0), (178, 178), (0, 252), (-178, 178), (-252, 0), (-178, -178)]","[]","25","odd","7","196171","219219","219219","122474","121467","1599","140062","140062","1599","1599","133135","252897","1598","219219","250394","249632","249632","NA","757","study_X","0","10661","1","yes","1680"
"undefined","undefined","10661","10661","black","no","legacy","legacy","legacy","0","green","(0, 122, 0)","color","present","lowProb6","circular","swap","same","swap","same","red","(179, 0, 0)","lowProb","lowProb3","circular","uniform","1","undefined","0.0625","1","1","74.9895833333","1","12","14398","0","0","0","0","0","0","0","0","38","0","1","0.0625","74.9895833333","12","14398","38","38","38","08/25/17 10:11:11","Default description","yes","<openexp._canvas.legacy.legacy object at 0x047F27F0>","<openexp._canvas.legacy.legacy object at 0x047FD7B0>","<openexp._canvas.legacy.legacy object at 0x047E7290>","<openexp._canvas.legacy.legacy object at 0x048DF9D0>","<openexp._canvas.legacy.legacy object at 0x048B14B0>","<openexp._canvas.legacy.legacy object at 0x047F2D30>","<openexp._canvas.legacy.legacy object at 0x048B29F0>","75","IndividualPriorityWithDis_v1.osexp","C:/Userdata/Michel/SpatialProb/IndividualPriorityMaps/Experiment2","no","mono","no","18","no","white","no","yes","0.09","98","1050","legacy","45","13","13","1","C:/Userdata/Michel/SpatialProb/IndividualPriorityMaps/Experiment2/data/subject-25.csv","legacy","9","192","25","Jazzy James","3.1.3","yes","598477b2b83f69022949e7e9","47","green","circular","red","circular","0","\","992","space","10661","10661","(80, 80, 80)","(0, 122, 0)","(179, 0, 0)","(155, 155, 155)","2","legacy","experiment","[0, 1, 2, 3, 4, 5, 6, 7]","\","2500","3000","0","8","252.758751519","1024","2","48000","-16","main","[(0, -252), (178, -178), (252, 0), (178, 178), (0, 252), (-178, 178), (-252, 0), (-178, -178)]","[]","25","odd","3","196171","219219","219219","122474","121467","1599","140062","140062","1599","1599","133135","255063","1598","219219","254067","253304","253304","NA","757","study_X","0","10661","1","yes","1680"
"undefined","undefined","10661","10661","black","no","legacy","legacy","legacy","0","red","(179, 0, 0)","shape","present","lowProb2","circular","swap","same","same","swap","red","(179, 0, 0)","lowProb","lowProb4","rectangular","uniform","1","undefined","0.0677083333333","1","1","79.2604166667","1","13","15218","0","0","0","0","0","0","0","0","39","0","1","0.0677083333333","79.2604166667","13","15218","39","39","39","08/25/17 10:11:11","Default description","yes","<openexp._canvas.legacy.legacy object at 0x047F27F0>","<openexp._canvas.legacy.legacy object at 0x047FD7B0>","<openexp._canvas.legacy.legacy object at 0x047E7290>","<openexp._canvas.legacy.legacy object at 0x048DF9D0>","<openexp._canvas.legacy.legacy object at 0x048B14B0>","<openexp._canvas.legacy.legacy object at 0x047EF110>","<openexp._canvas.legacy.legacy object at 0x048B29F0>","75","IndividualPriorityWithDis_v1.osexp","C:/Userdata/Michel/SpatialProb/IndividualPriorityMaps/Experiment2","no","mono","no","18","no","white","no","yes","0.09","98","1050","legacy","315","14","14","1","C:/Userdata/Michel/SpatialProb/IndividualPriorityMaps/Experiment2/data/subject-25.csv","legacy","9","192","25","Jazzy James","3.1.3","yes","598477b2b83f69022949e7e9","47","red","circular","red","rectangular","0","/","820","space","10661","10661","(80, 80, 80)","(0, 122, 0)","(179, 0, 0)","(155, 155, 155)","2","legacy","experiment","[0, 1, 2, 3, 4, 5, 6, 7]","/","2500","3000","0","8","252.758751519","1024","2","48000","-16","main","[(0, -252), (178, -178), (252, 0), (178, 178), (0, 252), (-178, 178), (-252, 0), (-178, -178)]","[]","25","odd","5","196171","219219","219219","122474","121467","1599","140062","140062","1599","1599","133135","257063","1598","219219","256239","255476","255476","NA","757","study_X","0","10661","1","yes","1680"
"undefined","undefined","10661","10661","black","no","legacy","legacy","legacy","0","red","(179, 0, 0)","shape","present","lowProb1","circular","same","same","same","same","red","(179, 0, 0)","lowProb","lowProb2","rectangular","uniform","1","undefined","0.0729166666667","1","1","85.5416666667","1","14","16424","0","0","0","0","0","0","0","0","40","0","1","0.0729166666667","85.5416666667","14","16424","40","40","40","08/25/17 10:11:11","Default description","yes","<openexp._canvas.legacy.legacy object at 0x047F27F0>","<openexp._canvas.legacy.legacy object at 0x047FD7B0>","<openexp._canvas.legacy.legacy object at 0x047E7290>","<openexp._canvas.legacy.legacy object at 0x048DF9D0>","<openexp._canvas.legacy.legacy object at 0x048B14B0>","<openexp._canvas.legacy.legacy object at 0x047EE7D0>","<openexp._canvas.legacy.legacy object at 0x048B29F0>","75","IndividualPriorityWithDis_v1.osexp","C:/Userdata/Michel/SpatialProb/IndividualPriorityMaps/Experiment2","no","mono","no","18","no","white","no","yes","0.09","98","1050","legacy","45","15","15","1","C:/Userdata/Michel/SpatialProb/IndividualPriorityMaps/Experiment2/data/subject-25.csv","legacy","9","192","25","Jazzy James","3.1.3","yes","598477b2b83f69022949e7e9","47","red","circular","red","rectangular","0","\","1206","space","10661","10661","(80, 80, 80)","(0, 122, 0)","(179, 0, 0)","(155, 155, 155)","2","legacy","experiment","[0, 1, 2, 3, 4, 5, 6, 7]","\","2500","3000","0","8","252.758751519","1024","2","48000","-16","main","[(0, -252), (178, -178), (252, 0), (178, 178), (0, 252), (-178, 178), (-252, 0), (-178, -178)]","[]","25","odd","2","196171","219219","219219","122474","121467","1599","140062","140062","1599","1599","133135","259430","1598","219219","258222","257460","257460","NA","757","study_X","0","10661","1","yes","1680"
"undefined","undefined","10661","10661","black","no","legacy","legacy","legacy","0","red","(179, 0, 0)","shape","present","highProb","circular","same","same","same","same","red","(179, 0, 0)","lowProb","lowProb5","rectangular","uniform","1","undefined","0.078125","1","1","90.5572916667","1","15","17387","0","0","0","0","0","0","0","0","41","0","1","0.078125","90.5572916667","15","17387","41","41","41","08/25/17 10:11:11","Default description","yes","<openexp._canvas.legacy.legacy object at 0x047F27F0>","<openexp._canvas.legacy.legacy object at 0x047FD7B0>","<openexp._canvas.legacy.legacy object at 0x047E7290>","<openexp._canvas.legacy.legacy object at 0x048DF9D0>","<openexp._canvas.legacy.legacy object at 0x048B14B0>","<openexp._canvas.legacy.legacy object at 0x047E7F90>","<openexp._canvas.legacy.legacy object at 0x048B29F0>","75","IndividualPriorityWithDis_v1.osexp","C:/Userdata/Michel/SpatialProb/IndividualPriorityMaps/Experiment2","no","mono","no","18","no","white","no","yes","0.09","98","1050","legacy","45","16","16","1","C:/Userdata/Michel/SpatialProb/IndividualPriorityMaps/Experiment2/data/subject-25.csv","legacy","9","192","25","Jazzy James","3.1.3","yes","598477b2b83f69022949e7e9","47","red","circular","red","rectangular","0","\","963","space","10661","10661","(80, 80, 80)","(0, 122, 0)","(179, 0, 0)","(155, 155, 155)","2","legacy","experiment","[0, 1, 2, 3, 4, 5, 6, 7]","\","2500","3000","0","8","252.758751519","1024","2","48000","-16","main","[(0, -252), (178, -178), (252, 0), (178, 178), (0, 252), (-178, 178), (-252, 0), (-178, -178)]","[]","25","odd","6","196171","219219","219219","122474","121467","1599","140062","140062","1599","1599","133135","261574","1598","219219","260608","259845","259846","NA","757","study_X","0","10661","1","yes","1680"
"undefined","undefined","10661","10661","black","no","legacy","legacy","legacy","0","green","(0, 122, 0)","shape","present","highProb","circular","swap","same","swap","same","green","(0, 122, 0)","highProbColor","highProbColor","rectangular","uniform","1","undefined","0.0833333333333","1","1","96.7447916667","1","16","18575","0","0","0","0","0","0","0","0","42","0","1","0.0833333333333","96.7447916667","16","18575","42","42","42","08/25/17 10:11:11","Default description","yes","<openexp._canvas.legacy.legacy object at 0x047F27F0>","<openexp._canvas.legacy.legacy object at 0x047FD7B0>","<openexp._canvas.legacy.legacy object at 0x047E7290>","<openexp._canvas.legacy.legacy object at 0x048DF9D0>","<openexp._canvas.legacy.legacy object at 0x048B14B0>","<openexp._canvas.legacy.legacy object at 0x047EFAF0>","<openexp._canvas.legacy.legacy object at 0x048B29F0>","75","IndividualPriorityWithDis_v1.osexp","C:/Userdata/Michel/SpatialProb/IndividualPriorityMaps/Experiment2","no","mono","no","18","no","white","no","yes","0.09","98","1050","legacy","315","17","17","1","C:/Userdata/Michel/SpatialProb/IndividualPriorityMaps/Experiment2/data/subject-25.csv","legacy","9","192","25","Jazzy James","3.1.3","yes","598477b2b83f69022949e7e9","47","green","circular","green","rectangular","0","/","1188","space","10661","10661","(80, 80, 80)","(0, 122, 0)","(179, 0, 0)","(155, 155, 155)","2","legacy","experiment","[0, 1, 2, 3, 4, 5, 6, 7]","/","2500","3000","0","8","252.758751519","1024","2","48000","-16","main","[(0, -252), (178, -178), (252, 0), (178, 178), (0, 252), (-178, 178), (-252, 0), (-178, -178)]","[]","25","odd","0","196171","219219","219219","122474","121467","1599","140062","140062","1599","1599","133135","263926","1598","219219","262735","261972","261973","NA","757","study_X","0","10661","1","yes","1680"
"undefined","undefined","10661","10661","black","no","legacy","legacy","legacy","0","red","(179, 0, 0)","shape","present","highProb","rectangular","swap","swap","swap","swap","red","(179, 0, 0)","highProbColor","highProbColor","circular","uniform","1","undefined","0.0885416666667","1","1","103.322916667","1","17","19838","0","0","0","0","0","0","0","0","43","0","1","0.0885416666667","103.322916667","17","19838","43","43","43","08/25/17 10:11:11","Default description","yes","<openexp._canvas.legacy.legacy object at 0x047F27F0>","<openexp._canvas.legacy.legacy object at 0x047FD7B0>","<openexp._canvas.legacy.legacy object at 0x047E7290>","<openexp._canvas.legacy.legacy object at 0x048DF9D0>","<openexp._canvas.legacy.legacy object at 0x048B14B0>","<openexp._canvas.legacy.legacy object at 0x047E7ED0>","<openexp._canvas.legacy.legacy object at 0x048B29F0>","75","IndividualPriorityWithDis_v1.osexp","C:/Userdata/Michel/SpatialProb/IndividualPriorityMaps/Experiment2","no","mono","no","18","no","white","no","yes","0.09","98","1050","legacy","45","18","18","1","C:/Userdata/Michel/SpatialProb/IndividualPriorityMaps/Experiment2/data/subject-25.csv","legacy","9","192","25","Jazzy James","3.1.3","yes","598477b2b83f69022949e7e9","47","red","rectangular","red","circular","0","\","1263","space","10661","10661","(80, 80, 80)","(0, 122, 0)","(179, 0, 0)","(155, 155, 155)","2","legacy","experiment","[0, 1, 2, 3, 4, 5, 6, 7]","\","2500","3000","0","8","252.758751519","1024","2","48000","-16","main","[(0, -252), (178, -178), (252, 0), (178, 178), (0, 252), (-178, 178), (-252, 0), (-178, -178)]","[]","25","odd","0","196171","219219","219219","122474","121467","1599","140062","140062","1599","1599","133135","266367","1598","219219","265101","264338","264338","NA","757","study_X","0","10661","1","yes","1680"
"undefined","undefined","10661","10661","black","no","legacy","legacy","legacy","0","green","(0, 122, 0)","shape","present","highProb","rectangular","swap","same","swap","same","green","(0, 122, 0)","lowProb","lowProb6","circular","uniform","0","undefined","0.0885416666667","1","1","112.125","1","17","21528","0","0","0","0","0","0","0","0","44","0","1","0.0885416666667","112.125","17","21528","44","44","44","08/25/17 10:11:11","Default description","yes","<openexp._canvas.legacy.legacy object at 0x047F27F0>","<openexp._canvas.legacy.legacy object at 0x047FD7B0>","<openexp._canvas.legacy.legacy object at 0x047E7290>","<openexp._canvas.legacy.legacy object at 0x048DF9D0>","<openexp._canvas.legacy.legacy object at 0x048B14B0>","<openexp._canvas.legacy.legacy object at 0x048E56D0>","<openexp._canvas.legacy.legacy object at 0x048B29F0>","75","IndividualPriorityWithDis_v1.osexp","C:/Userdata/Michel/SpatialProb/IndividualPriorityMaps/Experiment2","no","mono","no","18","no","white","no","yes","0.09","98","1050","legacy","315","19","19","1","C:/Userdata/Michel/SpatialProb/IndividualPriorityMaps/Experiment2/data/subject-25.csv","legacy","9","192","25","Jazzy James","3.1.3","yes","598477b2b83f69022949e7e9","47","green","rectangular","green","circular","0","\","1690","space","10661","10661","(80, 80, 80)","(0, 122, 0)","(179, 0, 0)","(155, 155, 155)","2","legacy","experiment","[0, 1, 2, 3, 4, 5, 6, 7]","/","2500","3000","0","8","252.758751519","1024","2","48000","-16","main","[(0, -252), (178, -178), (252, 0), (178, 178), (0, 252), (-178, 178), (-252, 0), (-178, -178)]","[]","25","odd","7","196171","219219","219219","122474","121467","1599","140062","140062","1599","1599","133135","269231","1598","219219","267537","266774","266774","NA","757","study_X","0","10661","1","yes","1680"
"undefined","undefined","10661","10661","black","no","legacy","legacy","legacy","0","green","(0, 122, 0)","color","present","lowProb3","rectangular","same","same","swap","swap","red","(179, 0, 0)","lowProb","lowProb5","rectangular","uniform","1","undefined","0.09375","1","1","117.989583333","1","18","22654","0","0","0","0","0","0","0","0","45","0","1","0.09375","117.989583333","18","22654","45","45","45","08/25/17 10:11:11","Default description","yes","<openexp._canvas.legacy.legacy object at 0x047F27F0>","<openexp._canvas.legacy.legacy object at 0x047FD7B0>","<openexp._canvas.legacy.legacy object at 0x047E7290>","<openexp._canvas.legacy.legacy object at 0x048DF9D0>","<openexp._canvas.legacy.legacy object at 0x048B14B0>","<openexp._canvas.legacy.legacy object at 0x047FDF70>","<openexp._canvas.legacy.legacy object at 0x048B29F0>","75","IndividualPriorityWithDis_v1.osexp","C:/Userdata/Michel/SpatialProb/IndividualPriorityMaps/Experiment2","no","mono","no","18","no","white","no","yes","0.09","98","1050","legacy","45","20","20","1","C:/Userdata/Michel/SpatialProb/IndividualPriorityMaps/Experiment2/data/subject-25.csv","legacy","9","192","25","Jazzy James","3.1.3","yes","598477b2b83f69022949e7e9","47","green","rectangular","red","rectangular","0","\","1126","space","10661","10661","(80, 80, 80)","(0, 122, 0)","(179, 0, 0)","(155, 155, 155)","2","legacy","experiment","[0, 1, 2, 3, 4, 5, 6, 7]","\","2500","3000","0","8","252.758751519","1024","2","48000","-16","main","[(0, -252), (178, -178), (252, 0), (178, 178), (0, 252), (-178, 178), (-252, 0), (-178, -178)]","[]","25","odd","6","196171","219219","219219","122474","121467","1599","140062","140062","1599","1599","133135","271527","1598","219219","270397","269634","269634","NA","757","study_X","0","10661","1","yes","1680"
"undefined","undefined","10661","10661","black","no","legacy","legacy","legacy","0","green","(0, 122, 0)","shape","absent","highProbOther","rectangular","same","same","swap","same","green","(0, 122, 0)","lowProb","lowProb6","rectangular","uniform","1","undefined","0.0989583333333","1","1","121.078125","1","19","23247","0","0","0","0","0","0","0","0","46","0","1","0.0989583333333","121.078125","19","23247","46","46","46","08/25/17 10:11:11","Default description","yes","<openexp._canvas.legacy.legacy object at 0x047F27F0>","<openexp._canvas.legacy.legacy object at 0x047FD7B0>","<openexp._canvas.legacy.legacy object at 0x047E7290>","<openexp._canvas.legacy.legacy object at 0x048DF9D0>","<openexp._canvas.legacy.legacy object at 0x048B14B0>","<openexp._canvas.legacy.legacy object at 0x047F9970>","<openexp._canvas.legacy.legacy object at 0x048B29F0>","75","IndividualPriorityWithDis_v1.osexp","C:/Userdata/Michel/SpatialProb/IndividualPriorityMaps/Experiment2","no","mono","no","18","no","white","no","yes","0.09","98","1050","legacy","45","21","21","1","C:/Userdata/Michel/SpatialProb/IndividualPriorityMaps/Experiment2/data/subject-25.csv","legacy","9","192","25","Jazzy James","3.1.3","yes","598477b2b83f69022949e7e9","47","green","rectangular","green","rectangular","0","\","593","space","10661","10661","(80, 80, 80)","(0, 122, 0)","(179, 0, 0)","(155, 155, 155)","2","legacy","experiment","[0, 1, 2, 3, 4, 5, 6, 7]","\","2500","3000","0","8","252.758751519","1024","2","48000","-16","main","[(0, -252), (178, -178), (252, 0), (178, 178), (0, 252), (-178, 178), (-252, 0), (-178, -178)]","[]","25","odd","7","196171","219219","219219","122474","121467","1599","140062","140062","1599","1599","133135","273279","1598","219219","272683","271920","271920","NA","757","study_X","0","10661","1","yes","1680"
"undefined","undefined","10661","10661","black","no","legacy","legacy","legacy","0","red","(179, 0, 0)","color","present","lowProb6","circular","swap","swap","same","swap","green","(0, 122, 0)","lowProb","lowProb2","circular","uniform","1","undefined","0.104166666667","1","1","125.489583333","1","20","24094","0","0","0","0","0","0","0","0","47","0","1","0.104166666667","125.489583333","20","24094","47","47","47","08/25/17 10:11:11","Default description","yes","<openexp._canvas.legacy.legacy object at 0x047F27F0>","<openexp._canvas.legacy.legacy object at 0x047FD7B0>","<openexp._canvas.legacy.legacy object at 0x047E7290>","<openexp._canvas.legacy.legacy object at 0x048DF9D0>","<openexp._canvas.legacy.legacy object at 0x048B14B0>","<openexp._canvas.legacy.legacy object at 0x048B2C30>","<openexp._canvas.legacy.legacy object at 0x048B29F0>","75","IndividualPriorityWithDis_v1.osexp","C:/Userdata/Michel/SpatialProb/IndividualPriorityMaps/Experiment2","no","mono","no","18","no","white","no","yes","0.09","98","1050","legacy","45","22","22","1","C:/Userdata/Michel/SpatialProb/IndividualPriorityMaps/Experiment2/data/subject-25.csv","legacy","9","192","25","Jazzy James","3.1.3","yes","598477b2b83f69022949e7e9","47","red","circular","green","circular","0","\","847","space","10661","10661","(80, 80, 80)","(0, 122, 0)","(179, 0, 0)","(155, 155, 155)","2","legacy","experiment","[0, 1, 2, 3, 4, 5, 6, 7]","\","2500","3000","0","8","252.758751519","1024","2","48000","-16","main","[(0, -252), (178, -178), (252, 0), (178, 178), (0, 252), (-178, 178), (-252, 0), (-178, -178)]","[]","25","odd","2","196171","219219","219219","122474","121467","1599","140062","140062","1599","1599","133135","275294","1598","219219","274444","273681","273681","NA","757","study_X","0","10661","1","yes","1680"
"undefined","undefined","10661","10661","black","no","legacy","legacy","legacy","0","green","(0, 122, 0)","color","present","highProb","rectangular","swap","swap","swap","swap","red","(179, 0, 0)","highProbShape","highProbShape","rectangular","uniform","1","undefined","0.109375","1","1","128.895833333","1","21","24748","0","0","0","0","0","0","0","0","48","0","1","0.109375","128.895833333","21","24748","48","48","48","08/25/17 10:11:11","Default description","yes","<openexp._canvas.legacy.legacy object at 0x047F27F0>","<openexp._canvas.legacy.legacy object at 0x047FD7B0>","<openexp._canvas.legacy.legacy object at 0x047E7290>","<openexp._canvas.legacy.legacy object at 0x048DF9D0>","<openexp._canvas.legacy.legacy object at 0x048B14B0>","<openexp._canvas.legacy.legacy object at 0x048E5D90>","<openexp._canvas.legacy.legacy object at 0x048B29F0>","75","IndividualPriorityWithDis_v1.osexp","C:/Userdata/Michel/SpatialProb/IndividualPriorityMaps/Experiment2","no","mono","no","18","no","white","no","yes","0.09","98","1050","legacy","315","23","23","1","C:/Userdata/Michel/SpatialProb/IndividualPriorityMaps/Experiment2/data/subject-25.csv","legacy","9","192","25","Jazzy James","3.1.3","yes","598477b2b83f69022949e7e9","47","green","rectangular","red","rectangular","0","/","654","space","10661","10661","(80, 80, 80)","(0, 122, 0)","(179, 0, 0)","(155, 155, 155)","2","legacy","experiment","[0, 1, 2, 3, 4, 5, 6, 7]","/","2500","3000","0","8","252.758751519","1024","2","48000","-16","main","[(0, -252), (178, -178), (252, 0), (178, 178), (0, 252), (-178, 178), (-252, 0), (-178, -178)]","[]","25","odd","4","196171","219219","219219","122474","121467","1599","140062","140062","1599","1599","133135","277118","1598","219219","276461","275698","275698","NA","757","study_X","0","10661","1","yes","1680"
"undefined","undefined","10661","10661","black","no","legacy","legacy","legacy","0","red","(179, 0, 0)","color","present","highProb","rectangular","swap","same","swap","same","green","(0, 122, 0)","highProbShape","highProbShape","rectangular","uniform","0","undefined","0.109375","1","1","131.833333333","1","21","25312","0","0","0","0","0","0","0","0","49","0","1","0.109375","131.833333333","21","25312","49","49","49","08/25/17 10:11:11","Default description","yes","<openexp._canvas.legacy.legacy object at 0x047F27F0>","<openexp._canvas.legacy.legacy object at 0x047FD7B0>","<openexp._canvas.legacy.legacy object at 0x047E7290>","<openexp._canvas.legacy.legacy object at 0x048DF9D0>","<openexp._canvas.legacy.legacy object at 0x048B14B0>","<openexp._canvas.legacy.legacy object at 0x047FD3B0>","<openexp._canvas.legacy.legacy object at 0x048B29F0>","75","IndividualPriorityWithDis_v1.osexp","C:/Userdata/Michel/SpatialProb/IndividualPriorityMaps/Experiment2","no","mono","no","18","no","white","no","yes","0.09","98","1050","legacy","45","24","24","1","C:/Userdata/Michel/SpatialProb/IndividualPriorityMaps/Experiment2/data/subject-25.csv","legacy","9","192","25","Jazzy James","3.1.3","yes","598477b2b83f69022949e7e9","47","red","rectangular","green","rectangular","0","/","564","space","10661","10661","(80, 80, 80)","(0, 122, 0)","(179, 0, 0)","(155, 155, 155)","2","legacy","experiment","[0, 1, 2, 3, 4, 5, 6, 7]","\","2500","3000","0","8","252.758751519","1024","2","48000","-16","main","[(0, -252), (178, -178), (252, 0), (178, 178), (0, 252), (-178, 178), (-252, 0), (-178, -178)]","[]","25","odd","4","196171","219219","219219","122474","121467","1599","140062","140062","1599","1599","133135","278878","1598","219219","278311","277548","277548","NA","757","study_X","0","10661","1","yes","1680"
"undefined","undefined","10661","10661","black","no","legacy","legacy","legacy","0","green","(0, 122, 0)","shape","present","lowProb4","rectangular","swap","same","same","swap","green","(0, 122, 0)","lowProb","lowProb1","circular","uniform","1","undefined","0.114583333333","1","1","138.385416667","1","22","26570","0","0","0","0","0","0","0","0","50","0","1","0.114583333333","138.385416667","22","26570","50","50","50","08/25/17 10:11:11","Default description","yes","<openexp._canvas.legacy.legacy object at 0x047F27F0>","<openexp._canvas.legacy.legacy object at 0x047FD7B0>","<openexp._canvas.legacy.legacy object at 0x047E7290>","<openexp._canvas.legacy.legacy object at 0x048DF9D0>","<openexp._canvas.legacy.legacy object at 0x048B14B0>","<openexp._canvas.legacy.legacy object at 0x048DFCF0>","<openexp._canvas.legacy.legacy object at 0x048B29F0>","75","IndividualPriorityWithDis_v1.osexp","C:/Userdata/Michel/SpatialProb/IndividualPriorityMaps/Experiment2","no","mono","no","18","no","white","no","yes","0.09","98","1050","legacy","45","25","25","1","C:/Userdata/Michel/SpatialProb/IndividualPriorityMaps/Experiment2/data/subject-25.csv","legacy","9","192","25","Jazzy James","3.1.3","yes","598477b2b83f69022949e7e9","47","green","rectangular","green","circular","0","\","1258","space","10661","10661","(80, 80, 80)","(0, 122, 0)","(179, 0, 0)","(155, 155, 155)","2","legacy","experiment","[0, 1, 2, 3, 4, 5, 6, 7]","\","2500","3000","0","8","252.758751519","1024","2","48000","-16","main","[(0, -252), (178, -178), (252, 0), (178, 178), (0, 252), (-178, 178), (-252, 0), (-178, -178)]","[]","25","odd","1","196171","219219","219219","122474","121467","1599","140062","140062","1599","1599","133135","281310","1598","219219","280049","279286","279287","NA","757","study_X","0","10661","1","yes","1680"
"undefined","undefined","10661","10661","black","no","legacy","legacy","legacy","0","red","(179, 0, 0)","color","present","highProb","rectangular","swap","same","same","swap","green","(0, 122, 0)","lowProb","lowProb2","rectangular","uniform","1","undefined","0.119791666667","1","1","141.708333333","1","23","27208","0","0","0","0","0","0","0","0","51","0","1","0.119791666667","141.708333333","23","27208","51","51","51","08/25/17 10:11:11","Default description","yes","<openexp._canvas.legacy.legacy object at 0x047F27F0>","<openexp._canvas.legacy.legacy object at 0x047FD7B0>","<openexp._canvas.legacy.legacy object at 0x047E7290>","<openexp._canvas.legacy.legacy object at 0x048DF9D0>","<openexp._canvas.legacy.legacy object at 0x048B14B0>","<openexp._canvas.legacy.legacy object at 0x047FD1F0>","<openexp._canvas.legacy.legacy object at 0x048B29F0>","75","IndividualPriorityWithDis_v1.osexp","C:/Userdata/Michel/SpatialProb/IndividualPriorityMaps/Experiment2","no","mono","no","18","no","white","no","yes","0.09","98","1050","legacy","315","26","26","1","C:/Userdata/Michel/SpatialProb/IndividualPriorityMaps/Experiment2/data/subject-25.csv","legacy","9","192","25","Jazzy James","3.1.3","yes","598477b2b83f69022949e7e9","47","red","rectangular","green","rectangular","0","/","638","space","10661","10661","(80, 80, 80)","(0, 122, 0)","(179, 0, 0)","(155, 155, 155)","2","legacy","experiment","[0, 1, 2, 3, 4, 5, 6, 7]","/","2500","3000","0","8","252.758751519","1024","2","48000","-16","main","[(0, -252), (178, -178), (252, 0), (178, 178), (0, 252), (-178, 178), (-252, 0), (-178, -178)]","[]","25","odd","2","196171","219219","219219","122474","121467","1599","140062","140062","1599","1599","133135","283126","1598","219219","282485","281723","281723","NA","757","study_X","0","10661","1","yes","1680"
"undefined","undefined","10661","10661","black","no","legacy","legacy","legacy","0","green","(0, 122, 0)","shape","present","highProb","circular","swap","swap","same","same","green","(0, 122, 0)","lowProb","lowProb4","rectangular","uniform","1","undefined","0.125","1","1","145.760416667","1","24","27986","0","0","0","0","0","0","0","0","52","0","1","0.125","145.760416667","24","27986","52","52","52","08/25/17 10:11:11","Default description","yes","<openexp._canvas.legacy.legacy object at 0x047F27F0>","<openexp._canvas.legacy.legacy object at 0x047FD7B0>","<openexp._canvas.legacy.legacy object at 0x047E7290>","<openexp._canvas.legacy.legacy object at 0x048DF9D0>","<openexp._canvas.legacy.legacy object at 0x048B14B0>","<openexp._canvas.legacy.legacy object at 0x047F92B0>","<openexp._canvas.legacy.legacy object at 0x048B29F0>","75","IndividualPriorityWithDis_v1.osexp","C:/Userdata/Michel/SpatialProb/IndividualPriorityMaps/Experiment2","no","mono","no","18","no","white","no","yes","0.09","98","1050","legacy","45","27","27","1","C:/Userdata/Michel/SpatialProb/IndividualPriorityMaps/Experiment2/data/subject-25.csv","legacy","9","192","25","Jazzy James","3.1.3","yes","598477b2b83f69022949e7e9","47","green","circular","green","rectangular","0","\","778","space","10661","10661","(80, 80, 80)","(0, 122, 0)","(179, 0, 0)","(155, 155, 155)","2","legacy","experiment","[0, 1, 2, 3, 4, 5, 6, 7]","\","2500","3000","0","8","252.758751519","1024","2","48000","-16","main","[(0, -252), (178, -178), (252, 0), (178, 178), (0, 252), (-178, 178), (-252, 0), (-178, -178)]","[]","25","odd","5","196171","219219","219219","122474","121467","1599","140062","140062","1599","1599","133135","285071","1598","219219","284289","283526","283526","NA","757","study_X","0","10661","1","yes","1680"
"undefined","undefined","10661","10661","black","no","legacy","legacy","legacy","0","green","(0, 122, 0)","color","present","highProb","rectangular","same","swap","swap","same","red","(179, 0, 0)","lowProb","lowProb6","rectangular","uniform","1","undefined","0.130208333333","1","1","151.151041667","1","25","29021","0","0","0","0","0","0","0","0","53","0","1","0.130208333333","151.151041667","25","29021","53","53","53","08/25/17 10:11:11","Default description","yes","<openexp._canvas.legacy.legacy object at 0x047F27F0>","<openexp._canvas.legacy.legacy object at 0x047FD7B0>","<openexp._canvas.legacy.legacy object at 0x047E7290>","<openexp._canvas.legacy.legacy object at 0x048DF9D0>","<openexp._canvas.legacy.legacy object at 0x048B14B0>","<openexp._canvas.legacy.legacy object at 0x047FD2D0>","<openexp._canvas.legacy.legacy object at 0x048B29F0>","75","IndividualPriorityWithDis_v1.osexp","C:/Userdata/Michel/SpatialProb/IndividualPriorityMaps/Experiment2","no","mono","no","18","no","white","no","yes","0.09","98","1050","legacy","45","28","28","1","C:/Userdata/Michel/SpatialProb/IndividualPriorityMaps/Experiment2/data/subject-25.csv","legacy","9","192","25","Jazzy James","3.1.3","yes","598477b2b83f69022949e7e9","47","green","rectangular","red","rectangular","0","\","1035","space","10661","10661","(80, 80, 80)","(0, 122, 0)","(179, 0, 0)","(155, 155, 155)","2","legacy","experiment","[0, 1, 2, 3, 4, 5, 6, 7]","\","2500","3000","0","8","252.758751519","1024","2","48000","-16","main","[(0, -252), (178, -178), (252, 0), (178, 178), (0, 252), (-178, 178), (-252, 0), (-178, -178)]","[]","25","odd","7","196171","219219","219219","122474","121467","1599","140062","140062","1599","1599","133135","287271","1598","219219","286232","285470","285470","NA","757","study_X","0","10661","1","yes","1680"
"undefined","undefined","10661","10661","black","no","legacy","legacy","legacy","0","green","(0, 122, 0)","color","present","highProb","rectangular","same","same","same","same","red","(179, 0, 0)","lowProb","lowProb4","rectangular","uniform","1","undefined","0.135416666667","1","1","154.078125","1","26","29583","0","0","0","0","0","0","0","0","54","0","1","0.135416666667","154.078125","26","29583","54","54","54","08/25/17 10:11:11","Default description","yes","<openexp._canvas.legacy.legacy object at 0x047F27F0>","<openexp._canvas.legacy.legacy object at 0x047FD7B0>","<openexp._canvas.legacy.legacy object at 0x047E7290>","<openexp._canvas.legacy.legacy object at 0x048DF9D0>","<openexp._canvas.legacy.legacy object at 0x048B14B0>","<openexp._canvas.legacy.legacy object at 0x04802E70>","<openexp._canvas.legacy.legacy object at 0x048B29F0>","75","IndividualPriorityWithDis_v1.osexp","C:/Userdata/Michel/SpatialProb/IndividualPriorityMaps/Experiment2","no","mono","no","18","no","white","no","yes","0.09","98","1050","legacy","315","29","29","1","C:/Userdata/Michel/SpatialProb/IndividualPriorityMaps/Experiment2/data/subject-25.csv","legacy","9","192","25","Jazzy James","3.1.3","yes","598477b2b83f69022949e7e9","47","green","rectangular","red","rectangular","0","/","562","space","10661","10661","(80, 80, 80)","(0, 122, 0)","(179, 0, 0)","(155, 155, 155)","2","legacy","experiment","[0, 1, 2, 3, 4, 5, 6, 7]","/","2500","3000","0","8","252.758751519","1024","2","48000","-16","main","[(0, -252), (178, -178), (252, 0), (178, 178), (0, 252), (-178, 178), (-252, 0), (-178, -178)]","[]","25","odd","5","196171","219219","219219","122474","121467","1599","140062","140062","1599","1599","133135","289014","1598","219219","288449","287686","287686","NA","757","study_X","0","10661","1","yes","1680"
"undefined","undefined","10661","10661","black","no","legacy","legacy","legacy","0","green","(0, 122, 0)","color","present","highProb","rectangular","same","same","same","same","red","(179, 0, 0)","lowProb","lowProb4","rectangular","uniform","1","undefined","0.140625","1","1","156.661458333","1","27","30079","0","0","0","0","0","0","0","0","55","0","1","0.140625","156.661458333","27","30079","55","55","55","08/25/17 10:11:11","Default description","yes","<openexp._canvas.legacy.legacy object at 0x047F27F0>","<openexp._canvas.legacy.legacy object at 0x047FD7B0>","<openexp._canvas.legacy.legacy object at 0x047E7290>","<openexp._canvas.legacy.legacy object at 0x048DF9D0>","<openexp._canvas.legacy.legacy object at 0x048B14B0>","<openexp._canvas.legacy.legacy object at 0x047FDDD0>","<openexp._canvas.legacy.legacy object at 0x048B29F0>","75","IndividualPriorityWithDis_v1.osexp","C:/Userdata/Michel/SpatialProb/IndividualPriorityMaps/Experiment2","no","mono","no","18","no","white","no","yes","0.09","98","1050","legacy","315","30","30","1","C:/Userdata/Michel/SpatialProb/IndividualPriorityMaps/Experiment2/data/subject-25.csv","legacy","9","192","25","Jazzy James","3.1.3","yes","598477b2b83f69022949e7e9","47","green","rectangular","red","rectangular","0","/","496","space","10661","10661","(80, 80, 80)","(0, 122, 0)","(179, 0, 0)","(155, 155, 155)","2","legacy","experiment","[0, 1, 2, 3, 4, 5, 6, 7]","/","2500","3000","0","8","252.758751519","1024","2","48000","-16","main","[(0, -252), (178, -178), (252, 0), (178, 178), (0, 252), (-178, 178), (-252, 0), (-178, -178)]","[]","25","odd","5","196171","219219","219219","122474","121467","1599","140062","140062","1599","1599","133135","290678","1598","219219","290179","289416","289416","NA","757","study_X","0","10661","1","yes","1680"
"undefined","undefined","10661","10661","black","no","legacy","legacy","legacy","0","red","(179, 0, 0)","shape","present","highProb","circular","swap","swap","same","same","red","(179, 0, 0)","lowProb","lowProb5","rectangular","uniform","1","undefined","0.145833333333","1","1","161.020833333","1","28","30916","0","0","0","0","0","0","0","0","56","0","1","0.145833333333","161.020833333","28","30916","56","56","56","08/25/17 10:11:11","Default description","yes","<openexp._canvas.legacy.legacy object at 0x047F27F0>","<openexp._canvas.legacy.legacy object at 0x047FD7B0>","<openexp._canvas.legacy.legacy object at 0x047E7290>","<openexp._canvas.legacy.legacy object at 0x048DF9D0>","<openexp._canvas.legacy.legacy object at 0x048B14B0>","<openexp._canvas.legacy.legacy object at 0x048E5930>","<openexp._canvas.legacy.legacy object at 0x048B29F0>","75","IndividualPriorityWithDis_v1.osexp","C:/Userdata/Michel/SpatialProb/IndividualPriorityMaps/Experiment2","no","mono","no","18","no","white","no","yes","0.09","98","1050","legacy","315","31","31","1","C:/Userdata/Michel/SpatialProb/IndividualPriorityMaps/Experiment2/data/subject-25.csv","legacy","9","192","25","Jazzy James","3.1.3","yes","598477b2b83f69022949e7e9","47","red","circular","red","rectangular","0","/","837","space","10661","10661","(80, 80, 80)","(0, 122, 0)","(179, 0, 0)","(155, 155, 155)","2","legacy","experiment","[0, 1, 2, 3, 4, 5, 6, 7]","/","2500","3000","0","8","252.758751519","1024","2","48000","-16","main","[(0, -252), (178, -178), (252, 0), (178, 178), (0, 252), (-178, 178), (-252, 0), (-178, -178)]","[]","25","odd","6","196171","219219","219219","122474","121467","1599","140062","140062","1599","1599","133135","292678","1598","219219","291838","291075","291075","NA","757","study_X","0","10661","1","yes","1680"
"undefined","undefined","10661","10661","black","no","legacy","legacy","legacy","0","red","(179, 0, 0)","shape","present","highProb","circular","same","same","same","same","red","(179, 0, 0)","lowProb","lowProb1","rectangular","uniform","1","undefined","0.151041666667","1","1","166.328125","1","29","31935","0","0","0","0","0","0","0","0","57","0","1","0.151041666667","166.328125","29","31935","57","57","57","08/25/17 10:11:11","Default description","yes","<openexp._canvas.legacy.legacy object at 0x047F27F0>","<openexp._canvas.legacy.legacy object at 0x047FD7B0>","<openexp._canvas.legacy.legacy object at 0x047E7290>","<openexp._canvas.legacy.legacy object at 0x048DF9D0>","<openexp._canvas.legacy.legacy object at 0x048B14B0>","<openexp._canvas.legacy.legacy object at 0x047F40D0>","<openexp._canvas.legacy.legacy object at 0x048B29F0>","75","IndividualPriorityWithDis_v1.osexp","C:/Userdata/Michel/SpatialProb/IndividualPriorityMaps/Experiment2","no","mono","no","18","no","white","no","yes","0.09","98","1050","legacy","45","32","32","1","C:/Userdata/Michel/SpatialProb/IndividualPriorityMaps/Experiment2/data/subject-25.csv","legacy","9","192","25","Jazzy James","3.1.3","yes","598477b2b83f69022949e7e9","47","red","circular","red","rectangular","0","\","1019","space","10661","10661","(80, 80, 80)","(0, 122, 0)","(179, 0, 0)","(155, 155, 155)","2","legacy","experiment","[0, 1, 2, 3, 4, 5, 6, 7]","\","2500","3000","0","8","252.758751519","1024","2","48000","-16","main","[(0, -252), (178, -178), (252, 0), (178, 178), (0, 252), (-178, 178), (-252, 0), (-178, -178)]","[]","25","odd","1","196171","219219","219219","122474","121467","1599","140062","140062","1599","1599","133135","294878","1598","219219","293856","293094","293094","NA","757","study_X","0","10661","1","yes","1680"
"undefined","undefined","10661","10661","black","no","legacy","legacy","legacy","0","green","(0, 122, 0)","color","present","highProb","circular","swap","same","same","swap","red","(179, 0, 0)","lowProb","lowProb6","circular","uniform","1","undefined","0.15625","1","1","173.578125","1","30","33327","0","0","0","0","0","0","0","0","58","0","1","0.15625","173.578125","30","33327","58","58","58","08/25/17 10:11:11","Default description","yes","<openexp._canvas.legacy.legacy object at 0x047F27F0>","<openexp._canvas.legacy.legacy object at 0x047FD7B0>","<openexp._canvas.legacy.legacy object at 0x047E7290>","<openexp._canvas.legacy.legacy object at 0x048DF9D0>","<openexp._canvas.legacy.legacy object at 0x048B14B0>","<openexp._canvas.legacy.legacy object at 0x04809210>","<openexp._canvas.legacy.legacy object at 0x048B29F0>","75","IndividualPriorityWithDis_v1.osexp","C:/Userdata/Michel/SpatialProb/IndividualPriorityMaps/Experiment2","no","mono","no","18","no","white","no","yes","0.09","98","1050","legacy","45","33","33","1","C:/Userdata/Michel/SpatialProb/IndividualPriorityMaps/Experiment2/data/subject-25.csv","legacy","9","192","25","Jazzy James","3.1.3","yes","598477b2b83f69022949e7e9","47","green","circular","red","circular","0","\","1392","space","10661","10661","(80, 80, 80)","(0, 122, 0)","(179, 0, 0)","(155, 155, 155)","2","legacy","experiment","[0, 1, 2, 3, 4, 5, 6, 7]","\","2500","3000","0","8","252.758751519","1024","2","48000","-16","main","[(0, -252), (178, -178), (252, 0), (178, 178), (0, 252), (-178, 178), (-252, 0), (-178, -178)]","[]","25","odd","7","196171","219219","219219","122474","121467","1599","140062","140062","1599","1599","133135","297446","1598","219219","296051","295288","295288","NA","757","study_X","0","10661","1","yes","1680"
"undefined","undefined","10661","10661","black","no","legacy","legacy","legacy","0","red","(179, 0, 0)","color","absent","lowProb5","circular","swap","same","same","same","red","(179, 0, 0)","lowProb","lowProb6","circular","uniform","1","undefined","0.161458333333","1","1","177.447916667","1","31","34070","0","0","0","0","0","0","0","0","59","0","1","0.161458333333","177.447916667","31","34070","59","59","59","08/25/17 10:11:11","Default description","yes","<openexp._canvas.legacy.legacy object at 0x047F27F0>","<openexp._canvas.legacy.legacy object at 0x047FD7B0>","<openexp._canvas.legacy.legacy object at 0x047E7290>","<openexp._canvas.legacy.legacy object at 0x048DF9D0>","<openexp._canvas.legacy.legacy object at 0x048B14B0>","<openexp._canvas.legacy.legacy object at 0x048DF9F0>","<openexp._canvas.legacy.legacy object at 0x048B29F0>","75","IndividualPriorityWithDis_v1.osexp","C:/Userdata/Michel/SpatialProb/IndividualPriorityMaps/Experiment2","no","mono","no","18","no","white","no","yes","0.09","98","1050","legacy","45","34","34","1","C:/Userdata/Michel/SpatialProb/IndividualPriorityMaps/Experiment2/data/subject-25.csv","legacy","9","192","25","Jazzy James","3.1.3","yes","598477b2b83f69022949e7e9","47","red","circular","red","circular","0","\","743","space","10661","10661","(80, 80, 80)","(0, 122, 0)","(179, 0, 0)","(155, 155, 155)","2","legacy","experiment","[0, 1, 2, 3, 4, 5, 6, 7]","\","2500","3000","0","8","252.758751519","1024","2","48000","-16","main","[(0, -252), (178, -178), (252, 0), (178, 178), (0, 252), (-178, 178), (-252, 0), (-178, -178)]","[]","25","odd","7","196171","219219","219219","122474","121467","1599","140062","140062","1599","1599","133135","299358","1598","219219","298611","297848","297848","NA","757","study_X","0","10661","1","yes","1680"
"undefined","undefined","10661","10661","black","no","legacy","legacy","legacy","0","green","(0, 122, 0)","color","present","lowProb4","rectangular","swap","swap","same","swap","red","(179, 0, 0)","lowProb","lowProb6","rectangular","uniform","0","undefined","0.161458333333","1","1","181.041666667","1","31","34760","0","0","0","0","0","0","0","0","60","0","1","0.161458333333","181.041666667","31","34760","60","60","60","08/25/17 10:11:11","Default description","yes","<openexp._canvas.legacy.legacy object at 0x047F27F0>","<openexp._canvas.legacy.legacy object at 0x047FD7B0>","<openexp._canvas.legacy.legacy object at 0x047E7290>","<openexp._canvas.legacy.legacy object at 0x048DF9D0>","<openexp._canvas.legacy.legacy object at 0x048B14B0>","<openexp._canvas.legacy.legacy object at 0x048E5C90>","<openexp._canvas.legacy.legacy object at 0x048B29F0>","75","IndividualPriorityWithDis_v1.osexp","C:/Userdata/Michel/SpatialProb/IndividualPriorityMaps/Experiment2","no","mono","no","18","no","white","no","yes","0.09","98","1050","legacy","315","35","35","1","C:/Userdata/Michel/SpatialProb/IndividualPriorityMaps/Experiment2/data/subject-25.csv","legacy","9","192","25","Jazzy James","3.1.3","yes","598477b2b83f69022949e7e9","47","green","rectangular","red","rectangular","0","\","690","space","10661","10661","(80, 80, 80)","(0, 122, 0)","(179, 0, 0)","(155, 155, 155)","2","legacy","experiment","[0, 1, 2, 3, 4, 5, 6, 7]","/","2500","3000","0","8","252.758751519","1024","2","48000","-16","main","[(0, -252), (178, -178), (252, 0), (178, 178), (0, 252), (-178, 178), (-252, 0), (-178, -178)]","[]","25","odd","7","196171","219219","219219","122474","121467","1599","140062","140062","1599","1599","133135","301215","1598","219219","300521","299758","299758","NA","757","study_X","0","10661","1","yes","1680"
"undefined","undefined","10661","10661","black","no","legacy","legacy","legacy","0","red","(179, 0, 0)","color","absent","lowProb3","rectangular","swap","same","same","same","red","(179, 0, 0)","lowProb","lowProb2","rectangular","uniform","1","undefined","0.166666666667","1","1","185.234375","1","32","35565","0","0","0","0","0","0","0","0","61","0","1","0.166666666667","185.234375","32","35565","61","61","61","08/25/17 10:11:11","Default description","yes","<openexp._canvas.legacy.legacy object at 0x047F27F0>","<openexp._canvas.legacy.legacy object at 0x047FD7B0>","<openexp._canvas.legacy.legacy object at 0x047E7290>","<openexp._canvas.legacy.legacy object at 0x048DF9D0>","<openexp._canvas.legacy.legacy object at 0x048B14B0>","<openexp._canvas.legacy.legacy object at 0x048B2DB0>","<openexp._canvas.legacy.legacy object at 0x048B29F0>","75","IndividualPriorityWithDis_v1.osexp","C:/Userdata/Michel/SpatialProb/IndividualPriorityMaps/Experiment2","no","mono","no","18","no","white","no","yes","0.09","98","1050","legacy","45","36","36","1","C:/Userdata/Michel/SpatialProb/IndividualPriorityMaps/Experiment2/data/subject-25.csv","legacy","9","192","25","Jazzy James","3.1.3","yes","598477b2b83f69022949e7e9","47","red","rectangular","red","rectangular","0","\","805","space","10661","10661","(80, 80, 80)","(0, 122, 0)","(179, 0, 0)","(155, 155, 155)","2","legacy","experiment","[0, 1, 2, 3, 4, 5, 6, 7]","\","2500","3000","0","8","252.758751519","1024","2","48000","-16","main","[(0, -252), (178, -178), (252, 0), (178, 178), (0, 252), (-178, 178), (-252, 0), (-178, -178)]","[]","25","odd","2","196171","219219","219219","122474","121467","1599","140062","140062","1599","1599","133135","303191","1598","219219","302382","301619","301619","NA","757","study_X","0","10661","1","yes","1680"
"undefined","undefined","10661","10661","black","no","legacy","legacy","legacy","0","green","(0, 122, 0)","color","present","highProb","rectangular","swap","same","same","same","red","(179, 0, 0)","lowProb","lowProb6","rectangular","uniform","1","undefined","0.171875","1","1","190.427083333","1","33","36562","0","0","0","0","0","0","0","0","62","0","1","0.171875","190.427083333","33","36562","62","62","62","08/25/17 10:11:11","Default description","yes","<openexp._canvas.legacy.legacy object at 0x047F27F0>","<openexp._canvas.legacy.legacy object at 0x047FD7B0>","<openexp._canvas.legacy.legacy object at 0x047E7290>","<openexp._canvas.legacy.legacy object at 0x048DF9D0>","<openexp._canvas.legacy.legacy object at 0x048B14B0>","<openexp._canvas.legacy.legacy object at 0x047FD970>","<openexp._canvas.legacy.legacy object at 0x048B29F0>","75","IndividualPriorityWithDis_v1.osexp","C:/Userdata/Michel/SpatialProb/IndividualPriorityMaps/Experiment2","no","mono","no","18","no","white","no","yes","0.09","98","1050","legacy","45","37","37","1","C:/Userdata/Michel/SpatialProb/IndividualPriorityMaps/Experiment2/data/subject-25.csv","legacy","9","192","25","Jazzy James","3.1.3","yes","598477b2b83f69022949e7e9","47","green","rectangular","red","rectangular","0","\","997","space","10661","10661","(80, 80, 80)","(0, 122, 0)","(179, 0, 0)","(155, 155, 155)","2","legacy","experiment","[0, 1, 2, 3, 4, 5, 6, 7]","\","2500","3000","0","8","252.758751519","1024","2","48000","-16","main","[(0, -252), (178, -178), (252, 0), (178, 178), (0, 252), (-178, 178), (-252, 0), (-178, -178)]","[]","25","odd","7","196171","219219","219219","122474","121467","1599","140062","140062","1599","1599","133135","305350","1598","219219","304350","303587","303588","NA","757","study_X","0","10661","1","yes","1680"
"undefined","undefined","10661","10661","black","no","legacy","legacy","legacy","0","red","(179, 0, 0)","shape","present","highProbOther","circular","swap","swap","same","same","red","(179, 0, 0)","lowProb","lowProb6","rectangular","uniform","1","undefined","0.177083333333","1","1","193.583333333","1","34","37168","0","0","0","0","0","0","0","0","63","0","1","0.177083333333","193.583333333","34","37168","63","63","63","08/25/17 10:11:11","Default description","yes","<openexp._canvas.legacy.legacy object at 0x047F27F0>","<openexp._canvas.legacy.legacy object at 0x047FD7B0>","<openexp._canvas.legacy.legacy object at 0x047E7290>","<openexp._canvas.legacy.legacy object at 0x048DF9D0>","<openexp._canvas.legacy.legacy object at 0x048B14B0>","<openexp._canvas.legacy.legacy object at 0x048DBFD0>","<openexp._canvas.legacy.legacy object at 0x048B29F0>","75","IndividualPriorityWithDis_v1.osexp","C:/Userdata/Michel/SpatialProb/IndividualPriorityMaps/Experiment2","no","mono","no","18","no","white","no","yes","0.09","98","1050","legacy","45","38","38","1","C:/Userdata/Michel/SpatialProb/IndividualPriorityMaps/Experiment2/data/subject-25.csv","legacy","9","192","25","Jazzy James","3.1.3","yes","598477b2b83f69022949e7e9","47","red","circular","red","rectangular","0","\","606","space","10661","10661","(80, 80, 80)","(0, 122, 0)","(179, 0, 0)","(155, 155, 155)","2","legacy","experiment","[0, 1, 2, 3, 4, 5, 6, 7]","\","2500","3000","0","8","252.758751519","1024","2","48000","-16","main","[(0, -252), (178, -178), (252, 0), (178, 178), (0, 252), (-178, 178), (-252, 0), (-178, -178)]","[]","25","odd","7","196171","219219","219219","122474","121467","1599","140062","140062","1599","1599","133135","307150","1598","219219","306541","305778","305778","NA","757","study_X","0","10661","1","yes","1680"
"undefined","undefined","10661","10661","black","no","legacy","legacy","legacy","0","green","(0, 122, 0)","shape","present","highProb","circular","swap","same","swap","same","green","(0, 122, 0)","lowProb","lowProb2","rectangular","uniform","1","undefined","0.182291666667","1","1","199.130208333","1","35","38233","0","0","0","0","0","0","0","0","64","0","1","0.182291666667","199.130208333","35","38233","64","64","64","08/25/17 10:11:11","Default description","yes","<openexp._canvas.legacy.legacy object at 0x047F27F0>","<openexp._canvas.legacy.legacy object at 0x047FD7B0>","<openexp._canvas.legacy.legacy object at 0x047E7290>","<openexp._canvas.legacy.legacy object at 0x048DF9D0>","<openexp._canvas.legacy.legacy object at 0x048B14B0>","<openexp._canvas.legacy.legacy object at 0x04802970>","<openexp._canvas.legacy.legacy object at 0x048B29F0>","75","IndividualPriorityWithDis_v1.osexp","C:/Userdata/Michel/SpatialProb/IndividualPriorityMaps/Experiment2","no","mono","no","18","no","white","no","yes","0.09","98","1050","legacy","45","39","39","1","C:/Userdata/Michel/SpatialProb/IndividualPriorityMaps/Experiment2/data/subject-25.csv","legacy","9","192","25","Jazzy James","3.1.3","yes","598477b2b83f69022949e7e9","47","green","circular","green","rectangular","0","\","1065","space","10661","10661","(80, 80, 80)","(0, 122, 0)","(179, 0, 0)","(155, 155, 155)","2","legacy","experiment","[0, 1, 2, 3, 4, 5, 6, 7]","\","2500","3000","0","8","252.758751519","1024","2","48000","-16","main","[(0, -252), (178, -178), (252, 0), (178, 178), (0, 252), (-178, 178), (-252, 0), (-178, -178)]","[]","25","odd","2","196171","219219","219219","122474","121467","1599","140062","140062","1599","1599","133135","309382","1598","219219","308314","307551","307552","NA","757","study_X","0","10661","1","yes","1680"
"undefined","undefined","10661","10661","black","no","legacy","legacy","legacy","0","red","(179, 0, 0)","shape","present","highProb","circular","swap","same","swap","same","red","(179, 0, 0)","highProbColor","highProbColor","rectangular","uniform","1","undefined","0.1875","1","1","208.375","1","36","40008","0","0","0","0","0","0","0","0","65","0","1","0.1875","208.375","36","40008","65","65","65","08/25/17 10:11:11","Default description","yes","<openexp._canvas.legacy.legacy object at 0x047F27F0>","<openexp._canvas.legacy.legacy object at 0x047FD7B0>","<openexp._canvas.legacy.legacy object at 0x047E7290>","<openexp._canvas.legacy.legacy object at 0x048DF9D0>","<openexp._canvas.legacy.legacy object at 0x048B14B0>","<openexp._canvas.legacy.legacy object at 0x048DBE10>","<openexp._canvas.legacy.legacy object at 0x048B29F0>","75","IndividualPriorityWithDis_v1.osexp","C:/Userdata/Michel/SpatialProb/IndividualPriorityMaps/Experiment2","no","mono","no","18","no","white","no","yes","0.09","98","1050","legacy","45","40","40","1","C:/Userdata/Michel/SpatialProb/IndividualPriorityMaps/Experiment2/data/subject-25.csv","legacy","9","192","25","Jazzy James","3.1.3","yes","598477b2b83f69022949e7e9","47","red","circular","red","rectangular","0","\","1775","space","10661","10661","(80, 80, 80)","(0, 122, 0)","(179, 0, 0)","(155, 155, 155)","2","legacy","experiment","[0, 1, 2, 3, 4, 5, 6, 7]","\","2500","3000","0","8","252.758751519","1024","2","48000","-16","main","[(0, -252), (178, -178), (252, 0), (178, 178), (0, 252), (-178, 178), (-252, 0), (-178, -178)]","[]","25","odd","0","196171","219219","219219","122474","121467","1599","140062","140062","1599","1599","133135","312326","1598","219219","310548","309785","309785","NA","757","study_X","0","10661","1","yes","1680"
"undefined","undefined","10661","10661","black","no","legacy","legacy","legacy","0","red","(179, 0, 0)","color","present","highProb","rectangular","same","swap","swap","same","green","(0, 122, 0)","lowProb","lowProb6","rectangular","uniform","1","undefined","0.192708333333","1","1","212.25","1","37","40752","0","0","0","0","0","0","0","0","66","0","1","0.192708333333","212.25","37","40752","66","66","66","08/25/17 10:11:11","Default description","yes","<openexp._canvas.legacy.legacy object at 0x047F27F0>","<openexp._canvas.legacy.legacy object at 0x047FD7B0>","<openexp._canvas.legacy.legacy object at 0x047E7290>","<openexp._canvas.legacy.legacy object at 0x048DF9D0>","<openexp._canvas.legacy.legacy object at 0x048B14B0>","<openexp._canvas.legacy.legacy object at 0x04809530>","<openexp._canvas.legacy.legacy object at 0x048B29F0>","75","IndividualPriorityWithDis_v1.osexp","C:/Userdata/Michel/SpatialProb/IndividualPriorityMaps/Experiment2","no","mono","no","18","no","white","no","yes","0.09","98","1050","legacy","315","41","41","1","C:/Userdata/Michel/SpatialProb/IndividualPriorityMaps/Experiment2/data/subject-25.csv","legacy","9","192","25","Jazzy James","3.1.3","yes","598477b2b83f69022949e7e9","47","red","rectangular","green","rectangular","0","/","744","space","10661","10661","(80, 80, 80)","(0, 122, 0)","(179, 0, 0)","(155, 155, 155)","2","legacy","experiment","[0, 1, 2, 3, 4, 5, 6, 7]","/","2500","3000","0","8","252.758751519","1024","2","48000","-16","main","[(0, -252), (178, -178), (252, 0), (178, 178), (0, 252), (-178, 178), (-252, 0), (-178, -178)]","[]","25","odd","7","196171","219219","219219","122474","121467","1599","140062","140062","1599","1599","133135","314238","1598","219219","313491","312728","312728","NA","757","study_X","0","10661","1","yes","1680"
"undefined","undefined","10661","10661","black","no","legacy","legacy","legacy","0","green","(0, 122, 0)","shape","present","highProb","circular","swap","swap","same","same","green","(0, 122, 0)","highProbColor","highProbColor","rectangular","uniform","1","undefined","0.197916666667","1","1","218.15625","1","38","41886","0","0","0","0","0","0","0","0","67","0","1","0.197916666667","218.15625","38","41886","67","67","67","08/25/17 10:11:11","Default description","yes","<openexp._canvas.legacy.legacy object at 0x047F27F0>","<openexp._canvas.legacy.legacy object at 0x047FD7B0>","<openexp._canvas.legacy.legacy object at 0x047E7290>","<openexp._canvas.legacy.legacy object at 0x048DF9D0>","<openexp._canvas.legacy.legacy object at 0x048B14B0>","<openexp._canvas.legacy.legacy object at 0x047EF3B0>","<openexp._canvas.legacy.legacy object at 0x048B29F0>","75","IndividualPriorityWithDis_v1.osexp","C:/Userdata/Michel/SpatialProb/IndividualPriorityMaps/Experiment2","no","mono","no","18","no","white","no","yes","0.09","98","1050","legacy","45","42","42","1","C:/Userdata/Michel/SpatialProb/IndividualPriorityMaps/Experiment2/data/subject-25.csv","legacy","9","192","25","Jazzy James","3.1.3","yes","598477b2b83f69022949e7e9","47","green","circular","green","rectangular","0","\","1134","space","10661","10661","(80, 80, 80)","(0, 122, 0)","(179, 0, 0)","(155, 155, 155)","2","legacy","experiment","[0, 1, 2, 3, 4, 5, 6, 7]","\","2500","3000","0","8","252.758751519","1024","2","48000","-16","main","[(0, -252), (178, -178), (252, 0), (178, 178), (0, 252), (-178, 178), (-252, 0), (-178, -178)]","[]","25","odd","0","196171","219219","219219","122474","121467","1599","140062","140062","1599","1599","133135","316542","1598","219219","315404","314642","314642","NA","757","study_X","0","10661","1","yes","1680"
"undefined","undefined","10661","10661","black","no","legacy","legacy","legacy","0","green","(0, 122, 0)","color","present","lowProb2","circular","same","same","swap","swap","red","(179, 0, 0)","lowProb","lowProb5","circular","uniform","0","undefined","0.197916666667","1","1","227.984375","1","38","43773","0","0","0","0","0","0","0","0","68","0","1","0.197916666667","227.984375","38","43773","68","68","68","08/25/17 10:11:11","Default description","yes","<openexp._canvas.legacy.legacy object at 0x047F27F0>","<openexp._canvas.legacy.legacy object at 0x047FD7B0>","<openexp._canvas.legacy.legacy object at 0x047E7290>","<openexp._canvas.legacy.legacy object at 0x048DF9D0>","<openexp._canvas.legacy.legacy object at 0x048B14B0>","<openexp._canvas.legacy.legacy object at 0x04809530>","<openexp._canvas.legacy.legacy object at 0x048B29F0>","75","IndividualPriorityWithDis_v1.osexp","C:/Userdata/Michel/SpatialProb/IndividualPriorityMaps/Experiment2","no","mono","no","18","no","white","no","yes","0.09","98","1050","legacy","45","43","43","1","C:/Userdata/Michel/SpatialProb/IndividualPriorityMaps/Experiment2/data/subject-25.csv","legacy","9","192","25","Jazzy James","3.1.3","yes","598477b2b83f69022949e7e9","47","green","circular","red","circular","0","/","1887","space","10661","10661","(80, 80, 80)","(0, 122, 0)","(179, 0, 0)","(155, 155, 155)","2","legacy","experiment","[0, 1, 2, 3, 4, 5, 6, 7]","\","2500","3000","0","8","252.758751519","1024","2","48000","-16","main","[(0, -252), (178, -178), (252, 0), (178, 178), (0, 252), (-178, 178), (-252, 0), (-178, -178)]","[]","25","odd","6","196171","219219","219219","122474","121467","1599","140062","140062","1599","1599","133135","319631","1598","219219","317740","316977","316977","NA","757","study_X","0","10661","1","yes","1680"
"undefined","undefined","10661","10661","black","no","legacy","legacy","legacy","0","red","(179, 0, 0)","shape","present","highProb","rectangular","swap","swap","same","same","red","(179, 0, 0)","lowProb","lowProb2","circular","uniform","1","undefined","0.203125","1","1","232.052083333","1","39","44554","0","0","0","0","0","0","0","0","69","0","1","0.203125","232.052083333","39","44554","69","69","69","08/25/17 10:11:11","Default description","yes","<openexp._canvas.legacy.legacy object at 0x047F27F0>","<openexp._canvas.legacy.legacy object at 0x047FD7B0>","<openexp._canvas.legacy.legacy object at 0x047E7290>","<openexp._canvas.legacy.legacy object at 0x048DF9D0>","<openexp._canvas.legacy.legacy object at 0x048B14B0>","<openexp._canvas.legacy.legacy object at 0x047E77B0>","<openexp._canvas.legacy.legacy object at 0x048B29F0>","75","IndividualPriorityWithDis_v1.osexp","C:/Userdata/Michel/SpatialProb/IndividualPriorityMaps/Experiment2","no","mono","no","18","no","white","no","yes","0.09","98","1050","legacy","45","44","44","1","C:/Userdata/Michel/SpatialProb/IndividualPriorityMaps/Experiment2/data/subject-25.csv","legacy","9","192","25","Jazzy James","3.1.3","yes","598477b2b83f69022949e7e9","47","red","rectangular","red","circular","0","\","781","space","10661","10661","(80, 80, 80)","(0, 122, 0)","(179, 0, 0)","(155, 155, 155)","2","legacy","experiment","[0, 1, 2, 3, 4, 5, 6, 7]","\","2500","3000","0","8","252.758751519","1024","2","48000","-16","main","[(0, -252), (178, -178), (252, 0), (178, 178), (0, 252), (-178, 178), (-252, 0), (-178, -178)]","[]","25","odd","2","196171","219219","219219","122474","121467","1599","140062","140062","1599","1599","133135","321590","1598","219219","320806","320044","320044","NA","757","study_X","0","10661","1","yes","1680"
"undefined","undefined","10661","10661","black","no","legacy","legacy","legacy","0","green","(0, 122, 0)","color","present","highProb","rectangular","swap","same","same","swap","red","(179, 0, 0)","highProbShape","highProbShape","rectangular","uniform","1","undefined","0.208333333333","1","1","236.75","1","40","45456","0","0","0","0","0","0","0","0","70","0","1","0.208333333333","236.75","40","45456","70","70","70","08/25/17 10:11:11","Default description","yes","<openexp._canvas.legacy.legacy object at 0x047F27F0>","<openexp._canvas.legacy.legacy object at 0x047FD7B0>","<openexp._canvas.legacy.legacy object at 0x047E7290>","<openexp._canvas.legacy.legacy object at 0x048DF9D0>","<openexp._canvas.legacy.legacy object at 0x048B14B0>","<openexp._canvas.legacy.legacy object at 0x048093F0>","<openexp._canvas.legacy.legacy object at 0x048B29F0>","75","IndividualPriorityWithDis_v1.osexp","C:/Userdata/Michel/SpatialProb/IndividualPriorityMaps/Experiment2","no","mono","no","18","no","white","no","yes","0.09","98","1050","legacy","45","45","45","1","C:/Userdata/Michel/SpatialProb/IndividualPriorityMaps/Experiment2/data/subject-25.csv","legacy","9","192","25","Jazzy James","3.1.3","yes","598477b2b83f69022949e7e9","47","green","rectangular","red","rectangular","0","\","902","space","10661","10661","(80, 80, 80)","(0, 122, 0)","(179, 0, 0)","(155, 155, 155)","2","legacy","experiment","[0, 1, 2, 3, 4, 5, 6, 7]","\","2500","3000","0","8","252.758751519","1024","2","48000","-16","main","[(0, -252), (178, -178), (252, 0), (178, 178), (0, 252), (-178, 178), (-252, 0), (-178, -178)]","[]","25","odd","4","196171","219219","219219","122474","121467","1599","140062","140062","1599","1599","133135","323662","1598","219219","322757","321994","321994","NA","757","study_X","0","10661","1","yes","1680"
"undefined","undefined","10661","10661","black","no","legacy","legacy","legacy","0","green","(0, 122, 0)","color","present","highProb","rectangular","same","same","same","same","red","(179, 0, 0)","highProbShape","highProbShape","rectangular","uniform","1","undefined","0.213541666667","1","1","240.005208333","1","41","46081","0","0","0","0","0","0","0","0","71","0","1","0.213541666667","240.005208333","41","46081","71","71","71","08/25/17 10:11:11","Default description","yes","<openexp._canvas.legacy.legacy object at 0x047F27F0>","<openexp._canvas.legacy.legacy object at 0x047FD7B0>","<openexp._canvas.legacy.legacy object at 0x047E7290>","<openexp._canvas.legacy.legacy object at 0x048DF9D0>","<openexp._canvas.legacy.legacy object at 0x048B14B0>","<openexp._canvas.legacy.legacy object at 0x048DFF90>","<openexp._canvas.legacy.legacy object at 0x048B29F0>","75","IndividualPriorityWithDis_v1.osexp","C:/Userdata/Michel/SpatialProb/IndividualPriorityMaps/Experiment2","no","mono","no","18","no","white","no","yes","0.09","98","1050","legacy","315","46","46","1","C:/Userdata/Michel/SpatialProb/IndividualPriorityMaps/Experiment2/data/subject-25.csv","legacy","9","192","25","Jazzy James","3.1.3","yes","598477b2b83f69022949e7e9","47","green","rectangular","red","rectangular","0","/","625","space","10661","10661","(80, 80, 80)","(0, 122, 0)","(179, 0, 0)","(155, 155, 155)","2","legacy","experiment","[0, 1, 2, 3, 4, 5, 6, 7]","/","2500","3000","0","8","252.758751519","1024","2","48000","-16","main","[(0, -252), (178, -178), (252, 0), (178, 178), (0, 252), (-178, 178), (-252, 0), (-178, -178)]","[]","25","odd","4","196171","219219","219219","122474","121467","1599","140062","140062","1599","1599","133135","325470","1598","219219","324842","324080","324080","NA","757","study_X","0","10661","1","yes","1680"
"undefined","undefined","10661","10661","black","no","legacy","legacy","legacy","0","green","(0, 122, 0)","shape","present","highProb","circular","same","swap","swap","same","green","(0, 122, 0)","lowProb","lowProb2","rectangular","uniform","1","undefined","0.21875","1","1","244.359375","1","42","46917","0","0","0","0","0","0","0","0","72","0","1","0.21875","244.359375","42","46917","72","72","72","08/25/17 10:11:11","Default description","yes","<openexp._canvas.legacy.legacy object at 0x047F27F0>","<openexp._canvas.legacy.legacy object at 0x047FD7B0>","<openexp._canvas.legacy.legacy object at 0x047E7290>","<openexp._canvas.legacy.legacy object at 0x048DF9D0>","<openexp._canvas.legacy.legacy object at 0x048B14B0>","<openexp._canvas.legacy.legacy object at 0x04809EF0>","<openexp._canvas.legacy.legacy object at 0x048B29F0>","75","IndividualPriorityWithDis_v1.osexp","C:/Userdata/Michel/SpatialProb/IndividualPriorityMaps/Experiment2","no","mono","no","18","no","white","no","yes","0.09","98","1050","legacy","45","47","47","1","C:/Userdata/Michel/SpatialProb/IndividualPriorityMaps/Experiment2/data/subject-25.csv","legacy","9","192","25","Jazzy James","3.1.3","yes","598477b2b83f69022949e7e9","47","green","circular","green","rectangular","0","\","836","space","10661","10661","(80, 80, 80)","(0, 122, 0)","(179, 0, 0)","(155, 155, 155)","2","legacy","experiment","[0, 1, 2, 3, 4, 5, 6, 7]","\","2500","3000","0","8","252.758751519","1024","2","48000","-16","main","[(0, -252), (178, -178), (252, 0), (178, 178), (0, 252), (-178, 178), (-252, 0), (-178, -178)]","[]","25","odd","2","196171","219219","219219","122474","121467","1599","140062","140062","1599","1599","133135","327478","1598","219219","326639","325876","325876","NA","757","study_X","0","10661","1","yes","1680"
"undefined","undefined","10661","10661","black","no","legacy","legacy","legacy","0","red","(179, 0, 0)","shape","present","highProb","circular","swap","same","swap","same","red","(179, 0, 0)","lowProb","lowProb6","rectangular","uniform","1","undefined","0.223958333333","1","1","249.791666667","1","43","47960","0","0","0","0","0","0","0","0","73","0","1","0.223958333333","249.791666667","43","47960","73","73","73","08/25/17 10:11:11","Default description","yes","<openexp._canvas.legacy.legacy object at 0x047F27F0>","<openexp._canvas.legacy.legacy object at 0x047FD7B0>","<openexp._canvas.legacy.legacy object at 0x047E7290>","<openexp._canvas.legacy.legacy object at 0x048DF9D0>","<openexp._canvas.legacy.legacy object at 0x048B14B0>","<openexp._canvas.legacy.legacy object at 0x04802A90>","<openexp._canvas.legacy.legacy object at 0x048B29F0>","75","IndividualPriorityWithDis_v1.osexp","C:/Userdata/Michel/SpatialProb/IndividualPriorityMaps/Experiment2","no","mono","no","18","no","white","no","yes","0.09","98","1050","legacy","45","48","48","1","C:/Userdata/Michel/SpatialProb/IndividualPriorityMaps/Experiment2/data/subject-25.csv","legacy","9","192","25","Jazzy James","3.1.3","yes","598477b2b83f69022949e7e9","47","red","circular","red","rectangular","0","\","1043","space","10661","10661","(80, 80, 80)","(0, 122, 0)","(179, 0, 0)","(155, 155, 155)","2","legacy","experiment","[0, 1, 2, 3, 4, 5, 6, 7]","\","2500","3000","0","8","252.758751519","1024","2","48000","-16","main","[(0, -252), (178, -178), (252, 0), (178, 178), (0, 252), (-178, 178), (-252, 0), (-178, -178)]","[]","25","odd","7","196171","219219","219219","122474","121467","1599","140062","140062","1599","1599","133135","329702","1598","219219","328656","327893","327893","NA","757","study_X","0","10661","1","yes","1680"
"undefined","undefined","10661","10661","black","no","legacy","legacy","legacy","0","red","(179, 0, 0)","shape","absent","lowProb4","rectangular","same","swap","same","same","red","(179, 0, 0)","lowProb","lowProb6","rectangular","uniform","1","undefined","0.229166666667","1","1","252.619791667","1","44","48503","0","0","0","0","0","0","0","0","74","0","1","0.229166666667","252.619791667","44","48503","74","74","74","08/25/17 10:11:11","Default description","yes","<openexp._canvas.legacy.legacy object at 0x047F27F0>","<openexp._canvas.legacy.legacy object at 0x047FD7B0>","<openexp._canvas.legacy.legacy object at 0x047E7290>","<openexp._canvas.legacy.legacy object at 0x048DF9D0>","<openexp._canvas.legacy.legacy object at 0x048B14B0>","<openexp._canvas.legacy.legacy object at 0x04809E10>","<openexp._canvas.legacy.legacy object at 0x048B29F0>","75","IndividualPriorityWithDis_v1.osexp","C:/Userdata/Michel/SpatialProb/IndividualPriorityMaps/Experiment2","no","mono","no","18","no","white","no","yes","0.09","98","1050","legacy","45","49","49","1","C:/Userdata/Michel/SpatialProb/IndividualPriorityMaps/Experiment2/data/subject-25.csv","legacy","9","192","25","Jazzy James","3.1.3","yes","598477b2b83f69022949e7e9","47","red","rectangular","red","rectangular","0","\","543","space","10661","10661","(80, 80, 80)","(0, 122, 0)","(179, 0, 0)","(155, 155, 155)","2","legacy","experiment","[0, 1, 2, 3, 4, 5, 6, 7]","\","2500","3000","0","8","252.758751519","1024","2","48000","-16","main","[(0, -252), (178, -178), (252, 0), (178, 178), (0, 252), (-178, 178), (-252, 0), (-178, -178)]","[]","25","odd","7","196171","219219","219219","122474","121467","1599","140062","140062","1599","1599","133135","331414","1598","219219","330867","330104","330104","NA","757","study_X","0","10661","1","yes","1680"
"undefined","undefined","10661","10661","black","no","legacy","legacy","legacy","0","red","(179, 0, 0)","color","present","lowProb4","circular","same","swap","swap","swap","green","(0, 122, 0)","lowProb","lowProb5","circular","uniform","0","undefined","0.229166666667","1","1","255.963541667","1","44","49145","0","0","0","0","0","0","0","0","75","0","1","0.229166666667","255.963541667","44","49145","75","75","75","08/25/17 10:11:11","Default description","yes","<openexp._canvas.legacy.legacy object at 0x047F27F0>","<openexp._canvas.legacy.legacy object at 0x047FD7B0>","<openexp._canvas.legacy.legacy object at 0x047E7290>","<openexp._canvas.legacy.legacy object at 0x048DF9D0>","<openexp._canvas.legacy.legacy object at 0x048B14B0>","<openexp._canvas.legacy.legacy object at 0x048DFE30>","<openexp._canvas.legacy.legacy object at 0x048B29F0>","75","IndividualPriorityWithDis_v1.osexp","C:/Userdata/Michel/SpatialProb/IndividualPriorityMaps/Experiment2","no","mono","no","18","no","white","no","yes","0.09","98","1050","legacy","315","50","50","1","C:/Userdata/Michel/SpatialProb/IndividualPriorityMaps/Experiment2/data/subject-25.csv","legacy","9","192","25","Jazzy James","3.1.3","yes","598477b2b83f69022949e7e9","47","red","circular","green","circular","0","\","642","space","10661","10661","(80, 80, 80)","(0, 122, 0)","(179, 0, 0)","(155, 155, 155)","2","legacy","experiment","[0, 1, 2, 3, 4, 5, 6, 7]","/","2500","3000","0","8","252.758751519","1024","2","48000","-16","main","[(0, -252), (178, -178), (252, 0), (178, 178), (0, 252), (-178, 178), (-252, 0), (-178, -178)]","[]","25","odd","6","196171","219219","219219","122474","121467","1599","140062","140062","1599","1599","133135","333230","1598","219219","332584","331822","331822","NA","757","study_X","0","10661","1","yes","1680"
"undefined","undefined","10661","10661","black","no","legacy","legacy","legacy","0","red","(179, 0, 0)","shape","present","highProb","circular","same","same","swap","swap","red","(179, 0, 0)","lowProb","lowProb3","rectangular","uniform","1","undefined","0.234375","1","1","264.421875","1","45","50769","0","0","0","0","0","0","0","0","76","0","1","0.234375","264.421875","45","50769","76","76","76","08/25/17 10:11:11","Default description","yes","<openexp._canvas.legacy.legacy object at 0x047F27F0>","<openexp._canvas.legacy.legacy object at 0x047FD7B0>","<openexp._canvas.legacy.legacy object at 0x047E7290>","<openexp._canvas.legacy.legacy object at 0x048DF9D0>","<openexp._canvas.legacy.legacy object at 0x048B14B0>","<openexp._canvas.legacy.legacy object at 0x048093D0>","<openexp._canvas.legacy.legacy object at 0x048B29F0>","75","IndividualPriorityWithDis_v1.osexp","C:/Userdata/Michel/SpatialProb/IndividualPriorityMaps/Experiment2","no","mono","no","18","no","white","no","yes","0.09","98","1050","legacy","315","51","51","1","C:/Userdata/Michel/SpatialProb/IndividualPriorityMaps/Experiment2/data/subject-25.csv","legacy","9","192","25","Jazzy James","3.1.3","yes","598477b2b83f69022949e7e9","47","red","circular","red","rectangular","0","/","1624","space","10661","10661","(80, 80, 80)","(0, 122, 0)","(179, 0, 0)","(155, 155, 155)","2","legacy","experiment","[0, 1, 2, 3, 4, 5, 6, 7]","/","2500","3000","0","8","252.758751519","1024","2","48000","-16","main","[(0, -252), (178, -178), (252, 0), (178, 178), (0, 252), (-178, 178), (-252, 0), (-178, -178)]","[]","25","odd","3","196171","219219","219219","122474","121467","1599","140062","140062","1599","1599","133135","336014","1598","219219","334387","333624","333624","NA","757","study_X","0","10661","1","yes","1680"
"undefined","undefined","10661","10661","black","no","legacy","legacy","legacy","0","green","(0, 122, 0)","shape","present","highProb","rectangular","swap","swap","swap","swap","green","(0, 122, 0)","lowProb","lowProb1","circular","uniform","1","undefined","0.239583333333","1","1","272.703125","1","46","52359","0","0","0","0","0","0","0","0","77","0","1","0.239583333333","272.703125","46","52359","77","77","77","08/25/17 10:11:11","Default description","yes","<openexp._canvas.legacy.legacy object at 0x047F27F0>","<openexp._canvas.legacy.legacy object at 0x047FD7B0>","<openexp._canvas.legacy.legacy object at 0x047E7290>","<openexp._canvas.legacy.legacy object at 0x048DF9D0>","<openexp._canvas.legacy.legacy object at 0x048B14B0>","<openexp._canvas.legacy.legacy object at 0x04804710>","<openexp._canvas.legacy.legacy object at 0x048B29F0>","75","IndividualPriorityWithDis_v1.osexp","C:/Userdata/Michel/SpatialProb/IndividualPriorityMaps/Experiment2","no","mono","no","18","no","white","no","yes","0.09","98","1050","legacy","45","52","52","1","C:/Userdata/Michel/SpatialProb/IndividualPriorityMaps/Experiment2/data/subject-25.csv","legacy","9","192","25","Jazzy James","3.1.3","yes","598477b2b83f69022949e7e9","47","green","rectangular","green","circular","0","\","1590","space","10661","10661","(80, 80, 80)","(0, 122, 0)","(179, 0, 0)","(155, 155, 155)","2","legacy","experiment","[0, 1, 2, 3, 4, 5, 6, 7]","\","2500","3000","0","8","252.758751519","1024","2","48000","-16","main","[(0, -252), (178, -178), (252, 0), (178, 178), (0, 252), (-178, 178), (-252, 0), (-178, -178)]","[]","25","odd","1","196171","219219","219219","122474","121467","1599","140062","140062","1599","1599","133135","338782","1598","219219","337189","336426","336426","NA","757","study_X","0","10661","1","yes","1680"
"undefined","undefined","10661","10661","black","no","legacy","legacy","legacy","0","green","(0, 122, 0)","shape","present","lowProb2","rectangular","same","same","same","same","green","(0, 122, 0)","lowProb","lowProb1","circular","uniform","1","undefined","0.244791666667","1","1","275.989583333","1","47","52990","0","0","0","0","0","0","0","0","78","0","1","0.244791666667","275.989583333","47","52990","78","78","78","08/25/17 10:11:11","Default description","yes","<openexp._canvas.legacy.legacy object at 0x047F27F0>","<openexp._canvas.legacy.legacy object at 0x047FD7B0>","<openexp._canvas.legacy.legacy object at 0x047E7290>","<openexp._canvas.legacy.legacy object at 0x048DF9D0>","<openexp._canvas.legacy.legacy object at 0x048B14B0>","<openexp._canvas.legacy.legacy object at 0x048094D0>","<openexp._canvas.legacy.legacy object at 0x048B29F0>","75","IndividualPriorityWithDis_v1.osexp","C:/Userdata/Michel/SpatialProb/IndividualPriorityMaps/Experiment2","no","mono","no","18","no","white","no","yes","0.09","98","1050","legacy","315","53","53","1","C:/Userdata/Michel/SpatialProb/IndividualPriorityMaps/Experiment2/data/subject-25.csv","legacy","9","192","25","Jazzy James","3.1.3","yes","598477b2b83f69022949e7e9","47","green","rectangular","green","circular","0","/","631","space","10661","10661","(80, 80, 80)","(0, 122, 0)","(179, 0, 0)","(155, 155, 155)","2","legacy","experiment","[0, 1, 2, 3, 4, 5, 6, 7]","/","2500","3000","0","8","252.758751519","1024","2","48000","-16","main","[(0, -252), (178, -178), (252, 0), (178, 178), (0, 252), (-178, 178), (-252, 0), (-178, -178)]","[]","25","odd","1","196171","219219","219219","122474","121467","1599","140062","140062","1599","1599","133135","340590","1598","219219","339956","339193","339193","NA","757","study_X","0","10661","1","yes","1680"
