"acc","accuracy","answerQ1","answerQ2","answerQ3","average_response_time","avg_rt","background","bidi","canvas_backend","clock_backend","color_backend","compensation","cond_disColor","cond_disColorRGB","cond_disFeature","cond_disPresent","cond_disProbability","cond_disShape","cond_primingDisColor","cond_primingDisShape","cond_primingTarColor","cond_primingTarShape","cond_tarColor","cond_tarColorRGB","cond_tarLocation","cond_tarLocationLong","cond_tarShape","coordinates","correct","correct_continuePress","count_Questions","count_blockAcc","count_blockFeed","count_blockLoop","count_blockRT","count_blockSeq","count_blockSumCorrect","count_blockSumRT","count_continuePress","count_example","count_expSettings","count_exp_mainLoop","count_experiment","count_instructions","count_instructions1","count_instructions2","count_log","count_main","count_prepCanvas","count_totalAcc","count_totalRT","count_totalSumCorrect","count_totalSumRT","count_trialResp","count_trialSeq","count_trialTask","datetime","description","disable_garbage_collection","dispBlank","dispBlockStart","dispFeedBlock","dispFix","dispInstructions","dispQuestions","dispSearch","dispStartScreen","distance2screen","experiment_file","experiment_path","font_bold","font_family","font_italic","font_size","font_underline","foreground","form_clicks","fullscreen","gaborFreq","gaborSize","height","keyboard_backend","lineOriTar","live_row","live_row_blockLoop","live_row_exp_mainLoop","logfile","mouse_backend","noExpBlocks","noExpTrials","noPracTrials","opensesame_codename","opensesame_version","osf_always_upload_experiment","osf_id","physical_screensize","previousDisColor","previousDisShape","previousTarColor","previousTarShape","repeat_cycle","response","responseTime","response_continuePress","response_time","response_time_continuePress","rgb_gray","rgb_green","rgb_red","rgb_white","round_decimals","sampler_backend","set_blockType","set_counterPositions","set_respCorrect","set_respTimeoutExp","set_respTimeoutPrac","set_rotation","set_setSize","sizeImaginary","sound_buf_size","sound_channels","sound_freq","sound_sample_size","start","stimPositions","stimuli","subject_nr","subject_parity","tarIdx","time_Questions","time_blockFeed","time_blockLoop","time_blockSeq","time_continuePress","time_example","time_expSettings","time_exp_mainLoop","time_experiment","time_instructions","time_instructions1","time_instructions2","time_log","time_main","time_prepCanvas","time_trialResp","time_trialSeq","time_trialTask","timing_EEGwait","timing_fix","title","total_correct","total_response_time","total_responses","uniform_coordinates","width"
"undefined","undefined","NA","NA","NA","19765","19765","black","no","legacy","legacy","legacy","0","green","(0, 123, 0)","shape","absent","highProbOther","circular","same","same","same","swap","green","(0, 123, 0)","highProbShape","highProbShape","circular","uniform","0","undefined","0","0","1","1","13.0208333333","1","0","2500","0","0","0","0","0","0","0","0","26","0","1","0","13.0208333333","0","2500","25","25","25","11/27/18 14:25:05","Default description","yes","<openexp._canvas.legacy.Legacy object at 0x05E611B0>","<openexp._canvas.legacy.Legacy object at 0x05E6E9F0>","<openexp._canvas.legacy.Legacy object at 0x06018A70>","<openexp._canvas.legacy.Legacy object at 0x05DBFE70>","<openexp._canvas.legacy.Legacy object at 0x05DAA8D0>","<openexp._canvas.legacy.Legacy object at 0x05E52210>","<openexp._canvas.legacy.Legacy object at 0x05E6EEF0>","<openexp._canvas.legacy.Legacy object at 0x05E6E210>","75","SpatProbMultiple3.osexp","C:/Userdata/Michel/SpatProbMultiple3","no","mono","no","18","no","white","no","yes","0.09","98","1050","legacy","45","0","0","1","C:/Userdata/Michel/SpatProbMultiple3/subject-14.csv","legacy","9","192","25","Kafkaesque Koffka","3.2.5","yes","598477b2b83f69022949e7e9","47","green","circular","green","circular","0","None","2500","space","19765","19765","(80, 80, 80)","(0, 123, 0)","(177, 0, 0)","(155, 155, 155)","2","legacy","experiment","[5, 6, 7, 0, 1, 2, 3, 4]","\","2500","3000","0","8","252.758751519","1024","2","48000","-16","main","[(0, -252), (178, -178), (252, 0), (178, 178), (0, 252), (-178, 178), (-252, 0), (-178, -178)]","[]","14","even","1","NA","205644","333337","333337","89350","88340","1953","116335","116335","1953","1953","109115","342175","1949","333337","339672","333735","333735","NA","773","study_X","0","19765","1","yes","1680"
"undefined","undefined","NA","NA","NA","19765","19765","black","no","legacy","legacy","legacy","0","green","(0, 123, 0)","color","present","highProb","rectangular","same","swap","swap","swap","red","(177, 0, 0)","lowProb","lowProb1","rectangular","uniform","1","undefined","0","0.00520833333333","1","1","22.9270833333","1","1","4402","0","0","0","0","0","0","0","0","27","0","1","0.00520833333333","22.9270833333","1","4402","26","26","26","11/27/18 14:25:05","Default description","yes","<openexp._canvas.legacy.Legacy object at 0x05E611B0>","<openexp._canvas.legacy.Legacy object at 0x05E6E9F0>","<openexp._canvas.legacy.Legacy object at 0x06018A70>","<openexp._canvas.legacy.Legacy object at 0x05DBFE70>","<openexp._canvas.legacy.Legacy object at 0x05DAA8D0>","<openexp._canvas.legacy.Legacy object at 0x05E52210>","<openexp._canvas.legacy.Legacy object at 0x0600C0F0>","<openexp._canvas.legacy.Legacy object at 0x05E6E210>","75","SpatProbMultiple3.osexp","C:/Userdata/Michel/SpatProbMultiple3","no","mono","no","18","no","white","no","yes","0.09","98","1050","legacy","315","1","1","1","C:/Userdata/Michel/SpatProbMultiple3/subject-14.csv","legacy","9","192","25","Kafkaesque Koffka","3.2.5","yes","598477b2b83f69022949e7e9","47","green","rectangular","red","rectangular","0","/","1902","space","19765","19765","(80, 80, 80)","(0, 123, 0)","(177, 0, 0)","(155, 155, 155)","2","legacy","experiment","[5, 6, 7, 0, 1, 2, 3, 4]","/","2500","3000","0","8","252.758751519","1024","2","48000","-16","main","[(0, -252), (178, -178), (252, 0), (178, 178), (0, 252), (-178, 178), (-252, 0), (-178, -178)]","[]","14","even","6","NA","205644","333337","333337","89350","88340","1953","116335","116335","1953","1953","109115","345290","1949","333337","343385","342602","342602","NA","773","study_X","0","19765","1","yes","1680"
"undefined","undefined","NA","NA","NA","19765","19765","black","no","legacy","legacy","legacy","0","green","(0, 123, 0)","color","absent","lowProb6","circular","same","swap","swap","swap","green","(0, 123, 0)","lowProb","lowProb4","circular","uniform","1","undefined","0","0.0104166666667","1","1","30.9739583333","1","2","5947","0","0","0","0","0","0","0","0","28","0","1","0.0104166666667","30.9739583333","2","5947","27","27","27","11/27/18 14:25:05","Default description","yes","<openexp._canvas.legacy.Legacy object at 0x05E611B0>","<openexp._canvas.legacy.Legacy object at 0x05E6E9F0>","<openexp._canvas.legacy.Legacy object at 0x06018A70>","<openexp._canvas.legacy.Legacy object at 0x05DBFE70>","<openexp._canvas.legacy.Legacy object at 0x05DAA8D0>","<openexp._canvas.legacy.Legacy object at 0x05E52210>","<openexp._canvas.legacy.Legacy object at 0x05E61950>","<openexp._canvas.legacy.Legacy object at 0x05E6E210>","75","SpatProbMultiple3.osexp","C:/Userdata/Michel/SpatProbMultiple3","no","mono","no","18","no","white","no","yes","0.09","98","1050","legacy","315","2","2","1","C:/Userdata/Michel/SpatProbMultiple3/subject-14.csv","legacy","9","192","25","Kafkaesque Koffka","3.2.5","yes","598477b2b83f69022949e7e9","47","green","circular","green","circular","0","/","1545","space","19765","19765","(80, 80, 80)","(0, 123, 0)","(177, 0, 0)","(155, 155, 155)","2","legacy","experiment","[5, 6, 7, 0, 1, 2, 3, 4]","/","2500","3000","0","8","252.758751519","1024","2","48000","-16","main","[(0, -252), (178, -178), (252, 0), (178, 178), (0, 252), (-178, 178), (-252, 0), (-178, -178)]","[]","14","even","2","NA","205644","333337","333337","89350","88340","1953","116335","116335","1953","1953","109115","348050","1949","333337","346502","345719","345719","NA","773","study_X","0","19765","1","yes","1680"
"undefined","undefined","NA","NA","NA","19765","19765","black","no","legacy","legacy","legacy","0","green","(0, 123, 0)","shape","present","highProb","circular","same","same","same","swap","green","(0, 123, 0)","lowProb","lowProb4","rectangular","uniform","1","undefined","0","0.015625","1","1","37.890625","1","3","7275","0","0","0","0","0","0","0","0","29","0","1","0.015625","37.890625","3","7275","28","28","28","11/27/18 14:25:05","Default description","yes","<openexp._canvas.legacy.Legacy object at 0x05E611B0>","<openexp._canvas.legacy.Legacy object at 0x05E6E9F0>","<openexp._canvas.legacy.Legacy object at 0x06018A70>","<openexp._canvas.legacy.Legacy object at 0x05DBFE70>","<openexp._canvas.legacy.Legacy object at 0x05DAA8D0>","<openexp._canvas.legacy.Legacy object at 0x05E52210>","<openexp._canvas.legacy.Legacy object at 0x05DBFC10>","<openexp._canvas.legacy.Legacy object at 0x05E6E210>","75","SpatProbMultiple3.osexp","C:/Userdata/Michel/SpatProbMultiple3","no","mono","no","18","no","white","no","yes","0.09","98","1050","legacy","45","3","3","1","C:/Userdata/Michel/SpatProbMultiple3/subject-14.csv","legacy","9","192","25","Kafkaesque Koffka","3.2.5","yes","598477b2b83f69022949e7e9","47","green","circular","green","rectangular","0","\","1328","space","19765","19765","(80, 80, 80)","(0, 123, 0)","(177, 0, 0)","(155, 155, 155)","2","legacy","experiment","[5, 6, 7, 0, 1, 2, 3, 4]","\","2500","3000","0","8","252.758751519","1024","2","48000","-16","main","[(0, -252), (178, -178), (252, 0), (178, 178), (0, 252), (-178, 178), (-252, 0), (-178, -178)]","[]","14","even","2","NA","205644","333337","333337","89350","88340","1953","116335","116335","1953","1953","109115","350586","1949","333337","349254","348473","348473","NA","773","study_X","0","19765","1","yes","1680"
"undefined","undefined","NA","NA","NA","19765","19765","black","no","legacy","legacy","legacy","0","red","(177, 0, 0)","color","absent","lowProb6","rectangular","swap","swap","swap","same","red","(177, 0, 0)","lowProb","lowProb6","rectangular","uniform","1","undefined","0","0.0208333333333","1","1","43.7864583333","1","4","8407","0","0","0","0","0","0","0","0","30","0","1","0.0208333333333","43.7864583333","4","8407","29","29","29","11/27/18 14:25:05","Default description","yes","<openexp._canvas.legacy.Legacy object at 0x05E611B0>","<openexp._canvas.legacy.Legacy object at 0x05E6E9F0>","<openexp._canvas.legacy.Legacy object at 0x06018A70>","<openexp._canvas.legacy.Legacy object at 0x05DBFE70>","<openexp._canvas.legacy.Legacy object at 0x05DAA8D0>","<openexp._canvas.legacy.Legacy object at 0x05E52210>","<openexp._canvas.legacy.Legacy object at 0x05E6EE70>","<openexp._canvas.legacy.Legacy object at 0x05E6E210>","75","SpatProbMultiple3.osexp","C:/Userdata/Michel/SpatProbMultiple3","no","mono","no","18","no","white","no","yes","0.09","98","1050","legacy","315","4","4","1","C:/Userdata/Michel/SpatProbMultiple3/subject-14.csv","legacy","9","192","25","Kafkaesque Koffka","3.2.5","yes","598477b2b83f69022949e7e9","47","red","rectangular","red","rectangular","0","/","1132","space","19765","19765","(80, 80, 80)","(0, 123, 0)","(177, 0, 0)","(155, 155, 155)","2","legacy","experiment","[5, 6, 7, 0, 1, 2, 3, 4]","/","2500","3000","0","8","252.758751519","1024","2","48000","-16","main","[(0, -252), (178, -178), (252, 0), (178, 178), (0, 252), (-178, 178), (-252, 0), (-178, -178)]","[]","14","even","4","NA","205644","333337","333337","89350","88340","1953","116335","116335","1953","1953","109115","352930","1949","333337","351794","351011","351011","NA","773","study_X","0","19765","1","yes","1680"
"undefined","undefined","NA","NA","NA","19765","19765","black","no","legacy","legacy","legacy","0","red","(177, 0, 0)","shape","present","highProb","rectangular","same","same","same","swap","red","(177, 0, 0)","lowProb","lowProb2","circular","uniform","1","undefined","0","0.0260416666667","1","1","55.15625","1","5","10590","0","0","0","0","0","0","0","0","31","0","1","0.0260416666667","55.15625","5","10590","30","30","30","11/27/18 14:25:05","Default description","yes","<openexp._canvas.legacy.Legacy object at 0x05E611B0>","<openexp._canvas.legacy.Legacy object at 0x05E6E9F0>","<openexp._canvas.legacy.Legacy object at 0x06018A70>","<openexp._canvas.legacy.Legacy object at 0x05DBFE70>","<openexp._canvas.legacy.Legacy object at 0x05DAA8D0>","<openexp._canvas.legacy.Legacy object at 0x05E52210>","<openexp._canvas.legacy.Legacy object at 0x0600F7F0>","<openexp._canvas.legacy.Legacy object at 0x05E6E210>","75","SpatProbMultiple3.osexp","C:/Userdata/Michel/SpatProbMultiple3","no","mono","no","18","no","white","no","yes","0.09","98","1050","legacy","315","5","5","1","C:/Userdata/Michel/SpatProbMultiple3/subject-14.csv","legacy","9","192","25","Kafkaesque Koffka","3.2.5","yes","598477b2b83f69022949e7e9","47","red","rectangular","red","circular","0","/","2183","space","19765","19765","(80, 80, 80)","(0, 123, 0)","(177, 0, 0)","(155, 155, 155)","2","legacy","experiment","[5, 6, 7, 0, 1, 2, 3, 4]","/","2500","3000","0","8","252.758751519","1024","2","48000","-16","main","[(0, -252), (178, -178), (252, 0), (178, 178), (0, 252), (-178, 178), (-252, 0), (-178, -178)]","[]","14","even","7","NA","205644","333337","333337","89350","88340","1953","116335","116335","1953","1953","109115","356330","1949","333337","354144","353362","353363","NA","773","study_X","0","19765","1","yes","1680"
"undefined","undefined","NA","NA","NA","19765","19765","black","no","legacy","legacy","legacy","0","red","(177, 0, 0)","color","present","lowProb1","circular","same","swap","swap","same","green","(0, 123, 0)","lowProb","lowProb4","circular","uniform","1","undefined","0","0.03125","1","1","60.5104166667","1","6","11618","0","0","0","0","0","0","0","0","32","0","1","0.03125","60.5104166667","6","11618","31","31","31","11/27/18 14:25:05","Default description","yes","<openexp._canvas.legacy.Legacy object at 0x05E611B0>","<openexp._canvas.legacy.Legacy object at 0x05E6E9F0>","<openexp._canvas.legacy.Legacy object at 0x06018A70>","<openexp._canvas.legacy.Legacy object at 0x05DBFE70>","<openexp._canvas.legacy.Legacy object at 0x05DAA8D0>","<openexp._canvas.legacy.Legacy object at 0x05E52210>","<openexp._canvas.legacy.Legacy object at 0x05E61DD0>","<openexp._canvas.legacy.Legacy object at 0x05E6E210>","75","SpatProbMultiple3.osexp","C:/Userdata/Michel/SpatProbMultiple3","no","mono","no","18","no","white","no","yes","0.09","98","1050","legacy","45","6","6","1","C:/Userdata/Michel/SpatProbMultiple3/subject-14.csv","legacy","9","192","25","Kafkaesque Koffka","3.2.5","yes","598477b2b83f69022949e7e9","47","red","circular","green","circular","0","\","1028","space","19765","19765","(80, 80, 80)","(0, 123, 0)","(177, 0, 0)","(155, 155, 155)","2","legacy","experiment","[5, 6, 7, 0, 1, 2, 3, 4]","\","2500","3000","0","8","252.758751519","1024","2","48000","-16","main","[(0, -252), (178, -178), (252, 0), (178, 178), (0, 252), (-178, 178), (-252, 0), (-178, -178)]","[]","14","even","2","NA","205644","333337","333337","89350","88340","1953","116335","116335","1953","1953","109115","358570","1949","333337","357539","356757","356757","NA","773","study_X","0","19765","1","yes","1680"
"undefined","undefined","NA","NA","NA","19765","19765","black","no","legacy","legacy","legacy","0","green","(0, 123, 0)","color","present","lowProb6","circular","swap","same","swap","same","red","(177, 0, 0)","highProbColor","highProbColor","circular","uniform","1","undefined","0","0.0364583333333","1","1","68.6041666667","1","7","13172","0","0","0","0","0","0","0","0","33","0","1","0.0364583333333","68.6041666667","7","13172","32","32","32","11/27/18 14:25:05","Default description","yes","<openexp._canvas.legacy.Legacy object at 0x05E611B0>","<openexp._canvas.legacy.Legacy object at 0x05E6E9F0>","<openexp._canvas.legacy.Legacy object at 0x06018A70>","<openexp._canvas.legacy.Legacy object at 0x05DBFE70>","<openexp._canvas.legacy.Legacy object at 0x05DAA8D0>","<openexp._canvas.legacy.Legacy object at 0x05E52210>","<openexp._canvas.legacy.Legacy object at 0x0600CF90>","<openexp._canvas.legacy.Legacy object at 0x05E6E210>","75","SpatProbMultiple3.osexp","C:/Userdata/Michel/SpatProbMultiple3","no","mono","no","18","no","white","no","yes","0.09","98","1050","legacy","45","7","7","1","C:/Userdata/Michel/SpatProbMultiple3/subject-14.csv","legacy","9","192","25","Kafkaesque Koffka","3.2.5","yes","598477b2b83f69022949e7e9","47","green","circular","red","circular","0","\","1554","space","19765","19765","(80, 80, 80)","(0, 123, 0)","(177, 0, 0)","(155, 155, 155)","2","legacy","experiment","[5, 6, 7, 0, 1, 2, 3, 4]","\","2500","3000","0","8","252.758751519","1024","2","48000","-16","main","[(0, -252), (178, -178), (252, 0), (178, 178), (0, 252), (-178, 178), (-252, 0), (-178, -178)]","[]","14","even","5","NA","205644","333337","333337","89350","88340","1953","116335","116335","1953","1953","109115","361338","1949","333337","359781","358999","358999","NA","773","study_X","0","19765","1","yes","1680"
"undefined","undefined","NA","NA","NA","19765","19765","black","no","legacy","legacy","legacy","0","red","(177, 0, 0)","shape","present","lowProb3","rectangular","swap","swap","same","same","red","(177, 0, 0)","highProbShape","highProbShape","circular","uniform","1","undefined","0","0.0416666666667","1","1","77.6197916667","1","8","14903","0","0","0","0","0","0","0","0","34","0","1","0.0416666666667","77.6197916667","8","14903","33","33","33","11/27/18 14:25:05","Default description","yes","<openexp._canvas.legacy.Legacy object at 0x05E611B0>","<openexp._canvas.legacy.Legacy object at 0x05E6E9F0>","<openexp._canvas.legacy.Legacy object at 0x06018A70>","<openexp._canvas.legacy.Legacy object at 0x05DBFE70>","<openexp._canvas.legacy.Legacy object at 0x05DAA8D0>","<openexp._canvas.legacy.Legacy object at 0x05E52210>","<openexp._canvas.legacy.Legacy object at 0x060199D0>","<openexp._canvas.legacy.Legacy object at 0x05E6E210>","75","SpatProbMultiple3.osexp","C:/Userdata/Michel/SpatProbMultiple3","no","mono","no","18","no","white","no","yes","0.09","98","1050","legacy","315","8","8","1","C:/Userdata/Michel/SpatProbMultiple3/subject-14.csv","legacy","9","192","25","Kafkaesque Koffka","3.2.5","yes","598477b2b83f69022949e7e9","47","red","rectangular","red","circular","0","/","1731","space","19765","19765","(80, 80, 80)","(0, 123, 0)","(177, 0, 0)","(155, 155, 155)","2","legacy","experiment","[5, 6, 7, 0, 1, 2, 3, 4]","/","2500","3000","0","8","252.758751519","1024","2","48000","-16","main","[(0, -252), (178, -178), (252, 0), (178, 178), (0, 252), (-178, 178), (-252, 0), (-178, -178)]","[]","14","even","1","NA","205644","333337","333337","89350","88340","1953","116335","116335","1953","1953","109115","364282","1949","333337","362548","361765","361765","NA","773","study_X","0","19765","1","yes","1680"
"undefined","undefined","NA","NA","NA","19765","19765","black","no","legacy","legacy","legacy","0","red","(177, 0, 0)","color","absent","lowProb4","rectangular","same","same","same","swap","red","(177, 0, 0)","lowProb","lowProb6","rectangular","uniform","1","undefined","0","0.046875","1","1","86.40625","1","9","16590","0","0","0","0","0","0","0","0","35","0","1","0.046875","86.40625","9","16590","34","34","34","11/27/18 14:25:05","Default description","yes","<openexp._canvas.legacy.Legacy object at 0x05E611B0>","<openexp._canvas.legacy.Legacy object at 0x05E6E9F0>","<openexp._canvas.legacy.Legacy object at 0x06018A70>","<openexp._canvas.legacy.Legacy object at 0x05DBFE70>","<openexp._canvas.legacy.Legacy object at 0x05DAA8D0>","<openexp._canvas.legacy.Legacy object at 0x05E52210>","<openexp._canvas.legacy.Legacy object at 0x060092B0>","<openexp._canvas.legacy.Legacy object at 0x05E6E210>","75","SpatProbMultiple3.osexp","C:/Userdata/Michel/SpatProbMultiple3","no","mono","no","18","no","white","no","yes","0.09","98","1050","legacy","315","9","9","1","C:/Userdata/Michel/SpatProbMultiple3/subject-14.csv","legacy","9","192","25","Kafkaesque Koffka","3.2.5","yes","598477b2b83f69022949e7e9","47","red","rectangular","red","rectangular","0","/","1687","space","19765","19765","(80, 80, 80)","(0, 123, 0)","(177, 0, 0)","(155, 155, 155)","2","legacy","experiment","[5, 6, 7, 0, 1, 2, 3, 4]","/","2500","3000","0","8","252.758751519","1024","2","48000","-16","main","[(0, -252), (178, -178), (252, 0), (178, 178), (0, 252), (-178, 178), (-252, 0), (-178, -178)]","[]","14","even","4","NA","205644","333337","333337","89350","88340","1953","116335","116335","1953","1953","109115","367178","1949","333337","365487","364704","364704","NA","773","study_X","0","19765","1","yes","1680"
"undefined","undefined","NA","NA","NA","19765","19765","black","no","legacy","legacy","legacy","0","green","(0, 123, 0)","color","present","highProb","rectangular","swap","same","same","same","red","(177, 0, 0)","lowProb","lowProb6","rectangular","uniform","1","undefined","0","0.0520833333333","1","1","96.7239583333","1","10","18571","0","0","0","0","0","0","0","0","36","0","1","0.0520833333333","96.7239583333","10","18571","35","35","35","11/27/18 14:25:05","Default description","yes","<openexp._canvas.legacy.Legacy object at 0x05E611B0>","<openexp._canvas.legacy.Legacy object at 0x05E6E9F0>","<openexp._canvas.legacy.Legacy object at 0x06018A70>","<openexp._canvas.legacy.Legacy object at 0x05DBFE70>","<openexp._canvas.legacy.Legacy object at 0x05DAA8D0>","<openexp._canvas.legacy.Legacy object at 0x05E52210>","<openexp._canvas.legacy.Legacy object at 0x05E56AF0>","<openexp._canvas.legacy.Legacy object at 0x05E6E210>","75","SpatProbMultiple3.osexp","C:/Userdata/Michel/SpatProbMultiple3","no","mono","no","18","no","white","no","yes","0.09","98","1050","legacy","45","10","10","1","C:/Userdata/Michel/SpatProbMultiple3/subject-14.csv","legacy","9","192","25","Kafkaesque Koffka","3.2.5","yes","598477b2b83f69022949e7e9","47","green","rectangular","red","rectangular","0","\","1981","space","19765","19765","(80, 80, 80)","(0, 123, 0)","(177, 0, 0)","(155, 155, 155)","2","legacy","experiment","[5, 6, 7, 0, 1, 2, 3, 4]","\","2500","3000","0","8","252.758751519","1024","2","48000","-16","main","[(0, -252), (178, -178), (252, 0), (178, 178), (0, 252), (-178, 178), (-252, 0), (-178, -178)]","[]","14","even","4","NA","205644","333337","333337","89350","88340","1953","116335","116335","1953","1953","109115","370370","1949","333337","368385","367603","367603","NA","773","study_X","0","19765","1","yes","1680"
"undefined","undefined","NA","NA","NA","19765","19765","black","no","legacy","legacy","legacy","0","green","(0, 123, 0)","color","absent","lowProb3","rectangular","same","same","swap","same","green","(0, 123, 0)","highProbColor","highProbColor","rectangular","uniform","1","undefined","0","0.0572916666667","1","1","101.380208333","1","11","19465","0","0","0","0","0","0","0","0","37","0","1","0.0572916666667","101.380208333","11","19465","36","36","36","11/27/18 14:25:05","Default description","yes","<openexp._canvas.legacy.Legacy object at 0x05E611B0>","<openexp._canvas.legacy.Legacy object at 0x05E6E9F0>","<openexp._canvas.legacy.Legacy object at 0x06018A70>","<openexp._canvas.legacy.Legacy object at 0x05DBFE70>","<openexp._canvas.legacy.Legacy object at 0x05DAA8D0>","<openexp._canvas.legacy.Legacy object at 0x05E52210>","<openexp._canvas.legacy.Legacy object at 0x05E68190>","<openexp._canvas.legacy.Legacy object at 0x05E6E210>","75","SpatProbMultiple3.osexp","C:/Userdata/Michel/SpatProbMultiple3","no","mono","no","18","no","white","no","yes","0.09","98","1050","legacy","315","11","11","1","C:/Userdata/Michel/SpatProbMultiple3/subject-14.csv","legacy","9","192","25","Kafkaesque Koffka","3.2.5","yes","598477b2b83f69022949e7e9","47","green","rectangular","green","rectangular","0","/","894","space","19765","19765","(80, 80, 80)","(0, 123, 0)","(177, 0, 0)","(155, 155, 155)","2","legacy","experiment","[5, 6, 7, 0, 1, 2, 3, 4]","/","2500","3000","0","8","252.758751519","1024","2","48000","-16","main","[(0, -252), (178, -178), (252, 0), (178, 178), (0, 252), (-178, 178), (-252, 0), (-178, -178)]","[]","14","even","5","NA","205644","333337","333337","89350","88340","1953","116335","116335","1953","1953","109115","372489","1949","333337","371592","370809","370809","NA","773","study_X","0","19765","1","yes","1680"
"undefined","undefined","NA","NA","NA","19765","19765","black","no","legacy","legacy","legacy","0","green","(0, 123, 0)","shape","present","highProb","rectangular","same","same","same","swap","green","(0, 123, 0)","lowProb","lowProb1","circular","uniform","1","undefined","0","0.0625","1","1","111.0625","1","12","21324","0","0","0","0","0","0","0","0","38","0","1","0.0625","111.0625","12","21324","37","37","37","11/27/18 14:25:05","Default description","yes","<openexp._canvas.legacy.Legacy object at 0x05E611B0>","<openexp._canvas.legacy.Legacy object at 0x05E6E9F0>","<openexp._canvas.legacy.Legacy object at 0x06018A70>","<openexp._canvas.legacy.Legacy object at 0x05DBFE70>","<openexp._canvas.legacy.Legacy object at 0x05DAA8D0>","<openexp._canvas.legacy.Legacy object at 0x05E52210>","<openexp._canvas.legacy.Legacy object at 0x060197F0>","<openexp._canvas.legacy.Legacy object at 0x05E6E210>","75","SpatProbMultiple3.osexp","C:/Userdata/Michel/SpatProbMultiple3","no","mono","no","18","no","white","no","yes","0.09","98","1050","legacy","315","12","12","1","C:/Userdata/Michel/SpatProbMultiple3/subject-14.csv","legacy","9","192","25","Kafkaesque Koffka","3.2.5","yes","598477b2b83f69022949e7e9","47","green","rectangular","green","circular","0","/","1859","space","19765","19765","(80, 80, 80)","(0, 123, 0)","(177, 0, 0)","(155, 155, 155)","2","legacy","experiment","[5, 6, 7, 0, 1, 2, 3, 4]","/","2500","3000","0","8","252.758751519","1024","2","48000","-16","main","[(0, -252), (178, -178), (252, 0), (178, 178), (0, 252), (-178, 178), (-252, 0), (-178, -178)]","[]","14","even","6","NA","205644","333337","333337","89350","88340","1953","116335","116335","1953","1953","109115","375562","1949","333337","373701","372921","372921","NA","773","study_X","0","19765","1","yes","1680"
"undefined","undefined","NA","NA","NA","19765","19765","black","no","legacy","legacy","legacy","0","red","(177, 0, 0)","shape","absent","lowProb3","circular","swap","swap","swap","same","red","(177, 0, 0)","lowProb","lowProb4","circular","uniform","1","undefined","0","0.0677083333333","1","1","115.541666667","1","13","22184","0","0","0","0","0","0","0","0","39","0","1","0.0677083333333","115.541666667","13","22184","38","38","38","11/27/18 14:25:05","Default description","yes","<openexp._canvas.legacy.Legacy object at 0x05E611B0>","<openexp._canvas.legacy.Legacy object at 0x05E6E9F0>","<openexp._canvas.legacy.Legacy object at 0x06018A70>","<openexp._canvas.legacy.Legacy object at 0x05DBFE70>","<openexp._canvas.legacy.Legacy object at 0x05DAA8D0>","<openexp._canvas.legacy.Legacy object at 0x05E52210>","<openexp._canvas.legacy.Legacy object at 0x0600FC70>","<openexp._canvas.legacy.Legacy object at 0x05E6E210>","75","SpatProbMultiple3.osexp","C:/Userdata/Michel/SpatProbMultiple3","no","mono","no","18","no","white","no","yes","0.09","98","1050","legacy","315","13","13","1","C:/Userdata/Michel/SpatProbMultiple3/subject-14.csv","legacy","9","192","25","Kafkaesque Koffka","3.2.5","yes","598477b2b83f69022949e7e9","47","red","circular","red","circular","0","/","860","space","19765","19765","(80, 80, 80)","(0, 123, 0)","(177, 0, 0)","(155, 155, 155)","2","legacy","experiment","[5, 6, 7, 0, 1, 2, 3, 4]","/","2500","3000","0","8","252.758751519","1024","2","48000","-16","main","[(0, -252), (178, -178), (252, 0), (178, 178), (0, 252), (-178, 178), (-252, 0), (-178, -178)]","[]","14","even","2","NA","205644","333337","333337","89350","88340","1953","116335","116335","1953","1953","109115","377634","1949","333337","376771","375988","375988","NA","773","study_X","0","19765","1","yes","1680"
"undefined","undefined","NA","NA","NA","19765","19765","black","no","legacy","legacy","legacy","0","red","(177, 0, 0)","shape","present","lowProb2","circular","same","same","same","swap","red","(177, 0, 0)","lowProb","lowProb3","rectangular","uniform","1","undefined","0","0.0729166666667","1","1","123.458333333","1","14","23704","0","0","0","0","0","0","0","0","40","0","1","0.0729166666667","123.458333333","14","23704","39","39","39","11/27/18 14:25:05","Default description","yes","<openexp._canvas.legacy.Legacy object at 0x05E611B0>","<openexp._canvas.legacy.Legacy object at 0x05E6E9F0>","<openexp._canvas.legacy.Legacy object at 0x06018A70>","<openexp._canvas.legacy.Legacy object at 0x05DBFE70>","<openexp._canvas.legacy.Legacy object at 0x05DAA8D0>","<openexp._canvas.legacy.Legacy object at 0x05E52210>","<openexp._canvas.legacy.Legacy object at 0x05E6E830>","<openexp._canvas.legacy.Legacy object at 0x05E6E210>","75","SpatProbMultiple3.osexp","C:/Userdata/Michel/SpatProbMultiple3","no","mono","no","18","no","white","no","yes","0.09","98","1050","legacy","315","14","14","1","C:/Userdata/Michel/SpatProbMultiple3/subject-14.csv","legacy","9","192","25","Kafkaesque Koffka","3.2.5","yes","598477b2b83f69022949e7e9","47","red","circular","red","rectangular","0","/","1520","space","19765","19765","(80, 80, 80)","(0, 123, 0)","(177, 0, 0)","(155, 155, 155)","2","legacy","experiment","[5, 6, 7, 0, 1, 2, 3, 4]","/","2500","3000","0","8","252.758751519","1024","2","48000","-16","main","[(0, -252), (178, -178), (252, 0), (178, 178), (0, 252), (-178, 178), (-252, 0), (-178, -178)]","[]","14","even","0","NA","205644","333337","333337","89350","88340","1953","116335","116335","1953","1953","109115","380426","1949","333337","378903","378120","378121","NA","773","study_X","0","19765","1","yes","1680"
"undefined","undefined","NA","NA","NA","19765","19765","black","no","legacy","legacy","legacy","0","red","(177, 0, 0)","shape","present","highProb","rectangular","same","swap","same","swap","red","(177, 0, 0)","highProbColor","highProbColor","circular","uniform","1","undefined","0","0.078125","1","1","127.338541667","1","15","24449","0","0","0","0","0","0","0","0","41","0","1","0.078125","127.338541667","15","24449","40","40","40","11/27/18 14:25:05","Default description","yes","<openexp._canvas.legacy.Legacy object at 0x05E611B0>","<openexp._canvas.legacy.Legacy object at 0x05E6E9F0>","<openexp._canvas.legacy.Legacy object at 0x06018A70>","<openexp._canvas.legacy.Legacy object at 0x05DBFE70>","<openexp._canvas.legacy.Legacy object at 0x05DAA8D0>","<openexp._canvas.legacy.Legacy object at 0x05E52210>","<openexp._canvas.legacy.Legacy object at 0x0590A630>","<openexp._canvas.legacy.Legacy object at 0x05E6E210>","75","SpatProbMultiple3.osexp","C:/Userdata/Michel/SpatProbMultiple3","no","mono","no","18","no","white","no","yes","0.09","98","1050","legacy","45","15","15","1","C:/Userdata/Michel/SpatProbMultiple3/subject-14.csv","legacy","9","192","25","Kafkaesque Koffka","3.2.5","yes","598477b2b83f69022949e7e9","47","red","rectangular","red","circular","0","\","745","space","19765","19765","(80, 80, 80)","(0, 123, 0)","(177, 0, 0)","(155, 155, 155)","2","legacy","experiment","[5, 6, 7, 0, 1, 2, 3, 4]","\","2500","3000","0","8","252.758751519","1024","2","48000","-16","main","[(0, -252), (178, -178), (252, 0), (178, 178), (0, 252), (-178, 178), (-252, 0), (-178, -178)]","[]","14","even","5","NA","205644","333337","333337","89350","88340","1953","116335","116335","1953","1953","109115","382386","1949","333337","381637","380855","380855","NA","773","study_X","0","19765","1","yes","1680"
"undefined","undefined","NA","NA","NA","19765","19765","black","no","legacy","legacy","legacy","0","green","(0, 123, 0)","shape","present","highProb","rectangular","swap","same","swap","same","green","(0, 123, 0)","lowProb","lowProb5","circular","uniform","1","undefined","0","0.0833333333333","1","1","133.401041667","1","16","25613","0","0","0","0","0","0","0","0","42","0","1","0.0833333333333","133.401041667","16","25613","41","41","41","11/27/18 14:25:05","Default description","yes","<openexp._canvas.legacy.Legacy object at 0x05E611B0>","<openexp._canvas.legacy.Legacy object at 0x05E6E9F0>","<openexp._canvas.legacy.Legacy object at 0x06018A70>","<openexp._canvas.legacy.Legacy object at 0x05DBFE70>","<openexp._canvas.legacy.Legacy object at 0x05DAA8D0>","<openexp._canvas.legacy.Legacy object at 0x05E52210>","<openexp._canvas.legacy.Legacy object at 0x06019770>","<openexp._canvas.legacy.Legacy object at 0x05E6E210>","75","SpatProbMultiple3.osexp","C:/Userdata/Michel/SpatProbMultiple3","no","mono","no","18","no","white","no","yes","0.09","98","1050","legacy","45","16","16","1","C:/Userdata/Michel/SpatProbMultiple3/subject-14.csv","legacy","9","192","25","Kafkaesque Koffka","3.2.5","yes","598477b2b83f69022949e7e9","47","green","rectangular","green","circular","0","\","1164","space","19765","19765","(80, 80, 80)","(0, 123, 0)","(177, 0, 0)","(155, 155, 155)","2","legacy","experiment","[5, 6, 7, 0, 1, 2, 3, 4]","\","2500","3000","0","8","252.758751519","1024","2","48000","-16","main","[(0, -252), (178, -178), (252, 0), (178, 178), (0, 252), (-178, 178), (-252, 0), (-178, -178)]","[]","14","even","3","NA","205644","333337","333337","89350","88340","1953","116335","116335","1953","1953","109115","384770","1949","333337","383602","382819","382819","NA","773","study_X","0","19765","1","yes","1680"
"undefined","undefined","NA","NA","NA","19765","19765","black","no","legacy","legacy","legacy","0","red","(177, 0, 0)","shape","present","highProb","rectangular","swap","same","swap","same","red","(177, 0, 0)","highProbColor","highProbColor","circular","uniform","1","undefined","0","0.0885416666667","1","1","139.604166667","1","17","26804","0","0","0","0","0","0","0","0","43","0","1","0.0885416666667","139.604166667","17","26804","42","42","42","11/27/18 14:25:05","Default description","yes","<openexp._canvas.legacy.Legacy object at 0x05E611B0>","<openexp._canvas.legacy.Legacy object at 0x05E6E9F0>","<openexp._canvas.legacy.Legacy object at 0x06018A70>","<openexp._canvas.legacy.Legacy object at 0x05DBFE70>","<openexp._canvas.legacy.Legacy object at 0x05DAA8D0>","<openexp._canvas.legacy.Legacy object at 0x05E52210>","<openexp._canvas.legacy.Legacy object at 0x060097F0>","<openexp._canvas.legacy.Legacy object at 0x05E6E210>","75","SpatProbMultiple3.osexp","C:/Userdata/Michel/SpatProbMultiple3","no","mono","no","18","no","white","no","yes","0.09","98","1050","legacy","315","17","17","1","C:/Userdata/Michel/SpatProbMultiple3/subject-14.csv","legacy","9","192","25","Kafkaesque Koffka","3.2.5","yes","598477b2b83f69022949e7e9","47","red","rectangular","red","circular","0","/","1191","space","19765","19765","(80, 80, 80)","(0, 123, 0)","(177, 0, 0)","(155, 155, 155)","2","legacy","experiment","[5, 6, 7, 0, 1, 2, 3, 4]","/","2500","3000","0","8","252.758751519","1024","2","48000","-16","main","[(0, -252), (178, -178), (252, 0), (178, 178), (0, 252), (-178, 178), (-252, 0), (-178, -178)]","[]","14","even","5","NA","205644","333337","333337","89350","88340","1953","116335","116335","1953","1953","109115","387170","1949","333337","385975","385193","385193","NA","773","study_X","0","19765","1","yes","1680"
"undefined","undefined","NA","NA","NA","19765","19765","black","no","legacy","legacy","legacy","0","green","(0, 123, 0)","shape","present","highProb","rectangular","swap","same","swap","same","green","(0, 123, 0)","lowProb","lowProb2","circular","uniform","0","undefined","0","0.0885416666667","1","1","152.625","1","17","29304","0","0","0","0","0","0","0","0","44","0","1","0.0885416666667","152.625","17","29304","43","43","43","11/27/18 14:25:05","Default description","yes","<openexp._canvas.legacy.Legacy object at 0x05E611B0>","<openexp._canvas.legacy.Legacy object at 0x05E6E9F0>","<openexp._canvas.legacy.Legacy object at 0x06018A70>","<openexp._canvas.legacy.Legacy object at 0x05DBFE70>","<openexp._canvas.legacy.Legacy object at 0x05DAA8D0>","<openexp._canvas.legacy.Legacy object at 0x05E52210>","<openexp._canvas.legacy.Legacy object at 0x060099F0>","<openexp._canvas.legacy.Legacy object at 0x05E6E210>","75","SpatProbMultiple3.osexp","C:/Userdata/Michel/SpatProbMultiple3","no","mono","no","18","no","white","no","yes","0.09","98","1050","legacy","45","18","18","1","C:/Userdata/Michel/SpatProbMultiple3/subject-14.csv","legacy","9","192","25","Kafkaesque Koffka","3.2.5","yes","598477b2b83f69022949e7e9","47","green","rectangular","green","circular","0","None","2500","space","19765","19765","(80, 80, 80)","(0, 123, 0)","(177, 0, 0)","(155, 155, 155)","2","legacy","experiment","[5, 6, 7, 0, 1, 2, 3, 4]","\","2500","3000","0","8","252.758751519","1024","2","48000","-16","main","[(0, -252), (178, -178), (252, 0), (178, 178), (0, 252), (-178, 178), (-252, 0), (-178, -178)]","[]","14","even","7","NA","205644","333337","333337","89350","88340","1953","116335","116335","1953","1953","109115","390902","1949","333337","388400","387617","387618","NA","773","study_X","0","19765","1","yes","1680"
"undefined","undefined","NA","NA","NA","19765","19765","black","no","legacy","legacy","legacy","0","green","(0, 123, 0)","color","present","lowProb3","rectangular","same","same","swap","swap","red","(177, 0, 0)","lowProb","lowProb4","rectangular","uniform","1","undefined","0","0.09375","1","1","162.036458333","1","18","31111","0","0","0","0","0","0","0","0","45","0","1","0.09375","162.036458333","18","31111","44","44","44","11/27/18 14:25:05","Default description","yes","<openexp._canvas.legacy.Legacy object at 0x05E611B0>","<openexp._canvas.legacy.Legacy object at 0x05E6E9F0>","<openexp._canvas.legacy.Legacy object at 0x06018A70>","<openexp._canvas.legacy.Legacy object at 0x05DBFE70>","<openexp._canvas.legacy.Legacy object at 0x05DAA8D0>","<openexp._canvas.legacy.Legacy object at 0x05E52210>","<openexp._canvas.legacy.Legacy object at 0x0600C4F0>","<openexp._canvas.legacy.Legacy object at 0x05E6E210>","75","SpatProbMultiple3.osexp","C:/Userdata/Michel/SpatProbMultiple3","no","mono","no","18","no","white","no","yes","0.09","98","1050","legacy","45","19","19","1","C:/Userdata/Michel/SpatProbMultiple3/subject-14.csv","legacy","9","192","25","Kafkaesque Koffka","3.2.5","yes","598477b2b83f69022949e7e9","47","green","rectangular","red","rectangular","0","\","1807","space","19765","19765","(80, 80, 80)","(0, 123, 0)","(177, 0, 0)","(155, 155, 155)","2","legacy","experiment","[5, 6, 7, 0, 1, 2, 3, 4]","\","2500","3000","0","8","252.758751519","1024","2","48000","-16","main","[(0, -252), (178, -178), (252, 0), (178, 178), (0, 252), (-178, 178), (-252, 0), (-178, -178)]","[]","14","even","2","NA","205644","333337","333337","89350","88340","1953","116335","116335","1953","1953","109115","393914","1949","333337","392104","391322","391322","NA","773","study_X","0","19765","1","yes","1680"
"undefined","undefined","NA","NA","NA","19765","19765","black","no","legacy","legacy","legacy","0","red","(177, 0, 0)","color","present","highProb","circular","swap","swap","swap","swap","green","(0, 123, 0)","lowProb","lowProb1","circular","uniform","1","undefined","0","0.0989583333333","1","1","166.682291667","1","19","32003","0","0","0","0","0","0","0","0","46","0","1","0.0989583333333","166.682291667","19","32003","45","45","45","11/27/18 14:25:05","Default description","yes","<openexp._canvas.legacy.Legacy object at 0x05E611B0>","<openexp._canvas.legacy.Legacy object at 0x05E6E9F0>","<openexp._canvas.legacy.Legacy object at 0x06018A70>","<openexp._canvas.legacy.Legacy object at 0x05DBFE70>","<openexp._canvas.legacy.Legacy object at 0x05DAA8D0>","<openexp._canvas.legacy.Legacy object at 0x05E52210>","<openexp._canvas.legacy.Legacy object at 0x06019B50>","<openexp._canvas.legacy.Legacy object at 0x05E6E210>","75","SpatProbMultiple3.osexp","C:/Userdata/Michel/SpatProbMultiple3","no","mono","no","18","no","white","no","yes","0.09","98","1050","legacy","45","20","20","1","C:/Userdata/Michel/SpatProbMultiple3/subject-14.csv","legacy","9","192","25","Kafkaesque Koffka","3.2.5","yes","598477b2b83f69022949e7e9","47","red","circular","green","circular","0","\","892","space","19765","19765","(80, 80, 80)","(0, 123, 0)","(177, 0, 0)","(155, 155, 155)","2","legacy","experiment","[5, 6, 7, 0, 1, 2, 3, 4]","\","2500","3000","0","8","252.758751519","1024","2","48000","-16","main","[(0, -252), (178, -178), (252, 0), (178, 178), (0, 252), (-178, 178), (-252, 0), (-178, -178)]","[]","14","even","6","NA","205644","333337","333337","89350","88340","1953","116335","116335","1953","1953","109115","396018","1949","333337","395123","394341","394341","NA","773","study_X","0","19765","1","yes","1680"
"undefined","undefined","NA","NA","NA","19765","19765","black","no","legacy","legacy","legacy","0","red","(177, 0, 0)","color","present","lowProb2","rectangular","same","swap","same","swap","green","(0, 123, 0)","lowProb","lowProb4","rectangular","uniform","1","undefined","0","0.104166666667","1","1","171.583333333","1","20","32944","0","0","0","0","0","0","0","0","47","0","1","0.104166666667","171.583333333","20","32944","46","46","46","11/27/18 14:25:05","Default description","yes","<openexp._canvas.legacy.Legacy object at 0x05E611B0>","<openexp._canvas.legacy.Legacy object at 0x05E6E9F0>","<openexp._canvas.legacy.Legacy object at 0x06018A70>","<openexp._canvas.legacy.Legacy object at 0x05DBFE70>","<openexp._canvas.legacy.Legacy object at 0x05DAA8D0>","<openexp._canvas.legacy.Legacy object at 0x05E52210>","<openexp._canvas.legacy.Legacy object at 0x05E521D0>","<openexp._canvas.legacy.Legacy object at 0x05E6E210>","75","SpatProbMultiple3.osexp","C:/Userdata/Michel/SpatProbMultiple3","no","mono","no","18","no","white","no","yes","0.09","98","1050","legacy","45","21","21","1","C:/Userdata/Michel/SpatProbMultiple3/subject-14.csv","legacy","9","192","25","Kafkaesque Koffka","3.2.5","yes","598477b2b83f69022949e7e9","47","red","rectangular","green","rectangular","0","\","941","space","19765","19765","(80, 80, 80)","(0, 123, 0)","(177, 0, 0)","(155, 155, 155)","2","legacy","experiment","[5, 6, 7, 0, 1, 2, 3, 4]","\","2500","3000","0","8","252.758751519","1024","2","48000","-16","main","[(0, -252), (178, -178), (252, 0), (178, 178), (0, 252), (-178, 178), (-252, 0), (-178, -178)]","[]","14","even","2","NA","205644","333337","333337","89350","88340","1953","116335","116335","1953","1953","109115","398194","1949","333337","397249","396467","396467","NA","773","study_X","0","19765","1","yes","1680"
"undefined","undefined","NA","NA","NA","19765","19765","black","no","legacy","legacy","legacy","0","green","(0, 123, 0)","color","present","highProb","circular","swap","swap","swap","swap","red","(177, 0, 0)","lowProb","lowProb4","circular","uniform","1","undefined","0","0.109375","1","1","175.104166667","1","21","33620","0","0","0","0","0","0","0","0","48","0","1","0.109375","175.104166667","21","33620","47","47","47","11/27/18 14:25:05","Default description","yes","<openexp._canvas.legacy.Legacy object at 0x05E611B0>","<openexp._canvas.legacy.Legacy object at 0x05E6E9F0>","<openexp._canvas.legacy.Legacy object at 0x06018A70>","<openexp._canvas.legacy.Legacy object at 0x05DBFE70>","<openexp._canvas.legacy.Legacy object at 0x05DAA8D0>","<openexp._canvas.legacy.Legacy object at 0x05E52210>","<openexp._canvas.legacy.Legacy object at 0x0600C9B0>","<openexp._canvas.legacy.Legacy object at 0x05E6E210>","75","SpatProbMultiple3.osexp","C:/Userdata/Michel/SpatProbMultiple3","no","mono","no","18","no","white","no","yes","0.09","98","1050","legacy","315","22","22","1","C:/Userdata/Michel/SpatProbMultiple3/subject-14.csv","legacy","9","192","25","Kafkaesque Koffka","3.2.5","yes","598477b2b83f69022949e7e9","47","green","circular","red","circular","0","/","676","space","19765","19765","(80, 80, 80)","(0, 123, 0)","(177, 0, 0)","(155, 155, 155)","2","legacy","experiment","[5, 6, 7, 0, 1, 2, 3, 4]","/","2500","3000","0","8","252.758751519","1024","2","48000","-16","main","[(0, -252), (178, -178), (252, 0), (178, 178), (0, 252), (-178, 178), (-252, 0), (-178, -178)]","[]","14","even","2","NA","205644","333337","333337","89350","88340","1953","116335","116335","1953","1953","109115","400082","1949","333337","399402","398619","398619","NA","773","study_X","0","19765","1","yes","1680"
"undefined","undefined","NA","NA","NA","19765","19765","black","no","legacy","legacy","legacy","0","red","(177, 0, 0)","shape","present","lowProb5","rectangular","swap","swap","same","same","red","(177, 0, 0)","lowProb","lowProb6","circular","uniform","1","undefined","0","0.114583333333","1","1","181.078125","1","22","34767","0","0","0","0","0","0","0","0","49","0","1","0.114583333333","181.078125","22","34767","48","48","48","11/27/18 14:25:05","Default description","yes","<openexp._canvas.legacy.Legacy object at 0x05E611B0>","<openexp._canvas.legacy.Legacy object at 0x05E6E9F0>","<openexp._canvas.legacy.Legacy object at 0x06018A70>","<openexp._canvas.legacy.Legacy object at 0x05DBFE70>","<openexp._canvas.legacy.Legacy object at 0x05DAA8D0>","<openexp._canvas.legacy.Legacy object at 0x05E52210>","<openexp._canvas.legacy.Legacy object at 0x06019770>","<openexp._canvas.legacy.Legacy object at 0x05E6E210>","75","SpatProbMultiple3.osexp","C:/Userdata/Michel/SpatProbMultiple3","no","mono","no","18","no","white","no","yes","0.09","98","1050","legacy","315","23","23","1","C:/Userdata/Michel/SpatProbMultiple3/subject-14.csv","legacy","9","192","25","Kafkaesque Koffka","3.2.5","yes","598477b2b83f69022949e7e9","47","red","rectangular","red","circular","0","/","1147","space","19765","19765","(80, 80, 80)","(0, 123, 0)","(177, 0, 0)","(155, 155, 155)","2","legacy","experiment","[5, 6, 7, 0, 1, 2, 3, 4]","/","2500","3000","0","8","252.758751519","1024","2","48000","-16","main","[(0, -252), (178, -178), (252, 0), (178, 178), (0, 252), (-178, 178), (-252, 0), (-178, -178)]","[]","14","even","4","NA","205644","333337","333337","89350","88340","1953","116335","116335","1953","1953","109115","402442","1949","333337","401292","400510","400510","NA","773","study_X","0","19765","1","yes","1680"
"undefined","undefined","NA","NA","NA","19765","19765","black","no","legacy","legacy","legacy","0","red","(177, 0, 0)","shape","present","highProb","rectangular","same","same","same","same","red","(177, 0, 0)","lowProb","lowProb3","circular","uniform","1","undefined","0","0.119791666667","1","1","190.46875","1","23","36570","0","0","0","0","0","0","0","0","50","0","1","0.119791666667","190.46875","23","36570","49","49","49","11/27/18 14:25:05","Default description","yes","<openexp._canvas.legacy.Legacy object at 0x05E611B0>","<openexp._canvas.legacy.Legacy object at 0x05E6E9F0>","<openexp._canvas.legacy.Legacy object at 0x06018A70>","<openexp._canvas.legacy.Legacy object at 0x05DBFE70>","<openexp._canvas.legacy.Legacy object at 0x05DAA8D0>","<openexp._canvas.legacy.Legacy object at 0x05E52210>","<openexp._canvas.legacy.Legacy object at 0x06009C70>","<openexp._canvas.legacy.Legacy object at 0x05E6E210>","75","SpatProbMultiple3.osexp","C:/Userdata/Michel/SpatProbMultiple3","no","mono","no","18","no","white","no","yes","0.09","98","1050","legacy","315","24","24","1","C:/Userdata/Michel/SpatProbMultiple3/subject-14.csv","legacy","9","192","25","Kafkaesque Koffka","3.2.5","yes","598477b2b83f69022949e7e9","47","red","rectangular","red","circular","0","/","1803","space","19765","19765","(80, 80, 80)","(0, 123, 0)","(177, 0, 0)","(155, 155, 155)","2","legacy","experiment","[5, 6, 7, 0, 1, 2, 3, 4]","/","2500","3000","0","8","252.758751519","1024","2","48000","-16","main","[(0, -252), (178, -178), (252, 0), (178, 178), (0, 252), (-178, 178), (-252, 0), (-178, -178)]","[]","14","even","0","NA","205644","333337","333337","89350","88340","1953","116335","116335","1953","1953","109115","405457","1949","333337","403651","402868","402868","NA","773","study_X","0","19765","1","yes","1680"
"undefined","undefined","NA","NA","NA","19765","19765","black","no","legacy","legacy","legacy","0","red","(177, 0, 0)","color","present","highProb","rectangular","same","same","swap","swap","green","(0, 123, 0)","highProbShape","highProbShape","rectangular","uniform","1","undefined","0","0.125","1","1","200.661458333","1","24","38527","0","0","0","0","0","0","0","0","51","0","1","0.125","200.661458333","24","38527","50","50","50","11/27/18 14:25:05","Default description","yes","<openexp._canvas.legacy.Legacy object at 0x05E611B0>","<openexp._canvas.legacy.Legacy object at 0x05E6E9F0>","<openexp._canvas.legacy.Legacy object at 0x06018A70>","<openexp._canvas.legacy.Legacy object at 0x05DBFE70>","<openexp._canvas.legacy.Legacy object at 0x05DAA8D0>","<openexp._canvas.legacy.Legacy object at 0x05E52210>","<openexp._canvas.legacy.Legacy object at 0x0600C650>","<openexp._canvas.legacy.Legacy object at 0x05E6E210>","75","SpatProbMultiple3.osexp","C:/Userdata/Michel/SpatProbMultiple3","no","mono","no","18","no","white","no","yes","0.09","98","1050","legacy","315","25","25","1","C:/Userdata/Michel/SpatProbMultiple3/subject-14.csv","legacy","9","192","25","Kafkaesque Koffka","3.2.5","yes","598477b2b83f69022949e7e9","47","red","rectangular","green","rectangular","0","/","1957","space","19765","19765","(80, 80, 80)","(0, 123, 0)","(177, 0, 0)","(155, 155, 155)","2","legacy","experiment","[5, 6, 7, 0, 1, 2, 3, 4]","/","2500","3000","0","8","252.758751519","1024","2","48000","-16","main","[(0, -252), (178, -178), (252, 0), (178, 178), (0, 252), (-178, 178), (-252, 0), (-178, -178)]","[]","14","even","1","NA","205644","333337","333337","89350","88340","1953","116335","116335","1953","1953","109115","408625","1949","333337","406666","405884","405884","NA","773","study_X","0","19765","1","yes","1680"
"undefined","undefined","NA","NA","NA","19765","19765","black","no","legacy","legacy","legacy","0","red","(177, 0, 0)","color","present","highProb","circular","same","swap","same","swap","green","(0, 123, 0)","lowProb","lowProb2","circular","uniform","1","undefined","0","0.130208333333","1","1","207.484375","1","25","39837","0","0","0","0","0","0","0","0","52","0","1","0.130208333333","207.484375","25","39837","51","51","51","11/27/18 14:25:05","Default description","yes","<openexp._canvas.legacy.Legacy object at 0x05E611B0>","<openexp._canvas.legacy.Legacy object at 0x05E6E9F0>","<openexp._canvas.legacy.Legacy object at 0x06018A70>","<openexp._canvas.legacy.Legacy object at 0x05DBFE70>","<openexp._canvas.legacy.Legacy object at 0x05DAA8D0>","<openexp._canvas.legacy.Legacy object at 0x05E52210>","<openexp._canvas.legacy.Legacy object at 0x05E6E5F0>","<openexp._canvas.legacy.Legacy object at 0x05E6E210>","75","SpatProbMultiple3.osexp","C:/Userdata/Michel/SpatProbMultiple3","no","mono","no","18","no","white","no","yes","0.09","98","1050","legacy","315","26","26","1","C:/Userdata/Michel/SpatProbMultiple3/subject-14.csv","legacy","9","192","25","Kafkaesque Koffka","3.2.5","yes","598477b2b83f69022949e7e9","47","red","circular","green","circular","0","/","1310","space","19765","19765","(80, 80, 80)","(0, 123, 0)","(177, 0, 0)","(155, 155, 155)","2","legacy","experiment","[5, 6, 7, 0, 1, 2, 3, 4]","/","2500","3000","0","8","252.758751519","1024","2","48000","-16","main","[(0, -252), (178, -178), (252, 0), (178, 178), (0, 252), (-178, 178), (-252, 0), (-178, -178)]","[]","14","even","7","NA","205644","333337","333337","89350","88340","1953","116335","116335","1953","1953","109115","411154","1949","333337","409841","409058","409058","NA","773","study_X","0","19765","1","yes","1680"
"undefined","undefined","NA","NA","NA","19765","19765","black","no","legacy","legacy","legacy","0","red","(177, 0, 0)","color","present","highProb","rectangular","same","swap","same","swap","green","(0, 123, 0)","lowProb","lowProb2","rectangular","uniform","1","undefined","0","0.135416666667","1","1","213.046875","1","26","40905","0","0","0","0","0","0","0","0","53","0","1","0.135416666667","213.046875","26","40905","52","52","52","11/27/18 14:25:05","Default description","yes","<openexp._canvas.legacy.Legacy object at 0x05E611B0>","<openexp._canvas.legacy.Legacy object at 0x05E6E9F0>","<openexp._canvas.legacy.Legacy object at 0x06018A70>","<openexp._canvas.legacy.Legacy object at 0x05DBFE70>","<openexp._canvas.legacy.Legacy object at 0x05DAA8D0>","<openexp._canvas.legacy.Legacy object at 0x05E52210>","<openexp._canvas.legacy.Legacy object at 0x05E6EED0>","<openexp._canvas.legacy.Legacy object at 0x05E6E210>","75","SpatProbMultiple3.osexp","C:/Userdata/Michel/SpatProbMultiple3","no","mono","no","18","no","white","no","yes","0.09","98","1050","legacy","315","27","27","1","C:/Userdata/Michel/SpatProbMultiple3/subject-14.csv","legacy","9","192","25","Kafkaesque Koffka","3.2.5","yes","598477b2b83f69022949e7e9","47","red","rectangular","green","rectangular","0","/","1068","space","19765","19765","(80, 80, 80)","(0, 123, 0)","(177, 0, 0)","(155, 155, 155)","2","legacy","experiment","[5, 6, 7, 0, 1, 2, 3, 4]","/","2500","3000","0","8","252.758751519","1024","2","48000","-16","main","[(0, -252), (178, -178), (252, 0), (178, 178), (0, 252), (-178, 178), (-252, 0), (-178, -178)]","[]","14","even","7","NA","205644","333337","333337","89350","88340","1953","116335","116335","1953","1953","109115","413434","1949","333337","412362","411580","411580","NA","773","study_X","0","19765","1","yes","1680"
"undefined","undefined","NA","NA","NA","19765","19765","black","no","legacy","legacy","legacy","0","green","(0, 123, 0)","color","absent","lowProb4","rectangular","swap","same","same","same","green","(0, 123, 0)","highProbColor","highProbColor","rectangular","uniform","1","undefined","0","0.140625","1","1","216.625","1","27","41592","0","0","0","0","0","0","0","0","54","0","1","0.140625","216.625","27","41592","53","53","53","11/27/18 14:25:05","Default description","yes","<openexp._canvas.legacy.Legacy object at 0x05E611B0>","<openexp._canvas.legacy.Legacy object at 0x05E6E9F0>","<openexp._canvas.legacy.Legacy object at 0x06018A70>","<openexp._canvas.legacy.Legacy object at 0x05DBFE70>","<openexp._canvas.legacy.Legacy object at 0x05DAA8D0>","<openexp._canvas.legacy.Legacy object at 0x05E52210>","<openexp._canvas.legacy.Legacy object at 0x06015990>","<openexp._canvas.legacy.Legacy object at 0x05E6E210>","75","SpatProbMultiple3.osexp","C:/Userdata/Michel/SpatProbMultiple3","no","mono","no","18","no","white","no","yes","0.09","98","1050","legacy","315","28","28","1","C:/Userdata/Michel/SpatProbMultiple3/subject-14.csv","legacy","9","192","25","Kafkaesque Koffka","3.2.5","yes","598477b2b83f69022949e7e9","47","green","rectangular","green","rectangular","0","/","687","space","19765","19765","(80, 80, 80)","(0, 123, 0)","(177, 0, 0)","(155, 155, 155)","2","legacy","experiment","[5, 6, 7, 0, 1, 2, 3, 4]","/","2500","3000","0","8","252.758751519","1024","2","48000","-16","main","[(0, -252), (178, -178), (252, 0), (178, 178), (0, 252), (-178, 178), (-252, 0), (-178, -178)]","[]","14","even","5","NA","205644","333337","333337","89350","88340","1953","116335","116335","1953","1953","109115","415338","1949","333337","414647","413864","413864","NA","773","study_X","0","19765","1","yes","1680"
"undefined","undefined","NA","NA","NA","19765","19765","black","no","legacy","legacy","legacy","0","green","(0, 123, 0)","shape","present","highProbOther","rectangular","same","same","same","swap","green","(0, 123, 0)","lowProb","lowProb2","circular","uniform","1","undefined","0","0.145833333333","1","1","225.947916667","1","28","43382","0","0","0","0","0","0","0","0","55","0","1","0.145833333333","225.947916667","28","43382","54","54","54","11/27/18 14:25:05","Default description","yes","<openexp._canvas.legacy.Legacy object at 0x05E611B0>","<openexp._canvas.legacy.Legacy object at 0x05E6E9F0>","<openexp._canvas.legacy.Legacy object at 0x06018A70>","<openexp._canvas.legacy.Legacy object at 0x05DBFE70>","<openexp._canvas.legacy.Legacy object at 0x05DAA8D0>","<openexp._canvas.legacy.Legacy object at 0x05E52210>","<openexp._canvas.legacy.Legacy object at 0x0590A9F0>","<openexp._canvas.legacy.Legacy object at 0x05E6E210>","75","SpatProbMultiple3.osexp","C:/Userdata/Michel/SpatProbMultiple3","no","mono","no","18","no","white","no","yes","0.09","98","1050","legacy","45","29","29","1","C:/Userdata/Michel/SpatProbMultiple3/subject-14.csv","legacy","9","192","25","Kafkaesque Koffka","3.2.5","yes","598477b2b83f69022949e7e9","47","green","rectangular","green","circular","0","\","1790","space","19765","19765","(80, 80, 80)","(0, 123, 0)","(177, 0, 0)","(155, 155, 155)","2","legacy","experiment","[5, 6, 7, 0, 1, 2, 3, 4]","\","2500","3000","0","8","252.758751519","1024","2","48000","-16","main","[(0, -252), (178, -178), (252, 0), (178, 178), (0, 252), (-178, 178), (-252, 0), (-178, -178)]","[]","14","even","7","NA","205644","333337","333337","89350","88340","1953","116335","116335","1953","1953","109115","418338","1949","333337","416545","415763","415763","NA","773","study_X","0","19765","1","yes","1680"
"undefined","undefined","NA","NA","NA","19765","19765","black","no","legacy","legacy","legacy","0","red","(177, 0, 0)","color","present","lowProb6","rectangular","swap","same","same","swap","green","(0, 123, 0)","lowProb","lowProb1","rectangular","uniform","1","undefined","0","0.151041666667","1","1","234.869791667","1","29","45095","0","0","0","0","0","0","0","0","56","0","1","0.151041666667","234.869791667","29","45095","55","55","55","11/27/18 14:25:05","Default description","yes","<openexp._canvas.legacy.Legacy object at 0x05E611B0>","<openexp._canvas.legacy.Legacy object at 0x05E6E9F0>","<openexp._canvas.legacy.Legacy object at 0x06018A70>","<openexp._canvas.legacy.Legacy object at 0x05DBFE70>","<openexp._canvas.legacy.Legacy object at 0x05DAA8D0>","<openexp._canvas.legacy.Legacy object at 0x05E52210>","<openexp._canvas.legacy.Legacy object at 0x06009E70>","<openexp._canvas.legacy.Legacy object at 0x05E6E210>","75","SpatProbMultiple3.osexp","C:/Userdata/Michel/SpatProbMultiple3","no","mono","no","18","no","white","no","yes","0.09","98","1050","legacy","45","30","30","1","C:/Userdata/Michel/SpatProbMultiple3/subject-14.csv","legacy","9","192","25","Kafkaesque Koffka","3.2.5","yes","598477b2b83f69022949e7e9","47","red","rectangular","green","rectangular","0","\","1713","space","19765","19765","(80, 80, 80)","(0, 123, 0)","(177, 0, 0)","(155, 155, 155)","2","legacy","experiment","[5, 6, 7, 0, 1, 2, 3, 4]","\","2500","3000","0","8","252.758751519","1024","2","48000","-16","main","[(0, -252), (178, -178), (252, 0), (178, 178), (0, 252), (-178, 178), (-252, 0), (-178, -178)]","[]","14","even","6","NA","205644","333337","333337","89350","88340","1953","116335","116335","1953","1953","109115","421249","1949","333337","419533","418751","418751","NA","773","study_X","0","19765","1","yes","1680"
"undefined","undefined","NA","NA","NA","19765","19765","black","no","legacy","legacy","legacy","0","green","(0, 123, 0)","shape","present","highProb","circular","swap","swap","same","same","green","(0, 123, 0)","lowProb","lowProb4","rectangular","uniform","1","undefined","0","0.15625","1","1","242.427083333","1","30","46546","0","0","0","0","0","0","0","0","57","0","1","0.15625","242.427083333","30","46546","56","56","56","11/27/18 14:25:05","Default description","yes","<openexp._canvas.legacy.Legacy object at 0x05E611B0>","<openexp._canvas.legacy.Legacy object at 0x05E6E9F0>","<openexp._canvas.legacy.Legacy object at 0x06018A70>","<openexp._canvas.legacy.Legacy object at 0x05DBFE70>","<openexp._canvas.legacy.Legacy object at 0x05DAA8D0>","<openexp._canvas.legacy.Legacy object at 0x05E52210>","<openexp._canvas.legacy.Legacy object at 0x060152F0>","<openexp._canvas.legacy.Legacy object at 0x05E6E210>","75","SpatProbMultiple3.osexp","C:/Userdata/Michel/SpatProbMultiple3","no","mono","no","18","no","white","no","yes","0.09","98","1050","legacy","315","31","31","1","C:/Userdata/Michel/SpatProbMultiple3/subject-14.csv","legacy","9","192","25","Kafkaesque Koffka","3.2.5","yes","598477b2b83f69022949e7e9","47","green","circular","green","rectangular","0","/","1451","space","19765","19765","(80, 80, 80)","(0, 123, 0)","(177, 0, 0)","(155, 155, 155)","2","legacy","experiment","[5, 6, 7, 0, 1, 2, 3, 4]","/","2500","3000","0","8","252.758751519","1024","2","48000","-16","main","[(0, -252), (178, -178), (252, 0), (178, 178), (0, 252), (-178, 178), (-252, 0), (-178, -178)]","[]","14","even","2","NA","205644","333337","333337","89350","88340","1953","116335","116335","1953","1953","109115","423905","1949","333337","422451","421669","421669","NA","773","study_X","0","19765","1","yes","1680"
"undefined","undefined","NA","NA","NA","19765","19765","black","no","legacy","legacy","legacy","0","red","(177, 0, 0)","color","present","highProb","rectangular","swap","swap","same","same","green","(0, 123, 0)","lowProb","lowProb1","rectangular","uniform","1","undefined","0","0.161458333333","1","1","250.682291667","1","31","48131","0","0","0","0","0","0","0","0","58","0","1","0.161458333333","250.682291667","31","48131","57","57","57","11/27/18 14:25:05","Default description","yes","<openexp._canvas.legacy.Legacy object at 0x05E611B0>","<openexp._canvas.legacy.Legacy object at 0x05E6E9F0>","<openexp._canvas.legacy.Legacy object at 0x06018A70>","<openexp._canvas.legacy.Legacy object at 0x05DBFE70>","<openexp._canvas.legacy.Legacy object at 0x05DAA8D0>","<openexp._canvas.legacy.Legacy object at 0x05E52210>","<openexp._canvas.legacy.Legacy object at 0x05E6E5F0>","<openexp._canvas.legacy.Legacy object at 0x05E6E210>","75","SpatProbMultiple3.osexp","C:/Userdata/Michel/SpatProbMultiple3","no","mono","no","18","no","white","no","yes","0.09","98","1050","legacy","315","32","32","1","C:/Userdata/Michel/SpatProbMultiple3/subject-14.csv","legacy","9","192","25","Kafkaesque Koffka","3.2.5","yes","598477b2b83f69022949e7e9","47","red","rectangular","green","rectangular","0","/","1585","space","19765","19765","(80, 80, 80)","(0, 123, 0)","(177, 0, 0)","(155, 155, 155)","2","legacy","experiment","[5, 6, 7, 0, 1, 2, 3, 4]","/","2500","3000","0","8","252.758751519","1024","2","48000","-16","main","[(0, -252), (178, -178), (252, 0), (178, 178), (0, 252), (-178, 178), (-252, 0), (-178, -178)]","[]","14","even","6","NA","205644","333337","333337","89350","88340","1953","116335","116335","1953","1953","109115","426698","1949","333337","425110","424328","424328","NA","773","study_X","0","19765","1","yes","1680"
"undefined","undefined","NA","NA","NA","19765","19765","black","no","legacy","legacy","legacy","0","red","(177, 0, 0)","color","present","highProb","rectangular","same","same","same","same","green","(0, 123, 0)","lowProb","lowProb5","rectangular","uniform","1","undefined","0","0.166666666667","1","1","257.260416667","1","32","49394","0","0","0","0","0","0","0","0","59","0","1","0.166666666667","257.260416667","32","49394","58","58","58","11/27/18 14:25:05","Default description","yes","<openexp._canvas.legacy.Legacy object at 0x05E611B0>","<openexp._canvas.legacy.Legacy object at 0x05E6E9F0>","<openexp._canvas.legacy.Legacy object at 0x06018A70>","<openexp._canvas.legacy.Legacy object at 0x05DBFE70>","<openexp._canvas.legacy.Legacy object at 0x05DAA8D0>","<openexp._canvas.legacy.Legacy object at 0x05E52210>","<openexp._canvas.legacy.Legacy object at 0x0600C470>","<openexp._canvas.legacy.Legacy object at 0x05E6E210>","75","SpatProbMultiple3.osexp","C:/Userdata/Michel/SpatProbMultiple3","no","mono","no","18","no","white","no","yes","0.09","98","1050","legacy","45","33","33","1","C:/Userdata/Michel/SpatProbMultiple3/subject-14.csv","legacy","9","192","25","Kafkaesque Koffka","3.2.5","yes","598477b2b83f69022949e7e9","47","red","rectangular","green","rectangular","0","\","1263","space","19765","19765","(80, 80, 80)","(0, 123, 0)","(177, 0, 0)","(155, 155, 155)","2","legacy","experiment","[5, 6, 7, 0, 1, 2, 3, 4]","\","2500","3000","0","8","252.758751519","1024","2","48000","-16","main","[(0, -252), (178, -178), (252, 0), (178, 178), (0, 252), (-178, 178), (-252, 0), (-178, -178)]","[]","14","even","3","NA","205644","333337","333337","89350","88340","1953","116335","116335","1953","1953","109115","429170","1949","333337","427903","427120","427121","NA","773","study_X","0","19765","1","yes","1680"
"undefined","undefined","NA","NA","NA","19765","19765","black","no","legacy","legacy","legacy","0","green","(0, 123, 0)","color","present","highProb","rectangular","swap","same","swap","same","red","(177, 0, 0)","lowProb","lowProb1","rectangular","uniform","1","undefined","0","0.171875","1","1","263.317708333","1","33","50557","0","0","0","0","0","0","0","0","60","0","1","0.171875","263.317708333","33","50557","59","59","59","11/27/18 14:25:05","Default description","yes","<openexp._canvas.legacy.Legacy object at 0x05E611B0>","<openexp._canvas.legacy.Legacy object at 0x05E6E9F0>","<openexp._canvas.legacy.Legacy object at 0x06018A70>","<openexp._canvas.legacy.Legacy object at 0x05DBFE70>","<openexp._canvas.legacy.Legacy object at 0x05DAA8D0>","<openexp._canvas.legacy.Legacy object at 0x05E52210>","<openexp._canvas.legacy.Legacy object at 0x06015230>","<openexp._canvas.legacy.Legacy object at 0x05E6E210>","75","SpatProbMultiple3.osexp","C:/Userdata/Michel/SpatProbMultiple3","no","mono","no","18","no","white","no","yes","0.09","98","1050","legacy","45","34","34","1","C:/Userdata/Michel/SpatProbMultiple3/subject-14.csv","legacy","9","192","25","Kafkaesque Koffka","3.2.5","yes","598477b2b83f69022949e7e9","47","green","rectangular","red","rectangular","0","\","1163","space","19765","19765","(80, 80, 80)","(0, 123, 0)","(177, 0, 0)","(155, 155, 155)","2","legacy","experiment","[5, 6, 7, 0, 1, 2, 3, 4]","\","2500","3000","0","8","252.758751519","1024","2","48000","-16","main","[(0, -252), (178, -178), (252, 0), (178, 178), (0, 252), (-178, 178), (-252, 0), (-178, -178)]","[]","14","even","6","NA","205644","333337","333337","89350","88340","1953","116335","116335","1953","1953","109115","431530","1949","333337","430363","429580","429580","NA","773","study_X","0","19765","1","yes","1680"
"undefined","undefined","NA","NA","NA","19765","19765","black","no","legacy","legacy","legacy","0","red","(177, 0, 0)","color","absent","lowProb1","rectangular","swap","same","same","same","red","(177, 0, 0)","lowProb","lowProb1","rectangular","uniform","1","undefined","0","0.177083333333","1","1","266.84375","1","34","51234","0","0","0","0","0","0","0","0","61","0","1","0.177083333333","266.84375","34","51234","60","60","60","11/27/18 14:25:05","Default description","yes","<openexp._canvas.legacy.Legacy object at 0x05E611B0>","<openexp._canvas.legacy.Legacy object at 0x05E6E9F0>","<openexp._canvas.legacy.Legacy object at 0x06018A70>","<openexp._canvas.legacy.Legacy object at 0x05DBFE70>","<openexp._canvas.legacy.Legacy object at 0x05DAA8D0>","<openexp._canvas.legacy.Legacy object at 0x05E52210>","<openexp._canvas.legacy.Legacy object at 0x0600F4D0>","<openexp._canvas.legacy.Legacy object at 0x05E6E210>","75","SpatProbMultiple3.osexp","C:/Userdata/Michel/SpatProbMultiple3","no","mono","no","18","no","white","no","yes","0.09","98","1050","legacy","315","35","35","1","C:/Userdata/Michel/SpatProbMultiple3/subject-14.csv","legacy","9","192","25","Kafkaesque Koffka","3.2.5","yes","598477b2b83f69022949e7e9","47","red","rectangular","red","rectangular","0","/","677","space","19765","19765","(80, 80, 80)","(0, 123, 0)","(177, 0, 0)","(155, 155, 155)","2","legacy","experiment","[5, 6, 7, 0, 1, 2, 3, 4]","/","2500","3000","0","8","252.758751519","1024","2","48000","-16","main","[(0, -252), (178, -178), (252, 0), (178, 178), (0, 252), (-178, 178), (-252, 0), (-178, -178)]","[]","14","even","6","NA","205644","333337","333337","89350","88340","1953","116335","116335","1953","1953","109115","433418","1949","333337","432737","431954","431954","NA","773","study_X","0","19765","1","yes","1680"
"undefined","undefined","NA","NA","NA","19765","19765","black","no","legacy","legacy","legacy","0","red","(177, 0, 0)","shape","absent","lowProb2","circular","same","swap","same","swap","red","(177, 0, 0)","lowProb","lowProb1","circular","uniform","1","undefined","0","0.182291666667","1","1","271.604166667","1","35","52148","0","0","0","0","0","0","0","0","62","0","1","0.182291666667","271.604166667","35","52148","61","61","61","11/27/18 14:25:05","Default description","yes","<openexp._canvas.legacy.Legacy object at 0x05E611B0>","<openexp._canvas.legacy.Legacy object at 0x05E6E9F0>","<openexp._canvas.legacy.Legacy object at 0x06018A70>","<openexp._canvas.legacy.Legacy object at 0x05DBFE70>","<openexp._canvas.legacy.Legacy object at 0x05DAA8D0>","<openexp._canvas.legacy.Legacy object at 0x05E52210>","<openexp._canvas.legacy.Legacy object at 0x06009230>","<openexp._canvas.legacy.Legacy object at 0x05E6E210>","75","SpatProbMultiple3.osexp","C:/Userdata/Michel/SpatProbMultiple3","no","mono","no","18","no","white","no","yes","0.09","98","1050","legacy","315","36","36","1","C:/Userdata/Michel/SpatProbMultiple3/subject-14.csv","legacy","9","192","25","Kafkaesque Koffka","3.2.5","yes","598477b2b83f69022949e7e9","47","red","circular","red","circular","0","/","914","space","19765","19765","(80, 80, 80)","(0, 123, 0)","(177, 0, 0)","(155, 155, 155)","2","legacy","experiment","[5, 6, 7, 0, 1, 2, 3, 4]","/","2500","3000","0","8","252.758751519","1024","2","48000","-16","main","[(0, -252), (178, -178), (252, 0), (178, 178), (0, 252), (-178, 178), (-252, 0), (-178, -178)]","[]","14","even","6","NA","205644","333337","333337","89350","88340","1953","116335","116335","1953","1953","109115","435545","1949","333337","434628","433845","433845","NA","773","study_X","0","19765","1","yes","1680"
"undefined","undefined","NA","NA","NA","19765","19765","black","no","legacy","legacy","legacy","0","red","(177, 0, 0)","color","present","lowProb4","circular","same","same","swap","same","green","(0, 123, 0)","lowProb","lowProb3","circular","uniform","1","undefined","0","0.1875","1","1","283.828125","1","36","54495","0","0","0","0","0","0","0","0","63","0","1","0.1875","283.828125","36","54495","62","62","62","11/27/18 14:25:05","Default description","yes","<openexp._canvas.legacy.Legacy object at 0x05E611B0>","<openexp._canvas.legacy.Legacy object at 0x05E6E9F0>","<openexp._canvas.legacy.Legacy object at 0x06018A70>","<openexp._canvas.legacy.Legacy object at 0x05DBFE70>","<openexp._canvas.legacy.Legacy object at 0x05DAA8D0>","<openexp._canvas.legacy.Legacy object at 0x05E52210>","<openexp._canvas.legacy.Legacy object at 0x0600C470>","<openexp._canvas.legacy.Legacy object at 0x05E6E210>","75","SpatProbMultiple3.osexp","C:/Userdata/Michel/SpatProbMultiple3","no","mono","no","18","no","white","no","yes","0.09","98","1050","legacy","45","37","37","1","C:/Userdata/Michel/SpatProbMultiple3/subject-14.csv","legacy","9","192","25","Kafkaesque Koffka","3.2.5","yes","598477b2b83f69022949e7e9","47","red","circular","green","circular","0","\","2347","space","19765","19765","(80, 80, 80)","(0, 123, 0)","(177, 0, 0)","(155, 155, 155)","2","legacy","experiment","[5, 6, 7, 0, 1, 2, 3, 4]","\","2500","3000","0","8","252.758751519","1024","2","48000","-16","main","[(0, -252), (178, -178), (252, 0), (178, 178), (0, 252), (-178, 178), (-252, 0), (-178, -178)]","[]","14","even","0","NA","205644","333337","333337","89350","88340","1953","116335","116335","1953","1953","109115","439105","1949","333337","436755","435972","435972","NA","773","study_X","0","19765","1","yes","1680"
"undefined","undefined","NA","NA","NA","19765","19765","black","no","legacy","legacy","legacy","0","red","(177, 0, 0)","shape","present","lowProb4","circular","same","same","swap","swap","red","(177, 0, 0)","lowProb","lowProb3","rectangular","uniform","1","undefined","0","0.192708333333","1","1","293.125","1","37","56280","0","0","0","0","0","0","0","0","64","0","1","0.192708333333","293.125","37","56280","63","63","63","11/27/18 14:25:05","Default description","yes","<openexp._canvas.legacy.Legacy object at 0x05E611B0>","<openexp._canvas.legacy.Legacy object at 0x05E6E9F0>","<openexp._canvas.legacy.Legacy object at 0x06018A70>","<openexp._canvas.legacy.Legacy object at 0x05DBFE70>","<openexp._canvas.legacy.Legacy object at 0x05DAA8D0>","<openexp._canvas.legacy.Legacy object at 0x05E52210>","<openexp._canvas.legacy.Legacy object at 0x0590A670>","<openexp._canvas.legacy.Legacy object at 0x05E6E210>","75","SpatProbMultiple3.osexp","C:/Userdata/Michel/SpatProbMultiple3","no","mono","no","18","no","white","no","yes","0.09","98","1050","legacy","45","38","38","1","C:/Userdata/Michel/SpatProbMultiple3/subject-14.csv","legacy","9","192","25","Kafkaesque Koffka","3.2.5","yes","598477b2b83f69022949e7e9","47","red","circular","red","rectangular","0","\","1785","space","19765","19765","(80, 80, 80)","(0, 123, 0)","(177, 0, 0)","(155, 155, 155)","2","legacy","experiment","[5, 6, 7, 0, 1, 2, 3, 4]","\","2500","3000","0","8","252.758751519","1024","2","48000","-16","main","[(0, -252), (178, -178), (252, 0), (178, 178), (0, 252), (-178, 178), (-252, 0), (-178, -178)]","[]","14","even","0","NA","205644","333337","333337","89350","88340","1953","116335","116335","1953","1953","109115","442097","1949","333337","440309","439527","439527","NA","773","study_X","0","19765","1","yes","1680"
"undefined","undefined","NA","NA","NA","19765","19765","black","no","legacy","legacy","legacy","0","red","(177, 0, 0)","color","present","highProb","rectangular","same","swap","swap","same","green","(0, 123, 0)","lowProb","lowProb4","rectangular","uniform","1","undefined","0","0.197916666667","1","1","297.75","1","38","57168","0","0","0","0","0","0","0","0","65","0","1","0.197916666667","297.75","38","57168","64","64","64","11/27/18 14:25:05","Default description","yes","<openexp._canvas.legacy.Legacy object at 0x05E611B0>","<openexp._canvas.legacy.Legacy object at 0x05E6E9F0>","<openexp._canvas.legacy.Legacy object at 0x06018A70>","<openexp._canvas.legacy.Legacy object at 0x05DBFE70>","<openexp._canvas.legacy.Legacy object at 0x05DAA8D0>","<openexp._canvas.legacy.Legacy object at 0x05E52210>","<openexp._canvas.legacy.Legacy object at 0x05E6EAD0>","<openexp._canvas.legacy.Legacy object at 0x05E6E210>","75","SpatProbMultiple3.osexp","C:/Userdata/Michel/SpatProbMultiple3","no","mono","no","18","no","white","no","yes","0.09","98","1050","legacy","45","39","39","1","C:/Userdata/Michel/SpatProbMultiple3/subject-14.csv","legacy","9","192","25","Kafkaesque Koffka","3.2.5","yes","598477b2b83f69022949e7e9","47","red","rectangular","green","rectangular","0","\","888","space","19765","19765","(80, 80, 80)","(0, 123, 0)","(177, 0, 0)","(155, 155, 155)","2","legacy","experiment","[5, 6, 7, 0, 1, 2, 3, 4]","\","2500","3000","0","8","252.758751519","1024","2","48000","-16","main","[(0, -252), (178, -178), (252, 0), (178, 178), (0, 252), (-178, 178), (-252, 0), (-178, -178)]","[]","14","even","2","NA","205644","333337","333337","89350","88340","1953","116335","116335","1953","1953","109115","444186","1949","333337","443294","442512","442512","NA","773","study_X","0","19765","1","yes","1680"
"undefined","undefined","NA","NA","NA","19765","19765","black","no","legacy","legacy","legacy","0","red","(177, 0, 0)","color","present","highProb","circular","same","swap","same","swap","green","(0, 123, 0)","lowProb","lowProb3","circular","uniform","1","undefined","0","0.203125","1","1","304.067708333","1","39","58381","0","0","0","0","0","0","0","0","66","0","1","0.203125","304.067708333","39","58381","65","65","65","11/27/18 14:25:05","Default description","yes","<openexp._canvas.legacy.Legacy object at 0x05E611B0>","<openexp._canvas.legacy.Legacy object at 0x05E6E9F0>","<openexp._canvas.legacy.Legacy object at 0x06018A70>","<openexp._canvas.legacy.Legacy object at 0x05DBFE70>","<openexp._canvas.legacy.Legacy object at 0x05DAA8D0>","<openexp._canvas.legacy.Legacy object at 0x05E52210>","<openexp._canvas.legacy.Legacy object at 0x060152B0>","<openexp._canvas.legacy.Legacy object at 0x05E6E210>","75","SpatProbMultiple3.osexp","C:/Userdata/Michel/SpatProbMultiple3","no","mono","no","18","no","white","no","yes","0.09","98","1050","legacy","315","40","40","1","C:/Userdata/Michel/SpatProbMultiple3/subject-14.csv","legacy","9","192","25","Kafkaesque Koffka","3.2.5","yes","598477b2b83f69022949e7e9","47","red","circular","green","circular","0","/","1213","space","19765","19765","(80, 80, 80)","(0, 123, 0)","(177, 0, 0)","(155, 155, 155)","2","legacy","experiment","[5, 6, 7, 0, 1, 2, 3, 4]","/","2500","3000","0","8","252.758751519","1024","2","48000","-16","main","[(0, -252), (178, -178), (252, 0), (178, 178), (0, 252), (-178, 178), (-252, 0), (-178, -178)]","[]","14","even","0","NA","205644","333337","333337","89350","88340","1953","116335","116335","1953","1953","109115","446602","1949","333337","445385","444602","444602","NA","773","study_X","0","19765","1","yes","1680"
"undefined","undefined","NA","NA","NA","19765","19765","black","no","legacy","legacy","legacy","0","red","(177, 0, 0)","shape","present","highProb","circular","same","same","swap","swap","red","(177, 0, 0)","lowProb","lowProb1","rectangular","uniform","1","undefined","0","0.208333333333","1","1","311.723958333","1","40","59851","0","0","0","0","0","0","0","0","67","0","1","0.208333333333","311.723958333","40","59851","66","66","66","11/27/18 14:25:05","Default description","yes","<openexp._canvas.legacy.Legacy object at 0x05E611B0>","<openexp._canvas.legacy.Legacy object at 0x05E6E9F0>","<openexp._canvas.legacy.Legacy object at 0x06018A70>","<openexp._canvas.legacy.Legacy object at 0x05DBFE70>","<openexp._canvas.legacy.Legacy object at 0x05DAA8D0>","<openexp._canvas.legacy.Legacy object at 0x05E52210>","<openexp._canvas.legacy.Legacy object at 0x0600C670>","<openexp._canvas.legacy.Legacy object at 0x05E6E210>","75","SpatProbMultiple3.osexp","C:/Userdata/Michel/SpatProbMultiple3","no","mono","no","18","no","white","no","yes","0.09","98","1050","legacy","45","41","41","1","C:/Userdata/Michel/SpatProbMultiple3/subject-14.csv","legacy","9","192","25","Kafkaesque Koffka","3.2.5","yes","598477b2b83f69022949e7e9","47","red","circular","red","rectangular","0","\","1470","space","19765","19765","(80, 80, 80)","(0, 123, 0)","(177, 0, 0)","(155, 155, 155)","2","legacy","experiment","[5, 6, 7, 0, 1, 2, 3, 4]","\","2500","3000","0","8","252.758751519","1024","2","48000","-16","main","[(0, -252), (178, -178), (252, 0), (178, 178), (0, 252), (-178, 178), (-252, 0), (-178, -178)]","[]","14","even","6","NA","205644","333337","333337","89350","88340","1953","116335","116335","1953","1953","109115","449282","1949","333337","447808","447025","447025","NA","773","study_X","0","19765","1","yes","1680"
"undefined","undefined","NA","NA","NA","19765","19765","black","no","legacy","legacy","legacy","0","red","(177, 0, 0)","shape","present","highProb","circular","same","same","same","same","red","(177, 0, 0)","lowProb","lowProb6","rectangular","uniform","1","undefined","0","0.213541666667","1","1","322.536458333","1","41","61927","0","0","0","0","0","0","0","0","68","0","1","0.213541666667","322.536458333","41","61927","67","67","67","11/27/18 14:25:05","Default description","yes","<openexp._canvas.legacy.Legacy object at 0x05E611B0>","<openexp._canvas.legacy.Legacy object at 0x05E6E9F0>","<openexp._canvas.legacy.Legacy object at 0x06018A70>","<openexp._canvas.legacy.Legacy object at 0x05DBFE70>","<openexp._canvas.legacy.Legacy object at 0x05DAA8D0>","<openexp._canvas.legacy.Legacy object at 0x05E52210>","<openexp._canvas.legacy.Legacy object at 0x06022F30>","<openexp._canvas.legacy.Legacy object at 0x05E6E210>","75","SpatProbMultiple3.osexp","C:/Userdata/Michel/SpatProbMultiple3","no","mono","no","18","no","white","no","yes","0.09","98","1050","legacy","45","42","42","1","C:/Userdata/Michel/SpatProbMultiple3/subject-14.csv","legacy","9","192","25","Kafkaesque Koffka","3.2.5","yes","598477b2b83f69022949e7e9","47","red","circular","red","rectangular","0","\","2076","space","19765","19765","(80, 80, 80)","(0, 123, 0)","(177, 0, 0)","(155, 155, 155)","2","legacy","experiment","[5, 6, 7, 0, 1, 2, 3, 4]","\","2500","3000","0","8","252.758751519","1024","2","48000","-16","main","[(0, -252), (178, -178), (252, 0), (178, 178), (0, 252), (-178, 178), (-252, 0), (-178, -178)]","[]","14","even","4","NA","205644","333337","333337","89350","88340","1953","116335","116335","1953","1953","109115","452561","1949","333337","450482","449699","449699","NA","773","study_X","0","19765","1","yes","1680"
"undefined","undefined","NA","NA","NA","19765","19765","black","no","legacy","legacy","legacy","0","red","(177, 0, 0)","color","present","lowProb1","rectangular","same","swap","swap","same","green","(0, 123, 0)","lowProb","lowProb5","rectangular","uniform","1","undefined","0","0.21875","1","1","328.40625","1","42","63054","0","0","0","0","0","0","0","0","69","0","1","0.21875","328.40625","42","63054","68","68","68","11/27/18 14:25:05","Default description","yes","<openexp._canvas.legacy.Legacy object at 0x05E611B0>","<openexp._canvas.legacy.Legacy object at 0x05E6E9F0>","<openexp._canvas.legacy.Legacy object at 0x06018A70>","<openexp._canvas.legacy.Legacy object at 0x05DBFE70>","<openexp._canvas.legacy.Legacy object at 0x05DAA8D0>","<openexp._canvas.legacy.Legacy object at 0x05E52210>","<openexp._canvas.legacy.Legacy object at 0x05E61150>","<openexp._canvas.legacy.Legacy object at 0x05E6E210>","75","SpatProbMultiple3.osexp","C:/Userdata/Michel/SpatProbMultiple3","no","mono","no","18","no","white","no","yes","0.09","98","1050","legacy","315","43","43","1","C:/Userdata/Michel/SpatProbMultiple3/subject-14.csv","legacy","9","192","25","Kafkaesque Koffka","3.2.5","yes","598477b2b83f69022949e7e9","47","red","rectangular","green","rectangular","0","/","1127","space","19765","19765","(80, 80, 80)","(0, 123, 0)","(177, 0, 0)","(155, 155, 155)","2","legacy","experiment","[5, 6, 7, 0, 1, 2, 3, 4]","/","2500","3000","0","8","252.758751519","1024","2","48000","-16","main","[(0, -252), (178, -178), (252, 0), (178, 178), (0, 252), (-178, 178), (-252, 0), (-178, -178)]","[]","14","even","3","NA","205644","333337","333337","89350","88340","1953","116335","116335","1953","1953","109115","454897","1949","333337","453767","452984","452984","NA","773","study_X","0","19765","1","yes","1680"
"undefined","undefined","NA","NA","NA","19765","19765","black","no","legacy","legacy","legacy","0","green","(0, 123, 0)","shape","absent","lowProb6","rectangular","swap","same","same","same","green","(0, 123, 0)","lowProb","lowProb6","rectangular","uniform","1","undefined","0","0.223958333333","1","1","333.578125","1","43","64047","0","0","0","0","0","0","0","0","70","0","1","0.223958333333","333.578125","43","64047","69","69","69","11/27/18 14:25:05","Default description","yes","<openexp._canvas.legacy.Legacy object at 0x05E611B0>","<openexp._canvas.legacy.Legacy object at 0x05E6E9F0>","<openexp._canvas.legacy.Legacy object at 0x06018A70>","<openexp._canvas.legacy.Legacy object at 0x05DBFE70>","<openexp._canvas.legacy.Legacy object at 0x05DAA8D0>","<openexp._canvas.legacy.Legacy object at 0x05E52210>","<openexp._canvas.legacy.Legacy object at 0x0600C470>","<openexp._canvas.legacy.Legacy object at 0x05E6E210>","75","SpatProbMultiple3.osexp","C:/Userdata/Michel/SpatProbMultiple3","no","mono","no","18","no","white","no","yes","0.09","98","1050","legacy","45","44","44","1","C:/Userdata/Michel/SpatProbMultiple3/subject-14.csv","legacy","9","192","25","Kafkaesque Koffka","3.2.5","yes","598477b2b83f69022949e7e9","47","green","rectangular","green","rectangular","0","\","993","space","19765","19765","(80, 80, 80)","(0, 123, 0)","(177, 0, 0)","(155, 155, 155)","2","legacy","experiment","[5, 6, 7, 0, 1, 2, 3, 4]","\","2500","3000","0","8","252.758751519","1024","2","48000","-16","main","[(0, -252), (178, -178), (252, 0), (178, 178), (0, 252), (-178, 178), (-252, 0), (-178, -178)]","[]","14","even","4","NA","205644","333337","333337","89350","88340","1953","116335","116335","1953","1953","109115","457089","1949","333337","456093","455311","455311","NA","773","study_X","0","19765","1","yes","1680"
"undefined","undefined","NA","NA","NA","19765","19765","black","no","legacy","legacy","legacy","0","red","(177, 0, 0)","shape","present","highProb","circular","swap","swap","swap","same","red","(177, 0, 0)","lowProb","lowProb2","rectangular","uniform","1","undefined","0","0.229166666667","1","1","343.796875","1","44","66009","0","0","0","0","0","0","0","0","71","0","1","0.229166666667","343.796875","44","66009","70","70","70","11/27/18 14:25:05","Default description","yes","<openexp._canvas.legacy.Legacy object at 0x05E611B0>","<openexp._canvas.legacy.Legacy object at 0x05E6E9F0>","<openexp._canvas.legacy.Legacy object at 0x06018A70>","<openexp._canvas.legacy.Legacy object at 0x05DBFE70>","<openexp._canvas.legacy.Legacy object at 0x05DAA8D0>","<openexp._canvas.legacy.Legacy object at 0x05E52210>","<openexp._canvas.legacy.Legacy object at 0x05E61DD0>","<openexp._canvas.legacy.Legacy object at 0x05E6E210>","75","SpatProbMultiple3.osexp","C:/Userdata/Michel/SpatProbMultiple3","no","mono","no","18","no","white","no","yes","0.09","98","1050","legacy","315","45","45","1","C:/Userdata/Michel/SpatProbMultiple3/subject-14.csv","legacy","9","192","25","Kafkaesque Koffka","3.2.5","yes","598477b2b83f69022949e7e9","47","red","circular","red","rectangular","0","/","1962","space","19765","19765","(80, 80, 80)","(0, 123, 0)","(177, 0, 0)","(155, 155, 155)","2","legacy","experiment","[5, 6, 7, 0, 1, 2, 3, 4]","/","2500","3000","0","8","252.758751519","1024","2","48000","-16","main","[(0, -252), (178, -178), (252, 0), (178, 178), (0, 252), (-178, 178), (-252, 0), (-178, -178)]","[]","14","even","7","NA","205644","333337","333337","89350","88340","1953","116335","116335","1953","1953","109115","460281","1949","333337","458315","457533","457533","NA","773","study_X","0","19765","1","yes","1680"
"undefined","undefined","NA","NA","NA","19765","19765","black","no","legacy","legacy","legacy","0","green","(0, 123, 0)","shape","present","highProb","rectangular","swap","swap","swap","swap","green","(0, 123, 0)","lowProb","lowProb4","circular","uniform","1","undefined","0","0.234375","1","1","347.947916667","1","45","66806","0","0","0","0","0","0","0","0","72","0","1","0.234375","347.947916667","45","66806","71","71","71","11/27/18 14:25:05","Default description","yes","<openexp._canvas.legacy.Legacy object at 0x05E611B0>","<openexp._canvas.legacy.Legacy object at 0x05E6E9F0>","<openexp._canvas.legacy.Legacy object at 0x06018A70>","<openexp._canvas.legacy.Legacy object at 0x05DBFE70>","<openexp._canvas.legacy.Legacy object at 0x05DAA8D0>","<openexp._canvas.legacy.Legacy object at 0x05E52210>","<openexp._canvas.legacy.Legacy object at 0x06022670>","<openexp._canvas.legacy.Legacy object at 0x05E6E210>","75","SpatProbMultiple3.osexp","C:/Userdata/Michel/SpatProbMultiple3","no","mono","no","18","no","white","no","yes","0.09","98","1050","legacy","45","46","46","1","C:/Userdata/Michel/SpatProbMultiple3/subject-14.csv","legacy","9","192","25","Kafkaesque Koffka","3.2.5","yes","598477b2b83f69022949e7e9","47","green","rectangular","green","circular","0","\","797","space","19765","19765","(80, 80, 80)","(0, 123, 0)","(177, 0, 0)","(155, 155, 155)","2","legacy","experiment","[5, 6, 7, 0, 1, 2, 3, 4]","\","2500","3000","0","8","252.758751519","1024","2","48000","-16","main","[(0, -252), (178, -178), (252, 0), (178, 178), (0, 252), (-178, 178), (-252, 0), (-178, -178)]","[]","14","even","2","NA","205644","333337","333337","89350","88340","1953","116335","116335","1953","1953","109115","462282","1949","333337","461482","460701","460701","NA","773","study_X","0","19765","1","yes","1680"
"undefined","undefined","NA","NA","NA","19765","19765","black","no","legacy","legacy","legacy","0","green","(0, 123, 0)","shape","present","highProb","circular","same","swap","same","swap","green","(0, 123, 0)","lowProb","lowProb2","rectangular","uniform","1","undefined","0","0.239583333333","1","1","355.921875","1","46","68337","0","0","0","0","0","0","0","0","73","0","1","0.239583333333","355.921875","46","68337","72","72","72","11/27/18 14:25:05","Default description","yes","<openexp._canvas.legacy.Legacy object at 0x05E611B0>","<openexp._canvas.legacy.Legacy object at 0x05E6E9F0>","<openexp._canvas.legacy.Legacy object at 0x06018A70>","<openexp._canvas.legacy.Legacy object at 0x05DBFE70>","<openexp._canvas.legacy.Legacy object at 0x05DAA8D0>","<openexp._canvas.legacy.Legacy object at 0x05E52210>","<openexp._canvas.legacy.Legacy object at 0x0600C670>","<openexp._canvas.legacy.Legacy object at 0x05E6E210>","75","SpatProbMultiple3.osexp","C:/Userdata/Michel/SpatProbMultiple3","no","mono","no","18","no","white","no","yes","0.09","98","1050","legacy","315","47","47","1","C:/Userdata/Michel/SpatProbMultiple3/subject-14.csv","legacy","9","192","25","Kafkaesque Koffka","3.2.5","yes","598477b2b83f69022949e7e9","47","green","circular","green","rectangular","0","/","1531","space","19765","19765","(80, 80, 80)","(0, 123, 0)","(177, 0, 0)","(155, 155, 155)","2","legacy","experiment","[5, 6, 7, 0, 1, 2, 3, 4]","/","2500","3000","0","8","252.758751519","1024","2","48000","-16","main","[(0, -252), (178, -178), (252, 0), (178, 178), (0, 252), (-178, 178), (-252, 0), (-178, -178)]","[]","14","even","7","NA","205644","333337","333337","89350","88340","1953","116335","116335","1953","1953","109115","465026","1949","333337","463491","462708","462708","NA","773","study_X","0","19765","1","yes","1680"
"undefined","undefined","NA","NA","NA","19765","19765","black","no","legacy","legacy","legacy","0","red","(177, 0, 0)","shape","present","highProb","circular","swap","same","swap","same","red","(177, 0, 0)","lowProb","lowProb3","rectangular","uniform","1","undefined","0","0.244791666667","1","1","362.734375","1","47","69645","0","0","0","0","0","0","0","0","74","0","1","0.244791666667","362.734375","47","69645","73","73","73","11/27/18 14:25:05","Default description","yes","<openexp._canvas.legacy.Legacy object at 0x05E611B0>","<openexp._canvas.legacy.Legacy object at 0x05E6E9F0>","<openexp._canvas.legacy.Legacy object at 0x06018A70>","<openexp._canvas.legacy.Legacy object at 0x05DBFE70>","<openexp._canvas.legacy.Legacy object at 0x05DAA8D0>","<openexp._canvas.legacy.Legacy object at 0x05E52210>","<openexp._canvas.legacy.Legacy object at 0x06009E70>","<openexp._canvas.legacy.Legacy object at 0x05E6E210>","75","SpatProbMultiple3.osexp","C:/Userdata/Michel/SpatProbMultiple3","no","mono","no","18","no","white","no","yes","0.09","98","1050","legacy","45","48","48","1","C:/Userdata/Michel/SpatProbMultiple3/subject-14.csv","legacy","9","192","25","Kafkaesque Koffka","3.2.5","yes","598477b2b83f69022949e7e9","47","red","circular","red","rectangular","0","\","1308","space","19765","19765","(80, 80, 80)","(0, 123, 0)","(177, 0, 0)","(155, 155, 155)","2","legacy","experiment","[5, 6, 7, 0, 1, 2, 3, 4]","\","2500","3000","0","8","252.758751519","1024","2","48000","-16","main","[(0, -252), (178, -178), (252, 0), (178, 178), (0, 252), (-178, 178), (-252, 0), (-178, -178)]","[]","14","even","0","NA","205644","333337","333337","89350","88340","1953","116335","116335","1953","1953","109115","467553","1949","333337","466242","465459","465459","NA","773","study_X","0","19765","1","yes","1680"
"undefined","undefined","NA","NA","NA","19765","19765","black","no","legacy","legacy","legacy","0","red","(177, 0, 0)","color","present","highProb","rectangular","same","swap","swap","same","green","(0, 123, 0)","lowProb","lowProb3","rectangular","uniform","1","undefined","0","0.25","1","1","367.8125","1","48","70620","0","0","0","0","0","0","0","0","75","0","1","0.25","367.8125","48","70620","74","74","74","11/27/18 14:25:05","Default description","yes","<openexp._canvas.legacy.Legacy object at 0x05E611B0>","<openexp._canvas.legacy.Legacy object at 0x05E6E9F0>","<openexp._canvas.legacy.Legacy object at 0x06018A70>","<openexp._canvas.legacy.Legacy object at 0x05DBFE70>","<openexp._canvas.legacy.Legacy object at 0x05DAA8D0>","<openexp._canvas.legacy.Legacy object at 0x05E52210>","<openexp._canvas.legacy.Legacy object at 0x06009AB0>","<openexp._canvas.legacy.Legacy object at 0x05E6E210>","75","SpatProbMultiple3.osexp","C:/Userdata/Michel/SpatProbMultiple3","no","mono","no","18","no","white","no","yes","0.09","98","1050","legacy","315","49","49","1","C:/Userdata/Michel/SpatProbMultiple3/subject-14.csv","legacy","9","192","25","Kafkaesque Koffka","3.2.5","yes","598477b2b83f69022949e7e9","47","red","rectangular","green","rectangular","0","/","975","space","19765","19765","(80, 80, 80)","(0, 123, 0)","(177, 0, 0)","(155, 155, 155)","2","legacy","experiment","[5, 6, 7, 0, 1, 2, 3, 4]","/","2500","3000","0","8","252.758751519","1024","2","48000","-16","main","[(0, -252), (178, -178), (252, 0), (178, 178), (0, 252), (-178, 178), (-252, 0), (-178, -178)]","[]","14","even","0","NA","205644","333337","333337","89350","88340","1953","116335","116335","1953","1953","109115","469745","1949","333337","468767","467984","467984","NA","773","study_X","0","19765","1","yes","1680"
"undefined","undefined","NA","NA","NA","19765","19765","black","no","legacy","legacy","legacy","0","green","(0, 123, 0)","shape","present","highProb","rectangular","swap","same","same","swap","green","(0, 123, 0)","lowProb","lowProb6","circular","uniform","1","undefined","0","0.255208333333","1","1","378.390625","1","49","72651","0","0","0","0","0","0","0","0","76","0","1","0.255208333333","378.390625","49","72651","75","75","75","11/27/18 14:25:05","Default description","yes","<openexp._canvas.legacy.Legacy object at 0x05E611B0>","<openexp._canvas.legacy.Legacy object at 0x05E6E9F0>","<openexp._canvas.legacy.Legacy object at 0x06018A70>","<openexp._canvas.legacy.Legacy object at 0x05DBFE70>","<openexp._canvas.legacy.Legacy object at 0x05DAA8D0>","<openexp._canvas.legacy.Legacy object at 0x05E52210>","<openexp._canvas.legacy.Legacy object at 0x06022350>","<openexp._canvas.legacy.Legacy object at 0x05E6E210>","75","SpatProbMultiple3.osexp","C:/Userdata/Michel/SpatProbMultiple3","no","mono","no","18","no","white","no","yes","0.09","98","1050","legacy","45","50","50","1","C:/Userdata/Michel/SpatProbMultiple3/subject-14.csv","legacy","9","192","25","Kafkaesque Koffka","3.2.5","yes","598477b2b83f69022949e7e9","47","green","rectangular","green","circular","0","\","2031","space","19765","19765","(80, 80, 80)","(0, 123, 0)","(177, 0, 0)","(155, 155, 155)","2","legacy","experiment","[5, 6, 7, 0, 1, 2, 3, 4]","\","2500","3000","0","8","252.758751519","1024","2","48000","-16","main","[(0, -252), (178, -178), (252, 0), (178, 178), (0, 252), (-178, 178), (-252, 0), (-178, -178)]","[]","14","even","4","NA","205644","333337","333337","89350","88340","1953","116335","116335","1953","1953","109115","473001","1949","333337","470967","470184","470184","NA","773","study_X","0","19765","1","yes","1680"
"undefined","undefined","NA","NA","NA","19765","19765","black","no","legacy","legacy","legacy","0","green","(0, 123, 0)","shape","present","highProb","rectangular","same","same","same","same","green","(0, 123, 0)","lowProb","lowProb5","circular","uniform","1","undefined","0","0.260416666667","1","1","385.796875","1","50","74073","0","0","0","0","0","0","0","0","77","0","1","0.260416666667","385.796875","50","74073","76","76","76","11/27/18 14:25:05","Default description","yes","<openexp._canvas.legacy.Legacy object at 0x05E611B0>","<openexp._canvas.legacy.Legacy object at 0x05E6E9F0>","<openexp._canvas.legacy.Legacy object at 0x06018A70>","<openexp._canvas.legacy.Legacy object at 0x05DBFE70>","<openexp._canvas.legacy.Legacy object at 0x05DAA8D0>","<openexp._canvas.legacy.Legacy object at 0x05E52210>","<openexp._canvas.legacy.Legacy object at 0x05DB5170>","<openexp._canvas.legacy.Legacy object at 0x05E6E210>","75","SpatProbMultiple3.osexp","C:/Userdata/Michel/SpatProbMultiple3","no","mono","no","18","no","white","no","yes","0.09","98","1050","legacy","45","51","51","1","C:/Userdata/Michel/SpatProbMultiple3/subject-14.csv","legacy","9","192","25","Kafkaesque Koffka","3.2.5","yes","598477b2b83f69022949e7e9","47","green","rectangular","green","circular","0","\","1422","space","19765","19765","(80, 80, 80)","(0, 123, 0)","(177, 0, 0)","(155, 155, 155)","2","legacy","experiment","[5, 6, 7, 0, 1, 2, 3, 4]","\","2500","3000","0","8","252.758751519","1024","2","48000","-16","main","[(0, -252), (178, -178), (252, 0), (178, 178), (0, 252), (-178, 178), (-252, 0), (-178, -178)]","[]","14","even","3","NA","205644","333337","333337","89350","88340","1953","116335","116335","1953","1953","109115","475633","1949","333337","474207","473425","473425","NA","773","study_X","0","19765","1","yes","1680"
"undefined","undefined","NA","NA","NA","19765","19765","black","no","legacy","legacy","legacy","0","green","(0, 123, 0)","color","present","highProb","circular","same","swap","swap","same","red","(177, 0, 0)","highProbShape","highProbShape","circular","uniform","1","undefined","0","0.265625","1","1","391.026041667","1","51","75077","0","0","0","0","0","0","0","0","78","0","1","0.265625","391.026041667","51","75077","77","77","77","11/27/18 14:25:05","Default description","yes","<openexp._canvas.legacy.Legacy object at 0x05E611B0>","<openexp._canvas.legacy.Legacy object at 0x05E6E9F0>","<openexp._canvas.legacy.Legacy object at 0x06018A70>","<openexp._canvas.legacy.Legacy object at 0x05DBFE70>","<openexp._canvas.legacy.Legacy object at 0x05DAA8D0>","<openexp._canvas.legacy.Legacy object at 0x05E52210>","<openexp._canvas.legacy.Legacy object at 0x05E61F90>","<openexp._canvas.legacy.Legacy object at 0x05E6E210>","75","SpatProbMultiple3.osexp","C:/Userdata/Michel/SpatProbMultiple3","no","mono","no","18","no","white","no","yes","0.09","98","1050","legacy","315","52","52","1","C:/Userdata/Michel/SpatProbMultiple3/subject-14.csv","legacy","9","192","25","Kafkaesque Koffka","3.2.5","yes","598477b2b83f69022949e7e9","47","green","circular","red","circular","0","/","1004","space","19765","19765","(80, 80, 80)","(0, 123, 0)","(177, 0, 0)","(155, 155, 155)","2","legacy","experiment","[5, 6, 7, 0, 1, 2, 3, 4]","/","2500","3000","0","8","252.758751519","1024","2","48000","-16","main","[(0, -252), (178, -178), (252, 0), (178, 178), (0, 252), (-178, 178), (-252, 0), (-178, -178)]","[]","14","even","1","NA","205644","333337","333337","89350","88340","1953","116335","116335","1953","1953","109115","477841","1949","333337","476833","476050","476050","NA","773","study_X","0","19765","1","yes","1680"
