"acc","accuracy","answerQ1","answerQ2","answerQ3","average_response_time","avg_rt","background","bidi","canvas_backend","clock_backend","color_backend","compensation","cond_disColor","cond_disColorRGB","cond_disFeature","cond_disPresent","cond_disProbability","cond_disShape","cond_primingDisColor","cond_primingDisShape","cond_primingTarColor","cond_primingTarShape","cond_tarColor","cond_tarColorRGB","cond_tarLocation","cond_tarLocationLong","cond_tarShape","coordinates","correct","correct_continuePress","count_Questions","count_blockAcc","count_blockFeed","count_blockLoop","count_blockRT","count_blockSeq","count_blockSumCorrect","count_blockSumRT","count_continuePress","count_example","count_expSettings","count_exp_mainLoop","count_experiment","count_instructions","count_instructions1","count_instructions2","count_log","count_main","count_prepCanvas","count_totalAcc","count_totalRT","count_totalSumCorrect","count_totalSumRT","count_trialResp","count_trialSeq","count_trialTask","datetime","description","disable_garbage_collection","dispBlank","dispBlockStart","dispFeedBlock","dispFix","dispInstructions","dispQuestions","dispSearch","dispStartScreen","distance2screen","experiment_path","font_bold","font_family","font_italic","font_size","font_underline","foreground","form_clicks","fullscreen","gaborFreq","gaborSize","height","keyboard_backend","lineOriTar","live_row","live_row_blockLoop","live_row_exp_mainLoop","logfile","mouse_backend","noExpBlocks","noExpTrials","noPracTrials","opensesame_codename","opensesame_version","osf_always_upload_experiment","osf_id","physical_screensize","previousDisColor","previousDisShape","previousTarColor","previousTarShape","repeat_cycle","response","responseTime","response_continuePress","response_time","response_time_continuePress","rgb_gray","rgb_green","rgb_red","rgb_white","round_decimals","sampler_backend","set_blockType","set_counterPositions","set_respCorrect","set_respTimeoutExp","set_respTimeoutPrac","set_rotation","set_setSize","sizeImaginary","sound_buf_size","sound_channels","sound_freq","sound_sample_size","start","stimPositions","stimuli","subject_nr","subject_parity","tarIdx","time_Questions","time_blockFeed","time_blockLoop","time_blockSeq","time_continuePress","time_example","time_expSettings","time_exp_mainLoop","time_experiment","time_instructions","time_instructions1","time_instructions2","time_log","time_main","time_prepCanvas","time_trialResp","time_trialSeq","time_trialTask","timing_EEGwait","timing_fix","title","total_correct","total_response_time","total_responses","uniform_coordinates","width"
"undefined","undefined","NA","NA","NA","21299","21299","black","no","legacy","legacy","legacy","0","red","(177, 0, 0)","color","present","highProb","circular","swap","swap","same","swap","green","(0, 123, 0)","lowProb","lowProb1","circular","uniform","1","undefined","0","0.00520833333333","1","1","5.890625","1","1","1131","0","0","0","0","0","0","0","0","26","0","1","0.00520833333333","5.890625","1","1131","25","25","25","11/27/18 15:37:29","Default description","yes","<openexp._canvas.legacy.legacy object at 0x043D6050>","<openexp._canvas.legacy.legacy object at 0x043D6AD0>","<openexp._canvas.legacy.legacy object at 0x043EF250>","<openexp._canvas.legacy.legacy object at 0x043E49B0>","<openexp._canvas.legacy.legacy object at 0x04421050>","<openexp._canvas.legacy.legacy object at 0x043C71D0>","<openexp._canvas.legacy.legacy object at 0x043EF950>","<openexp._canvas.legacy.legacy object at 0x043EA3D0>","75","C:/Userdata/Michel/SpatProbMultiple3","no","mono","no","18","no","white","no","yes","0.09","98","1050","legacy","315","0","0","1","C:/Userdata/Michel/SpatProbMultiple3/beh/subject-16.csv","legacy","9","192","25","Jazzy James","3.1.9","yes","598477b2b83f69022949e7e9","47","red","circular","green","circular","0","/","1131","space","21299","21299","(80, 80, 80)","(0, 123, 0)","(177, 0, 0)","(155, 155, 155)","2","legacy","experiment","[7, 0, 1, 2, 3, 4, 5, 6]","/","2500","3000","0","8","252.758751519","1024","2","48000","-16","main","[(0, -252), (178, -178), (252, 0), (178, 178), (0, 252), (-178, 178), (-252, 0), (-178, -178)]","[]","16","even","0","NA","238039","296688","296688","127846","126838","1879","168901","168901","1879","1879","149146","304137","1877","296688","303002","297097","297097","NA","821","study_X","0","21299","1","yes","1680"
"undefined","undefined","NA","NA","NA","21299","21299","black","no","legacy","legacy","legacy","0","green","(0, 123, 0)","shape","present","highProb","rectangular","swap","swap","same","same","green","(0, 123, 0)","highProbColor","highProbColor","circular","uniform","1","undefined","0","0.0104166666667","1","1","10.5520833333","1","2","2026","0","0","0","0","0","0","0","0","27","0","1","0.0104166666667","10.5520833333","2","2026","26","26","26","11/27/18 15:37:29","Default description","yes","<openexp._canvas.legacy.legacy object at 0x043D6050>","<openexp._canvas.legacy.legacy object at 0x043D6AD0>","<openexp._canvas.legacy.legacy object at 0x043EF250>","<openexp._canvas.legacy.legacy object at 0x043E49B0>","<openexp._canvas.legacy.legacy object at 0x04421050>","<openexp._canvas.legacy.legacy object at 0x043C71D0>","<openexp._canvas.legacy.legacy object at 0x043EAF70>","<openexp._canvas.legacy.legacy object at 0x043EA3D0>","75","C:/Userdata/Michel/SpatProbMultiple3","no","mono","no","18","no","white","no","yes","0.09","98","1050","legacy","45","1","1","1","C:/Userdata/Michel/SpatProbMultiple3/beh/subject-16.csv","legacy","9","192","25","Jazzy James","3.1.9","yes","598477b2b83f69022949e7e9","47","green","rectangular","green","circular","0","\","895","space","21299","21299","(80, 80, 80)","(0, 123, 0)","(177, 0, 0)","(155, 155, 155)","2","legacy","experiment","[7, 0, 1, 2, 3, 4, 5, 6]","\","2500","3000","0","8","252.758751519","1024","2","48000","-16","main","[(0, -252), (178, -178), (252, 0), (178, 178), (0, 252), (-178, 178), (-252, 0), (-178, -178)]","[]","16","even","7","NA","238039","296688","296688","127846","126838","1879","168901","168901","1879","1879","149146","306360","1877","296688","305463","304633","304633","NA","821","study_X","0","21299","1","yes","1680"
"undefined","undefined","NA","NA","NA","21299","21299","black","no","legacy","legacy","legacy","0","green","(0, 123, 0)","color","present","highProb","rectangular","same","same","swap","swap","red","(177, 0, 0)","lowProb","lowProb5","rectangular","uniform","1","undefined","0","0.015625","1","1","18.265625","1","3","3507","0","0","0","0","0","0","0","0","28","0","1","0.015625","18.265625","3","3507","27","27","27","11/27/18 15:37:29","Default description","yes","<openexp._canvas.legacy.legacy object at 0x043D6050>","<openexp._canvas.legacy.legacy object at 0x043D6AD0>","<openexp._canvas.legacy.legacy object at 0x043EF250>","<openexp._canvas.legacy.legacy object at 0x043E49B0>","<openexp._canvas.legacy.legacy object at 0x04421050>","<openexp._canvas.legacy.legacy object at 0x043C71D0>","<openexp._canvas.legacy.legacy object at 0x043EA550>","<openexp._canvas.legacy.legacy object at 0x043EA3D0>","75","C:/Userdata/Michel/SpatProbMultiple3","no","mono","no","18","no","white","no","yes","0.09","98","1050","legacy","45","2","2","1","C:/Userdata/Michel/SpatProbMultiple3/beh/subject-16.csv","legacy","9","192","25","Jazzy James","3.1.9","yes","598477b2b83f69022949e7e9","47","green","rectangular","red","rectangular","0","\","1481","space","21299","21299","(80, 80, 80)","(0, 123, 0)","(177, 0, 0)","(155, 155, 155)","2","legacy","experiment","[7, 0, 1, 2, 3, 4, 5, 6]","\","2500","3000","0","8","252.758751519","1024","2","48000","-16","main","[(0, -252), (178, -178), (252, 0), (178, 178), (0, 252), (-178, 178), (-252, 0), (-178, -178)]","[]","16","even","5","NA","238039","296688","296688","127846","126838","1879","168901","168901","1879","1879","149146","309096","1877","296688","307612","306781","306781","NA","821","study_X","0","21299","1","yes","1680"
"undefined","undefined","NA","NA","NA","21299","21299","black","no","legacy","legacy","legacy","0","red","(177, 0, 0)","color","present","highProb","rectangular","swap","same","swap","same","green","(0, 123, 0)","lowProb","lowProb2","rectangular","uniform","1","undefined","0","0.0208333333333","1","1","23.0364583333","1","4","4423","0","0","0","0","0","0","0","0","29","0","1","0.0208333333333","23.0364583333","4","4423","28","28","28","11/27/18 15:37:29","Default description","yes","<openexp._canvas.legacy.legacy object at 0x043D6050>","<openexp._canvas.legacy.legacy object at 0x043D6AD0>","<openexp._canvas.legacy.legacy object at 0x043EF250>","<openexp._canvas.legacy.legacy object at 0x043E49B0>","<openexp._canvas.legacy.legacy object at 0x04421050>","<openexp._canvas.legacy.legacy object at 0x043C71D0>","<openexp._canvas.legacy.legacy object at 0x043D5370>","<openexp._canvas.legacy.legacy object at 0x043EA3D0>","75","C:/Userdata/Michel/SpatProbMultiple3","no","mono","no","18","no","white","no","yes","0.09","98","1050","legacy","45","3","3","1","C:/Userdata/Michel/SpatProbMultiple3/beh/subject-16.csv","legacy","9","192","25","Jazzy James","3.1.9","yes","598477b2b83f69022949e7e9","47","red","rectangular","green","rectangular","0","\","916","space","21299","21299","(80, 80, 80)","(0, 123, 0)","(177, 0, 0)","(155, 155, 155)","2","legacy","experiment","[7, 0, 1, 2, 3, 4, 5, 6]","\","2500","3000","0","8","252.758751519","1024","2","48000","-16","main","[(0, -252), (178, -178), (252, 0), (178, 178), (0, 252), (-178, 178), (-252, 0), (-178, -178)]","[]","16","even","1","NA","238039","296688","296688","127846","126838","1879","168901","168901","1879","1879","149146","311296","1877","296688","310377","309547","309547","NA","821","study_X","0","21299","1","yes","1680"
"undefined","undefined","NA","NA","NA","21299","21299","black","no","legacy","legacy","legacy","0","green","(0, 123, 0)","color","present","highProb","circular","swap","swap","swap","swap","red","(177, 0, 0)","highProbShape","highProbShape","circular","uniform","1","undefined","0","0.0260416666667","1","1","29.5885416667","1","5","5681","0","0","0","0","0","0","0","0","30","0","1","0.0260416666667","29.5885416667","5","5681","29","29","29","11/27/18 15:37:29","Default description","yes","<openexp._canvas.legacy.legacy object at 0x043D6050>","<openexp._canvas.legacy.legacy object at 0x043D6AD0>","<openexp._canvas.legacy.legacy object at 0x043EF250>","<openexp._canvas.legacy.legacy object at 0x043E49B0>","<openexp._canvas.legacy.legacy object at 0x04421050>","<openexp._canvas.legacy.legacy object at 0x043C71D0>","<openexp._canvas.legacy.legacy object at 0x043EF5B0>","<openexp._canvas.legacy.legacy object at 0x043EA3D0>","75","C:/Userdata/Michel/SpatProbMultiple3","no","mono","no","18","no","white","no","yes","0.09","98","1050","legacy","45","4","4","1","C:/Userdata/Michel/SpatProbMultiple3/beh/subject-16.csv","legacy","9","192","25","Jazzy James","3.1.9","yes","598477b2b83f69022949e7e9","47","green","circular","red","circular","0","\","1258","space","21299","21299","(80, 80, 80)","(0, 123, 0)","(177, 0, 0)","(155, 155, 155)","2","legacy","experiment","[7, 0, 1, 2, 3, 4, 5, 6]","\","2500","3000","0","8","252.758751519","1024","2","48000","-16","main","[(0, -252), (178, -178), (252, 0), (178, 178), (0, 252), (-178, 178), (-252, 0), (-178, -178)]","[]","16","even","3","NA","238039","296688","296688","127846","126838","1879","168901","168901","1879","1879","149146","313816","1877","296688","312555","311725","311725","NA","821","study_X","0","21299","1","yes","1680"
"undefined","undefined","NA","NA","NA","21299","21299","black","no","legacy","legacy","legacy","0","green","(0, 123, 0)","shape","present","highProb","circular","same","same","swap","swap","green","(0, 123, 0)","highProbColor","highProbColor","rectangular","uniform","1","undefined","0","0.03125","1","1","33.9479166667","1","6","6518","0","0","0","0","0","0","0","0","31","0","1","0.03125","33.9479166667","6","6518","30","30","30","11/27/18 15:37:29","Default description","yes","<openexp._canvas.legacy.legacy object at 0x043D6050>","<openexp._canvas.legacy.legacy object at 0x043D6AD0>","<openexp._canvas.legacy.legacy object at 0x043EF250>","<openexp._canvas.legacy.legacy object at 0x043E49B0>","<openexp._canvas.legacy.legacy object at 0x04421050>","<openexp._canvas.legacy.legacy object at 0x043C71D0>","<openexp._canvas.legacy.legacy object at 0x043D6AB0>","<openexp._canvas.legacy.legacy object at 0x043EA3D0>","75","C:/Userdata/Michel/SpatProbMultiple3","no","mono","no","18","no","white","no","yes","0.09","98","1050","legacy","315","5","5","1","C:/Userdata/Michel/SpatProbMultiple3/beh/subject-16.csv","legacy","9","192","25","Jazzy James","3.1.9","yes","598477b2b83f69022949e7e9","47","green","circular","green","rectangular","0","/","837","space","21299","21299","(80, 80, 80)","(0, 123, 0)","(177, 0, 0)","(155, 155, 155)","2","legacy","experiment","[7, 0, 1, 2, 3, 4, 5, 6]","/","2500","3000","0","8","252.758751519","1024","2","48000","-16","main","[(0, -252), (178, -178), (252, 0), (178, 178), (0, 252), (-178, 178), (-252, 0), (-178, -178)]","[]","16","even","7","NA","238039","296688","296688","127846","126838","1879","168901","168901","1879","1879","149146","315921","1877","296688","315080","314250","314250","NA","821","study_X","0","21299","1","yes","1680"
"undefined","undefined","NA","NA","NA","21299","21299","black","no","legacy","legacy","legacy","0","red","(177, 0, 0)","shape","present","highProb","rectangular","swap","swap","swap","swap","red","(177, 0, 0)","highProbColor","highProbColor","circular","uniform","1","undefined","0","0.0364583333333","1","1","39.4479166667","1","7","7574","0","0","0","0","0","0","0","0","32","0","1","0.0364583333333","39.4479166667","7","7574","31","31","31","11/27/18 15:37:29","Default description","yes","<openexp._canvas.legacy.legacy object at 0x043D6050>","<openexp._canvas.legacy.legacy object at 0x043D6AD0>","<openexp._canvas.legacy.legacy object at 0x043EF250>","<openexp._canvas.legacy.legacy object at 0x043E49B0>","<openexp._canvas.legacy.legacy object at 0x04421050>","<openexp._canvas.legacy.legacy object at 0x043C71D0>","<openexp._canvas.legacy.legacy object at 0x043F89D0>","<openexp._canvas.legacy.legacy object at 0x043EA3D0>","75","C:/Userdata/Michel/SpatProbMultiple3","no","mono","no","18","no","white","no","yes","0.09","98","1050","legacy","45","6","6","1","C:/Userdata/Michel/SpatProbMultiple3/beh/subject-16.csv","legacy","9","192","25","Jazzy James","3.1.9","yes","598477b2b83f69022949e7e9","47","red","rectangular","red","circular","0","\","1056","space","21299","21299","(80, 80, 80)","(0, 123, 0)","(177, 0, 0)","(155, 155, 155)","2","legacy","experiment","[7, 0, 1, 2, 3, 4, 5, 6]","\","2500","3000","0","8","252.758751519","1024","2","48000","-16","main","[(0, -252), (178, -178), (252, 0), (178, 178), (0, 252), (-178, 178), (-252, 0), (-178, -178)]","[]","16","even","7","NA","238039","296688","296688","127846","126838","1879","168901","168901","1879","1879","149146","318249","1877","296688","317189","316358","316358","NA","821","study_X","0","21299","1","yes","1680"
"undefined","undefined","NA","NA","NA","21299","21299","black","no","legacy","legacy","legacy","0","green","(0, 123, 0)","color","present","highProb","rectangular","swap","same","same","swap","red","(177, 0, 0)","lowProb","lowProb3","rectangular","uniform","1","undefined","0","0.0416666666667","1","1","43.5","1","8","8352","0","0","0","0","0","0","0","0","33","0","1","0.0416666666667","43.5","8","8352","32","32","32","11/27/18 15:37:29","Default description","yes","<openexp._canvas.legacy.legacy object at 0x043D6050>","<openexp._canvas.legacy.legacy object at 0x043D6AD0>","<openexp._canvas.legacy.legacy object at 0x043EF250>","<openexp._canvas.legacy.legacy object at 0x043E49B0>","<openexp._canvas.legacy.legacy object at 0x04421050>","<openexp._canvas.legacy.legacy object at 0x043C71D0>","<openexp._canvas.legacy.legacy object at 0x043CDB30>","<openexp._canvas.legacy.legacy object at 0x043EA3D0>","75","C:/Userdata/Michel/SpatProbMultiple3","no","mono","no","18","no","white","no","yes","0.09","98","1050","legacy","45","7","7","1","C:/Userdata/Michel/SpatProbMultiple3/beh/subject-16.csv","legacy","9","192","25","Jazzy James","3.1.9","yes","598477b2b83f69022949e7e9","47","green","rectangular","red","rectangular","0","\","778","space","21299","21299","(80, 80, 80)","(0, 123, 0)","(177, 0, 0)","(155, 155, 155)","2","legacy","experiment","[7, 0, 1, 2, 3, 4, 5, 6]","\","2500","3000","0","8","252.758751519","1024","2","48000","-16","main","[(0, -252), (178, -178), (252, 0), (178, 178), (0, 252), (-178, 178), (-252, 0), (-178, -178)]","[]","16","even","2","NA","238039","296688","296688","127846","126838","1879","168901","168901","1879","1879","149146","320305","1877","296688","319523","318692","318693","NA","821","study_X","0","21299","1","yes","1680"
"undefined","undefined","NA","NA","NA","21299","21299","black","no","legacy","legacy","legacy","0","green","(0, 123, 0)","shape","present","lowProb3","circular","same","swap","swap","same","green","(0, 123, 0)","highProbShape","highProbShape","rectangular","uniform","1","undefined","0","0.046875","1","1","50.0416666667","1","9","9608","0","0","0","0","0","0","0","0","34","0","1","0.046875","50.0416666667","9","9608","33","33","33","11/27/18 15:37:29","Default description","yes","<openexp._canvas.legacy.legacy object at 0x043D6050>","<openexp._canvas.legacy.legacy object at 0x043D6AD0>","<openexp._canvas.legacy.legacy object at 0x043EF250>","<openexp._canvas.legacy.legacy object at 0x043E49B0>","<openexp._canvas.legacy.legacy object at 0x04421050>","<openexp._canvas.legacy.legacy object at 0x043C71D0>","<openexp._canvas.legacy.legacy object at 0x043D6130>","<openexp._canvas.legacy.legacy object at 0x043EA3D0>","75","C:/Userdata/Michel/SpatProbMultiple3","no","mono","no","18","no","white","no","yes","0.09","98","1050","legacy","315","8","8","1","C:/Userdata/Michel/SpatProbMultiple3/beh/subject-16.csv","legacy","9","192","25","Jazzy James","3.1.9","yes","598477b2b83f69022949e7e9","47","green","circular","green","rectangular","0","/","1256","space","21299","21299","(80, 80, 80)","(0, 123, 0)","(177, 0, 0)","(155, 155, 155)","2","legacy","experiment","[7, 0, 1, 2, 3, 4, 5, 6]","/","2500","3000","0","8","252.758751519","1024","2","48000","-16","main","[(0, -252), (178, -178), (252, 0), (178, 178), (0, 252), (-178, 178), (-252, 0), (-178, -178)]","[]","16","even","3","NA","238039","296688","296688","127846","126838","1879","168901","168901","1879","1879","149146","322832","1877","296688","321573","320743","320743","NA","821","study_X","0","21299","1","yes","1680"
"undefined","undefined","NA","NA","NA","21299","21299","black","no","legacy","legacy","legacy","0","red","(177, 0, 0)","shape","present","highProb","circular","swap","same","swap","same","red","(177, 0, 0)","lowProb","lowProb6","rectangular","uniform","1","undefined","0","0.0520833333333","1","1","55.609375","1","10","10677","0","0","0","0","0","0","0","0","35","0","1","0.0520833333333","55.609375","10","10677","34","34","34","11/27/18 15:37:29","Default description","yes","<openexp._canvas.legacy.legacy object at 0x043D6050>","<openexp._canvas.legacy.legacy object at 0x043D6AD0>","<openexp._canvas.legacy.legacy object at 0x043EF250>","<openexp._canvas.legacy.legacy object at 0x043E49B0>","<openexp._canvas.legacy.legacy object at 0x04421050>","<openexp._canvas.legacy.legacy object at 0x043C71D0>","<openexp._canvas.legacy.legacy object at 0x043D5090>","<openexp._canvas.legacy.legacy object at 0x043EA3D0>","75","C:/Userdata/Michel/SpatProbMultiple3","no","mono","no","18","no","white","no","yes","0.09","98","1050","legacy","45","9","9","1","C:/Userdata/Michel/SpatProbMultiple3/beh/subject-16.csv","legacy","9","192","25","Jazzy James","3.1.9","yes","598477b2b83f69022949e7e9","47","red","circular","red","rectangular","0","\","1069","space","21299","21299","(80, 80, 80)","(0, 123, 0)","(177, 0, 0)","(155, 155, 155)","2","legacy","experiment","[7, 0, 1, 2, 3, 4, 5, 6]","\","2500","3000","0","8","252.758751519","1024","2","48000","-16","main","[(0, -252), (178, -178), (252, 0), (178, 178), (0, 252), (-178, 178), (-252, 0), (-178, -178)]","[]","16","even","6","NA","238039","296688","296688","127846","126838","1879","168901","168901","1879","1879","149146","325168","1877","296688","324096","323266","323266","NA","821","study_X","0","21299","1","yes","1680"
"undefined","undefined","NA","NA","NA","21299","21299","black","no","legacy","legacy","legacy","0","red","(177, 0, 0)","shape","present","highProb","rectangular","same","swap","same","swap","red","(177, 0, 0)","lowProb","lowProb6","circular","uniform","1","undefined","0","0.0572916666667","1","1","60.09375","1","11","11538","0","0","0","0","0","0","0","0","36","0","1","0.0572916666667","60.09375","11","11538","35","35","35","11/27/18 15:37:29","Default description","yes","<openexp._canvas.legacy.legacy object at 0x043D6050>","<openexp._canvas.legacy.legacy object at 0x043D6AD0>","<openexp._canvas.legacy.legacy object at 0x043EF250>","<openexp._canvas.legacy.legacy object at 0x043E49B0>","<openexp._canvas.legacy.legacy object at 0x04421050>","<openexp._canvas.legacy.legacy object at 0x043C71D0>","<openexp._canvas.legacy.legacy object at 0x043D6970>","<openexp._canvas.legacy.legacy object at 0x043EA3D0>","75","C:/Userdata/Michel/SpatProbMultiple3","no","mono","no","18","no","white","no","yes","0.09","98","1050","legacy","45","10","10","1","C:/Userdata/Michel/SpatProbMultiple3/beh/subject-16.csv","legacy","9","192","25","Jazzy James","3.1.9","yes","598477b2b83f69022949e7e9","47","red","rectangular","red","circular","0","\","861","space","21299","21299","(80, 80, 80)","(0, 123, 0)","(177, 0, 0)","(155, 155, 155)","2","legacy","experiment","[7, 0, 1, 2, 3, 4, 5, 6]","\","2500","3000","0","8","252.758751519","1024","2","48000","-16","main","[(0, -252), (178, -178), (252, 0), (178, 178), (0, 252), (-178, 178), (-252, 0), (-178, -178)]","[]","16","even","6","NA","238039","296688","296688","127846","126838","1879","168901","168901","1879","1879","149146","327288","1877","296688","326424","325594","325594","NA","821","study_X","0","21299","1","yes","1680"
"undefined","undefined","NA","NA","NA","21299","21299","black","no","legacy","legacy","legacy","0","green","(0, 123, 0)","shape","present","highProb","circular","swap","swap","swap","swap","green","(0, 123, 0)","lowProb","lowProb5","rectangular","uniform","1","undefined","0","0.0625","1","1","64.7291666667","1","12","12428","0","0","0","0","0","0","0","0","37","0","1","0.0625","64.7291666667","12","12428","36","36","36","11/27/18 15:37:29","Default description","yes","<openexp._canvas.legacy.legacy object at 0x043D6050>","<openexp._canvas.legacy.legacy object at 0x043D6AD0>","<openexp._canvas.legacy.legacy object at 0x043EF250>","<openexp._canvas.legacy.legacy object at 0x043E49B0>","<openexp._canvas.legacy.legacy object at 0x04421050>","<openexp._canvas.legacy.legacy object at 0x043C71D0>","<openexp._canvas.legacy.legacy object at 0x043CDD10>","<openexp._canvas.legacy.legacy object at 0x043EA3D0>","75","C:/Userdata/Michel/SpatProbMultiple3","no","mono","no","18","no","white","no","yes","0.09","98","1050","legacy","315","11","11","1","C:/Userdata/Michel/SpatProbMultiple3/beh/subject-16.csv","legacy","9","192","25","Jazzy James","3.1.9","yes","598477b2b83f69022949e7e9","47","green","circular","green","rectangular","0","/","890","space","21299","21299","(80, 80, 80)","(0, 123, 0)","(177, 0, 0)","(155, 155, 155)","2","legacy","experiment","[7, 0, 1, 2, 3, 4, 5, 6]","/","2500","3000","0","8","252.758751519","1024","2","48000","-16","main","[(0, -252), (178, -178), (252, 0), (178, 178), (0, 252), (-178, 178), (-252, 0), (-178, -178)]","[]","16","even","5","NA","238039","296688","296688","127846","126838","1879","168901","168901","1879","1879","149146","329448","1877","296688","328556","327725","327725","NA","821","study_X","0","21299","1","yes","1680"
"undefined","undefined","NA","NA","NA","21299","21299","black","no","legacy","legacy","legacy","0","red","(177, 0, 0)","color","present","highProb","circular","swap","same","same","swap","green","(0, 123, 0)","lowProb","lowProb3","circular","uniform","1","undefined","0","0.0677083333333","1","1","67.890625","1","13","13035","0","0","0","0","0","0","0","0","38","0","1","0.0677083333333","67.890625","13","13035","37","37","37","11/27/18 15:37:29","Default description","yes","<openexp._canvas.legacy.legacy object at 0x043D6050>","<openexp._canvas.legacy.legacy object at 0x043D6AD0>","<openexp._canvas.legacy.legacy object at 0x043EF250>","<openexp._canvas.legacy.legacy object at 0x043E49B0>","<openexp._canvas.legacy.legacy object at 0x04421050>","<openexp._canvas.legacy.legacy object at 0x043C71D0>","<openexp._canvas.legacy.legacy object at 0x043D5DB0>","<openexp._canvas.legacy.legacy object at 0x043EA3D0>","75","C:/Userdata/Michel/SpatProbMultiple3","no","mono","no","18","no","white","no","yes","0.09","98","1050","legacy","315","12","12","1","C:/Userdata/Michel/SpatProbMultiple3/beh/subject-16.csv","legacy","9","192","25","Jazzy James","3.1.9","yes","598477b2b83f69022949e7e9","47","red","circular","green","circular","0","/","607","space","21299","21299","(80, 80, 80)","(0, 123, 0)","(177, 0, 0)","(155, 155, 155)","2","legacy","experiment","[7, 0, 1, 2, 3, 4, 5, 6]","/","2500","3000","0","8","252.758751519","1024","2","48000","-16","main","[(0, -252), (178, -178), (252, 0), (178, 178), (0, 252), (-178, 178), (-252, 0), (-178, -178)]","[]","16","even","2","NA","238039","296688","296688","127846","126838","1879","168901","168901","1879","1879","149146","331336","1877","296688","330725","329895","329895","NA","821","study_X","0","21299","1","yes","1680"
"undefined","undefined","NA","NA","NA","21299","21299","black","no","legacy","legacy","legacy","0","green","(0, 123, 0)","shape","absent","highProbOther","circular","swap","same","same","same","green","(0, 123, 0)","lowProb","lowProb5","circular","uniform","1","undefined","0","0.0729166666667","1","1","73.0625","1","14","14028","0","0","0","0","0","0","0","0","39","0","1","0.0729166666667","73.0625","14","14028","38","38","38","11/27/18 15:37:29","Default description","yes","<openexp._canvas.legacy.legacy object at 0x043D6050>","<openexp._canvas.legacy.legacy object at 0x043D6AD0>","<openexp._canvas.legacy.legacy object at 0x043EF250>","<openexp._canvas.legacy.legacy object at 0x043E49B0>","<openexp._canvas.legacy.legacy object at 0x04421050>","<openexp._canvas.legacy.legacy object at 0x043C71D0>","<openexp._canvas.legacy.legacy object at 0x043D6C10>","<openexp._canvas.legacy.legacy object at 0x043EA3D0>","75","C:/Userdata/Michel/SpatProbMultiple3","no","mono","no","18","no","white","no","yes","0.09","98","1050","legacy","45","13","13","1","C:/Userdata/Michel/SpatProbMultiple3/beh/subject-16.csv","legacy","9","192","25","Jazzy James","3.1.9","yes","598477b2b83f69022949e7e9","47","green","circular","green","circular","0","\","993","space","21299","21299","(80, 80, 80)","(0, 123, 0)","(177, 0, 0)","(155, 155, 155)","2","legacy","experiment","[7, 0, 1, 2, 3, 4, 5, 6]","\","2500","3000","0","8","252.758751519","1024","2","48000","-16","main","[(0, -252), (178, -178), (252, 0), (178, 178), (0, 252), (-178, 178), (-252, 0), (-178, -178)]","[]","16","even","5","NA","238039","296688","296688","127846","126838","1879","168901","168901","1879","1879","149146","333601","1877","296688","332604","331774","331774","NA","821","study_X","0","21299","1","yes","1680"
"undefined","undefined","NA","NA","NA","21299","21299","black","no","legacy","legacy","legacy","0","red","(177, 0, 0)","shape","present","highProb","rectangular","swap","swap","swap","same","red","(177, 0, 0)","lowProb","lowProb1","circular","uniform","1","undefined","0","0.078125","1","1","77.234375","1","15","14829","0","0","0","0","0","0","0","0","40","0","1","0.078125","77.234375","15","14829","39","39","39","11/27/18 15:37:29","Default description","yes","<openexp._canvas.legacy.legacy object at 0x043D6050>","<openexp._canvas.legacy.legacy object at 0x043D6AD0>","<openexp._canvas.legacy.legacy object at 0x043EF250>","<openexp._canvas.legacy.legacy object at 0x043E49B0>","<openexp._canvas.legacy.legacy object at 0x04421050>","<openexp._canvas.legacy.legacy object at 0x043C71D0>","<openexp._canvas.legacy.legacy object at 0x0474FD90>","<openexp._canvas.legacy.legacy object at 0x043EA3D0>","75","C:/Userdata/Michel/SpatProbMultiple3","no","mono","no","18","no","white","no","yes","0.09","98","1050","legacy","45","14","14","1","C:/Userdata/Michel/SpatProbMultiple3/beh/subject-16.csv","legacy","9","192","25","Jazzy James","3.1.9","yes","598477b2b83f69022949e7e9","47","red","rectangular","red","circular","0","\","801","space","21299","21299","(80, 80, 80)","(0, 123, 0)","(177, 0, 0)","(155, 155, 155)","2","legacy","experiment","[7, 0, 1, 2, 3, 4, 5, 6]","\","2500","3000","0","8","252.758751519","1024","2","48000","-16","main","[(0, -252), (178, -178), (252, 0), (178, 178), (0, 252), (-178, 178), (-252, 0), (-178, -178)]","[]","16","even","0","NA","238039","296688","296688","127846","126838","1879","168901","168901","1879","1879","149146","335673","1877","296688","334868","334038","334038","NA","821","study_X","0","21299","1","yes","1680"
"undefined","undefined","NA","NA","NA","21299","21299","black","no","legacy","legacy","legacy","0","green","(0, 123, 0)","shape","absent","lowProb5","rectangular","swap","same","swap","swap","green","(0, 123, 0)","lowProb","lowProb5","rectangular","uniform","1","undefined","0","0.0833333333333","1","1","83.0104166667","1","16","15938","0","0","0","0","0","0","0","0","41","0","1","0.0833333333333","83.0104166667","16","15938","40","40","40","11/27/18 15:37:29","Default description","yes","<openexp._canvas.legacy.legacy object at 0x043D6050>","<openexp._canvas.legacy.legacy object at 0x043D6AD0>","<openexp._canvas.legacy.legacy object at 0x043EF250>","<openexp._canvas.legacy.legacy object at 0x043E49B0>","<openexp._canvas.legacy.legacy object at 0x04421050>","<openexp._canvas.legacy.legacy object at 0x043C71D0>","<openexp._canvas.legacy.legacy object at 0x043F1690>","<openexp._canvas.legacy.legacy object at 0x043EA3D0>","75","C:/Userdata/Michel/SpatProbMultiple3","no","mono","no","18","no","white","no","yes","0.09","98","1050","legacy","315","15","15","1","C:/Userdata/Michel/SpatProbMultiple3/beh/subject-16.csv","legacy","9","192","25","Jazzy James","3.1.9","yes","598477b2b83f69022949e7e9","47","green","rectangular","green","rectangular","0","/","1109","space","21299","21299","(80, 80, 80)","(0, 123, 0)","(177, 0, 0)","(155, 155, 155)","2","legacy","experiment","[7, 0, 1, 2, 3, 4, 5, 6]","/","2500","3000","0","8","252.758751519","1024","2","48000","-16","main","[(0, -252), (178, -178), (252, 0), (178, 178), (0, 252), (-178, 178), (-252, 0), (-178, -178)]","[]","16","even","5","NA","238039","296688","296688","127846","126838","1879","168901","168901","1879","1879","149146","338048","1877","296688","336936","336106","336106","NA","821","study_X","0","21299","1","yes","1680"
"undefined","undefined","NA","NA","NA","21299","21299","black","no","legacy","legacy","legacy","0","red","(177, 0, 0)","color","present","lowProb5","rectangular","swap","same","same","same","green","(0, 123, 0)","lowProb","lowProb3","rectangular","uniform","1","undefined","0","0.0885416666667","1","1","87.5260416667","1","17","16805","0","0","0","0","0","0","0","0","42","0","1","0.0885416666667","87.5260416667","17","16805","41","41","41","11/27/18 15:37:29","Default description","yes","<openexp._canvas.legacy.legacy object at 0x043D6050>","<openexp._canvas.legacy.legacy object at 0x043D6AD0>","<openexp._canvas.legacy.legacy object at 0x043EF250>","<openexp._canvas.legacy.legacy object at 0x043E49B0>","<openexp._canvas.legacy.legacy object at 0x04421050>","<openexp._canvas.legacy.legacy object at 0x043C71D0>","<openexp._canvas.legacy.legacy object at 0x043D4FD0>","<openexp._canvas.legacy.legacy object at 0x043EA3D0>","75","C:/Userdata/Michel/SpatProbMultiple3","no","mono","no","18","no","white","no","yes","0.09","98","1050","legacy","45","16","16","1","C:/Userdata/Michel/SpatProbMultiple3/beh/subject-16.csv","legacy","9","192","25","Jazzy James","3.1.9","yes","598477b2b83f69022949e7e9","47","red","rectangular","green","rectangular","0","\","867","space","21299","21299","(80, 80, 80)","(0, 123, 0)","(177, 0, 0)","(155, 155, 155)","2","legacy","experiment","[7, 0, 1, 2, 3, 4, 5, 6]","\","2500","3000","0","8","252.758751519","1024","2","48000","-16","main","[(0, -252), (178, -178), (252, 0), (178, 178), (0, 252), (-178, 178), (-252, 0), (-178, -178)]","[]","16","even","2","NA","238039","296688","296688","127846","126838","1879","168901","168901","1879","1879","149146","340184","1877","296688","339314","338484","338484","NA","821","study_X","0","21299","1","yes","1680"
"undefined","undefined","NA","NA","NA","21299","21299","black","no","legacy","legacy","legacy","0","red","(177, 0, 0)","color","present","lowProb2","rectangular","same","same","same","same","green","(0, 123, 0)","lowProb","lowProb6","rectangular","uniform","1","undefined","0","0.09375","1","1","91.6302083333","1","18","17593","0","0","0","0","0","0","0","0","43","0","1","0.09375","91.6302083333","18","17593","42","42","42","11/27/18 15:37:29","Default description","yes","<openexp._canvas.legacy.legacy object at 0x043D6050>","<openexp._canvas.legacy.legacy object at 0x043D6AD0>","<openexp._canvas.legacy.legacy object at 0x043EF250>","<openexp._canvas.legacy.legacy object at 0x043E49B0>","<openexp._canvas.legacy.legacy object at 0x04421050>","<openexp._canvas.legacy.legacy object at 0x043C71D0>","<openexp._canvas.legacy.legacy object at 0x0474F650>","<openexp._canvas.legacy.legacy object at 0x043EA3D0>","75","C:/Userdata/Michel/SpatProbMultiple3","no","mono","no","18","no","white","no","yes","0.09","98","1050","legacy","45","17","17","1","C:/Userdata/Michel/SpatProbMultiple3/beh/subject-16.csv","legacy","9","192","25","Jazzy James","3.1.9","yes","598477b2b83f69022949e7e9","47","red","rectangular","green","rectangular","0","\","788","space","21299","21299","(80, 80, 80)","(0, 123, 0)","(177, 0, 0)","(155, 155, 155)","2","legacy","experiment","[7, 0, 1, 2, 3, 4, 5, 6]","\","2500","3000","0","8","252.758751519","1024","2","48000","-16","main","[(0, -252), (178, -178), (252, 0), (178, 178), (0, 252), (-178, 178), (-252, 0), (-178, -178)]","[]","16","even","6","NA","238039","296688","296688","127846","126838","1879","168901","168901","1879","1879","149146","342240","1877","296688","341449","340619","340619","NA","821","study_X","0","21299","1","yes","1680"
"undefined","undefined","NA","NA","NA","21299","21299","black","no","legacy","legacy","legacy","0","red","(177, 0, 0)","color","present","highProb","rectangular","same","same","same","same","green","(0, 123, 0)","lowProb","lowProb3","rectangular","uniform","1","undefined","0","0.0989583333333","1","1","95.0833333333","1","19","18256","0","0","0","0","0","0","0","0","44","0","1","0.0989583333333","95.0833333333","19","18256","43","43","43","11/27/18 15:37:29","Default description","yes","<openexp._canvas.legacy.legacy object at 0x043D6050>","<openexp._canvas.legacy.legacy object at 0x043D6AD0>","<openexp._canvas.legacy.legacy object at 0x043EF250>","<openexp._canvas.legacy.legacy object at 0x043E49B0>","<openexp._canvas.legacy.legacy object at 0x04421050>","<openexp._canvas.legacy.legacy object at 0x043C71D0>","<openexp._canvas.legacy.legacy object at 0x043F1730>","<openexp._canvas.legacy.legacy object at 0x043EA3D0>","75","C:/Userdata/Michel/SpatProbMultiple3","no","mono","no","18","no","white","no","yes","0.09","98","1050","legacy","315","18","18","1","C:/Userdata/Michel/SpatProbMultiple3/beh/subject-16.csv","legacy","9","192","25","Jazzy James","3.1.9","yes","598477b2b83f69022949e7e9","47","red","rectangular","green","rectangular","0","/","663","space","21299","21299","(80, 80, 80)","(0, 123, 0)","(177, 0, 0)","(155, 155, 155)","2","legacy","experiment","[7, 0, 1, 2, 3, 4, 5, 6]","/","2500","3000","0","8","252.758751519","1024","2","48000","-16","main","[(0, -252), (178, -178), (252, 0), (178, 178), (0, 252), (-178, 178), (-252, 0), (-178, -178)]","[]","16","even","2","NA","238039","296688","296688","127846","126838","1879","168901","168901","1879","1879","149146","344200","1877","296688","343533","342703","342703","NA","821","study_X","0","21299","1","yes","1680"
"undefined","undefined","NA","NA","NA","21299","21299","black","no","legacy","legacy","legacy","0","red","(177, 0, 0)","color","present","highProb","circular","same","swap","same","swap","green","(0, 123, 0)","lowProb","lowProb3","circular","uniform","1","undefined","0","0.104166666667","1","1","99.640625","1","20","19131","0","0","0","0","0","0","0","0","45","0","1","0.104166666667","99.640625","20","19131","44","44","44","11/27/18 15:37:29","Default description","yes","<openexp._canvas.legacy.legacy object at 0x043D6050>","<openexp._canvas.legacy.legacy object at 0x043D6AD0>","<openexp._canvas.legacy.legacy object at 0x043EF250>","<openexp._canvas.legacy.legacy object at 0x043E49B0>","<openexp._canvas.legacy.legacy object at 0x04421050>","<openexp._canvas.legacy.legacy object at 0x043C71D0>","<openexp._canvas.legacy.legacy object at 0x043D6710>","<openexp._canvas.legacy.legacy object at 0x043EA3D0>","75","C:/Userdata/Michel/SpatProbMultiple3","no","mono","no","18","no","white","no","yes","0.09","98","1050","legacy","45","19","19","1","C:/Userdata/Michel/SpatProbMultiple3/beh/subject-16.csv","legacy","9","192","25","Jazzy James","3.1.9","yes","598477b2b83f69022949e7e9","47","red","circular","green","circular","0","\","875","space","21299","21299","(80, 80, 80)","(0, 123, 0)","(177, 0, 0)","(155, 155, 155)","2","legacy","experiment","[7, 0, 1, 2, 3, 4, 5, 6]","\","2500","3000","0","8","252.758751519","1024","2","48000","-16","main","[(0, -252), (178, -178), (252, 0), (178, 178), (0, 252), (-178, 178), (-252, 0), (-178, -178)]","[]","16","even","2","NA","238039","296688","296688","127846","126838","1879","168901","168901","1879","1879","149146","346368","1877","296688","345490","344659","344660","NA","821","study_X","0","21299","1","yes","1680"
"undefined","undefined","NA","NA","NA","21299","21299","black","no","legacy","legacy","legacy","0","red","(177, 0, 0)","color","present","highProb","rectangular","same","swap","same","swap","green","(0, 123, 0)","lowProb","lowProb4","rectangular","uniform","1","undefined","0","0.109375","1","1","106.260416667","1","21","20402","0","0","0","0","0","0","0","0","46","0","1","0.109375","106.260416667","21","20402","45","45","45","11/27/18 15:37:29","Default description","yes","<openexp._canvas.legacy.legacy object at 0x043D6050>","<openexp._canvas.legacy.legacy object at 0x043D6AD0>","<openexp._canvas.legacy.legacy object at 0x043EF250>","<openexp._canvas.legacy.legacy object at 0x043E49B0>","<openexp._canvas.legacy.legacy object at 0x04421050>","<openexp._canvas.legacy.legacy object at 0x043C71D0>","<openexp._canvas.legacy.legacy object at 0x043D4FD0>","<openexp._canvas.legacy.legacy object at 0x043EA3D0>","75","C:/Userdata/Michel/SpatProbMultiple3","no","mono","no","18","no","white","no","yes","0.09","98","1050","legacy","315","20","20","1","C:/Userdata/Michel/SpatProbMultiple3/beh/subject-16.csv","legacy","9","192","25","Jazzy James","3.1.9","yes","598477b2b83f69022949e7e9","47","red","rectangular","green","rectangular","0","/","1271","space","21299","21299","(80, 80, 80)","(0, 123, 0)","(177, 0, 0)","(155, 155, 155)","2","legacy","experiment","[7, 0, 1, 2, 3, 4, 5, 6]","/","2500","3000","0","8","252.758751519","1024","2","48000","-16","main","[(0, -252), (178, -178), (252, 0), (178, 178), (0, 252), (-178, 178), (-252, 0), (-178, -178)]","[]","16","even","4","NA","238039","296688","296688","127846","126838","1879","168901","168901","1879","1879","149146","348904","1877","296688","347629","346798","346798","NA","821","study_X","0","21299","1","yes","1680"
"undefined","undefined","NA","NA","NA","21299","21299","black","no","legacy","legacy","legacy","0","red","(177, 0, 0)","color","present","highProb","circular","same","swap","same","swap","green","(0, 123, 0)","lowProb","lowProb3","circular","uniform","1","undefined","0","0.114583333333","1","1","111.015625","1","22","21315","0","0","0","0","0","0","0","0","47","0","1","0.114583333333","111.015625","22","21315","46","46","46","11/27/18 15:37:29","Default description","yes","<openexp._canvas.legacy.legacy object at 0x043D6050>","<openexp._canvas.legacy.legacy object at 0x043D6AD0>","<openexp._canvas.legacy.legacy object at 0x043EF250>","<openexp._canvas.legacy.legacy object at 0x043E49B0>","<openexp._canvas.legacy.legacy object at 0x04421050>","<openexp._canvas.legacy.legacy object at 0x043C71D0>","<openexp._canvas.legacy.legacy object at 0x043F1F50>","<openexp._canvas.legacy.legacy object at 0x043EA3D0>","75","C:/Userdata/Michel/SpatProbMultiple3","no","mono","no","18","no","white","no","yes","0.09","98","1050","legacy","45","21","21","1","C:/Userdata/Michel/SpatProbMultiple3/beh/subject-16.csv","legacy","9","192","25","Jazzy James","3.1.9","yes","598477b2b83f69022949e7e9","47","red","circular","green","circular","0","\","913","space","21299","21299","(80, 80, 80)","(0, 123, 0)","(177, 0, 0)","(155, 155, 155)","2","legacy","experiment","[7, 0, 1, 2, 3, 4, 5, 6]","\","2500","3000","0","8","252.758751519","1024","2","48000","-16","main","[(0, -252), (178, -178), (252, 0), (178, 178), (0, 252), (-178, 178), (-252, 0), (-178, -178)]","[]","16","even","2","NA","238039","296688","296688","127846","126838","1879","168901","168901","1879","1879","149146","351097","1877","296688","350180","349350","349350","NA","821","study_X","0","21299","1","yes","1680"
"undefined","undefined","NA","NA","NA","21299","21299","black","no","legacy","legacy","legacy","0","red","(177, 0, 0)","shape","present","lowProb4","rectangular","same","swap","swap","same","red","(177, 0, 0)","lowProb","lowProb3","circular","uniform","1","undefined","0","0.119791666667","1","1","116.630208333","1","23","22393","0","0","0","0","0","0","0","0","48","0","1","0.119791666667","116.630208333","23","22393","47","47","47","11/27/18 15:37:29","Default description","yes","<openexp._canvas.legacy.legacy object at 0x043D6050>","<openexp._canvas.legacy.legacy object at 0x043D6AD0>","<openexp._canvas.legacy.legacy object at 0x043EF250>","<openexp._canvas.legacy.legacy object at 0x043E49B0>","<openexp._canvas.legacy.legacy object at 0x04421050>","<openexp._canvas.legacy.legacy object at 0x043C71D0>","<openexp._canvas.legacy.legacy object at 0x043EFD50>","<openexp._canvas.legacy.legacy object at 0x043EA3D0>","75","C:/Userdata/Michel/SpatProbMultiple3","no","mono","no","18","no","white","no","yes","0.09","98","1050","legacy","315","22","22","1","C:/Userdata/Michel/SpatProbMultiple3/beh/subject-16.csv","legacy","9","192","25","Jazzy James","3.1.9","yes","598477b2b83f69022949e7e9","47","red","rectangular","red","circular","0","/","1078","space","21299","21299","(80, 80, 80)","(0, 123, 0)","(177, 0, 0)","(155, 155, 155)","2","legacy","experiment","[7, 0, 1, 2, 3, 4, 5, 6]","/","2500","3000","0","8","252.758751519","1024","2","48000","-16","main","[(0, -252), (178, -178), (252, 0), (178, 178), (0, 252), (-178, 178), (-252, 0), (-178, -178)]","[]","16","even","2","NA","238039","296688","296688","127846","126838","1879","168901","168901","1879","1879","149146","353448","1877","296688","352367","351537","351537","NA","821","study_X","0","21299","1","yes","1680"
"undefined","undefined","NA","NA","NA","21299","21299","black","no","legacy","legacy","legacy","0","red","(177, 0, 0)","color","absent","highProb","rectangular","same","same","same","swap","red","(177, 0, 0)","highProbShape","highProbShape","rectangular","uniform","1","undefined","0","0.125","1","1","120.640625","1","24","23163","0","0","0","0","0","0","0","0","49","0","1","0.125","120.640625","24","23163","48","48","48","11/27/18 15:37:29","Default description","yes","<openexp._canvas.legacy.legacy object at 0x043D6050>","<openexp._canvas.legacy.legacy object at 0x043D6AD0>","<openexp._canvas.legacy.legacy object at 0x043EF250>","<openexp._canvas.legacy.legacy object at 0x043E49B0>","<openexp._canvas.legacy.legacy object at 0x04421050>","<openexp._canvas.legacy.legacy object at 0x043C71D0>","<openexp._canvas.legacy.legacy object at 0x043D6D10>","<openexp._canvas.legacy.legacy object at 0x043EA3D0>","75","C:/Userdata/Michel/SpatProbMultiple3","no","mono","no","18","no","white","no","yes","0.09","98","1050","legacy","45","23","23","1","C:/Userdata/Michel/SpatProbMultiple3/beh/subject-16.csv","legacy","9","192","25","Jazzy James","3.1.9","yes","598477b2b83f69022949e7e9","47","red","rectangular","red","rectangular","0","\","770","space","21299","21299","(80, 80, 80)","(0, 123, 0)","(177, 0, 0)","(155, 155, 155)","2","legacy","experiment","[7, 0, 1, 2, 3, 4, 5, 6]","\","2500","3000","0","8","252.758751519","1024","2","48000","-16","main","[(0, -252), (178, -178), (252, 0), (178, 178), (0, 252), (-178, 178), (-252, 0), (-178, -178)]","[]","16","even","3","NA","238039","296688","296688","127846","126838","1879","168901","168901","1879","1879","149146","355488","1877","296688","354716","353886","353886","NA","821","study_X","0","21299","1","yes","1680"
"undefined","undefined","NA","NA","NA","21299","21299","black","no","legacy","legacy","legacy","0","green","(0, 123, 0)","color","absent","lowProb4","circular","swap","swap","swap","swap","green","(0, 123, 0)","highProbShape","highProbShape","circular","uniform","1","undefined","0","0.130208333333","1","1","123.71875","1","25","23754","0","0","0","0","0","0","0","0","50","0","1","0.130208333333","123.71875","25","23754","49","49","49","11/27/18 15:37:29","Default description","yes","<openexp._canvas.legacy.legacy object at 0x043D6050>","<openexp._canvas.legacy.legacy object at 0x043D6AD0>","<openexp._canvas.legacy.legacy object at 0x043EF250>","<openexp._canvas.legacy.legacy object at 0x043E49B0>","<openexp._canvas.legacy.legacy object at 0x04421050>","<openexp._canvas.legacy.legacy object at 0x043C71D0>","<openexp._canvas.legacy.legacy object at 0x043F1250>","<openexp._canvas.legacy.legacy object at 0x043EA3D0>","75","C:/Userdata/Michel/SpatProbMultiple3","no","mono","no","18","no","white","no","yes","0.09","98","1050","legacy","45","24","24","1","C:/Userdata/Michel/SpatProbMultiple3/beh/subject-16.csv","legacy","9","192","25","Jazzy James","3.1.9","yes","598477b2b83f69022949e7e9","47","green","circular","green","circular","0","\","591","space","21299","21299","(80, 80, 80)","(0, 123, 0)","(177, 0, 0)","(155, 155, 155)","2","legacy","experiment","[7, 0, 1, 2, 3, 4, 5, 6]","\","2500","3000","0","8","252.758751519","1024","2","48000","-16","main","[(0, -252), (178, -178), (252, 0), (178, 178), (0, 252), (-178, 178), (-252, 0), (-178, -178)]","[]","16","even","3","NA","238039","296688","296688","127846","126838","1879","168901","168901","1879","1879","149146","357352","1877","296688","356758","355927","355928","NA","821","study_X","0","21299","1","yes","1680"
"undefined","undefined","NA","NA","NA","21299","21299","black","no","legacy","legacy","legacy","0","green","(0, 123, 0)","color","present","highProb","rectangular","same","swap","swap","swap","red","(177, 0, 0)","lowProb","lowProb1","rectangular","uniform","0","undefined","0","0.130208333333","1","1","136.739583333","1","25","26254","0","0","0","0","0","0","0","0","51","0","1","0.130208333333","136.739583333","25","26254","50","50","50","11/27/18 15:37:29","Default description","yes","<openexp._canvas.legacy.legacy object at 0x043D6050>","<openexp._canvas.legacy.legacy object at 0x043D6AD0>","<openexp._canvas.legacy.legacy object at 0x043EF250>","<openexp._canvas.legacy.legacy object at 0x043E49B0>","<openexp._canvas.legacy.legacy object at 0x04421050>","<openexp._canvas.legacy.legacy object at 0x043C71D0>","<openexp._canvas.legacy.legacy object at 0x043CDAD0>","<openexp._canvas.legacy.legacy object at 0x043EA3D0>","75","C:/Userdata/Michel/SpatProbMultiple3","no","mono","no","18","no","white","no","yes","0.09","98","1050","legacy","45","25","25","1","C:/Userdata/Michel/SpatProbMultiple3/beh/subject-16.csv","legacy","9","192","25","Jazzy James","3.1.9","yes","598477b2b83f69022949e7e9","47","green","rectangular","red","rectangular","0","None","2500","space","21299","21299","(80, 80, 80)","(0, 123, 0)","(177, 0, 0)","(155, 155, 155)","2","legacy","experiment","[7, 0, 1, 2, 3, 4, 5, 6]","\","2500","3000","0","8","252.758751519","1024","2","48000","-16","main","[(0, -252), (178, -178), (252, 0), (178, 178), (0, 252), (-178, 178), (-252, 0), (-178, -178)]","[]","16","even","0","NA","238039","296688","296688","127846","126838","1879","168901","168901","1879","1879","149146","361115","1877","296688","358612","357782","357782","NA","821","study_X","0","21299","1","yes","1680"
"undefined","undefined","NA","NA","NA","21299","21299","black","no","legacy","legacy","legacy","0","red","(177, 0, 0)","color","present","highProb","rectangular","swap","same","swap","same","green","(0, 123, 0)","lowProb","lowProb5","rectangular","uniform","1","undefined","0","0.135416666667","1","1","142.098958333","1","26","27283","0","0","0","0","0","0","0","0","52","0","1","0.135416666667","142.098958333","26","27283","51","51","51","11/27/18 15:37:29","Default description","yes","<openexp._canvas.legacy.legacy object at 0x043D6050>","<openexp._canvas.legacy.legacy object at 0x043D6AD0>","<openexp._canvas.legacy.legacy object at 0x043EF250>","<openexp._canvas.legacy.legacy object at 0x043E49B0>","<openexp._canvas.legacy.legacy object at 0x04421050>","<openexp._canvas.legacy.legacy object at 0x043C71D0>","<openexp._canvas.legacy.legacy object at 0x043EFD50>","<openexp._canvas.legacy.legacy object at 0x043EA3D0>","75","C:/Userdata/Michel/SpatProbMultiple3","no","mono","no","18","no","white","no","yes","0.09","98","1050","legacy","45","26","26","1","C:/Userdata/Michel/SpatProbMultiple3/beh/subject-16.csv","legacy","9","192","25","Jazzy James","3.1.9","yes","598477b2b83f69022949e7e9","47","red","rectangular","green","rectangular","0","\","1029","space","21299","21299","(80, 80, 80)","(0, 123, 0)","(177, 0, 0)","(155, 155, 155)","2","legacy","experiment","[7, 0, 1, 2, 3, 4, 5, 6]","\","2500","3000","0","8","252.758751519","1024","2","48000","-16","main","[(0, -252), (178, -178), (252, 0), (178, 178), (0, 252), (-178, 178), (-252, 0), (-178, -178)]","[]","16","even","5","NA","238039","296688","296688","127846","126838","1879","168901","168901","1879","1879","149146","363408","1877","296688","362375","361544","361544","NA","821","study_X","0","21299","1","yes","1680"
"undefined","undefined","NA","NA","NA","21299","21299","black","no","legacy","legacy","legacy","0","red","(177, 0, 0)","shape","present","highProb","rectangular","same","same","swap","swap","red","(177, 0, 0)","highProbColor","highProbColor","circular","uniform","1","undefined","0","0.140625","1","1","150.161458333","1","27","28831","0","0","0","0","0","0","0","0","53","0","1","0.140625","150.161458333","27","28831","52","52","52","11/27/18 15:37:29","Default description","yes","<openexp._canvas.legacy.legacy object at 0x043D6050>","<openexp._canvas.legacy.legacy object at 0x043D6AD0>","<openexp._canvas.legacy.legacy object at 0x043EF250>","<openexp._canvas.legacy.legacy object at 0x043E49B0>","<openexp._canvas.legacy.legacy object at 0x04421050>","<openexp._canvas.legacy.legacy object at 0x043C71D0>","<openexp._canvas.legacy.legacy object at 0x043F8330>","<openexp._canvas.legacy.legacy object at 0x043EA3D0>","75","C:/Userdata/Michel/SpatProbMultiple3","no","mono","no","18","no","white","no","yes","0.09","98","1050","legacy","45","27","27","1","C:/Userdata/Michel/SpatProbMultiple3/beh/subject-16.csv","legacy","9","192","25","Jazzy James","3.1.9","yes","598477b2b83f69022949e7e9","47","red","rectangular","red","circular","0","\","1548","space","21299","21299","(80, 80, 80)","(0, 123, 0)","(177, 0, 0)","(155, 155, 155)","2","legacy","experiment","[7, 0, 1, 2, 3, 4, 5, 6]","\","2500","3000","0","8","252.758751519","1024","2","48000","-16","main","[(0, -252), (178, -178), (252, 0), (178, 178), (0, 252), (-178, 178), (-252, 0), (-178, -178)]","[]","16","even","7","NA","238039","296688","296688","127846","126838","1879","168901","168901","1879","1879","149146","366232","1877","296688","364680","363850","363850","NA","821","study_X","0","21299","1","yes","1680"
"undefined","undefined","NA","NA","NA","21299","21299","black","no","legacy","legacy","legacy","0","red","(177, 0, 0)","shape","present","highProb","circular","same","swap","same","swap","red","(177, 0, 0)","lowProb","lowProb3","rectangular","uniform","1","undefined","0","0.145833333333","1","1","153.640625","1","28","29499","0","0","0","0","0","0","0","0","54","0","1","0.145833333333","153.640625","28","29499","53","53","53","11/27/18 15:37:29","Default description","yes","<openexp._canvas.legacy.legacy object at 0x043D6050>","<openexp._canvas.legacy.legacy object at 0x043D6AD0>","<openexp._canvas.legacy.legacy object at 0x043EF250>","<openexp._canvas.legacy.legacy object at 0x043E49B0>","<openexp._canvas.legacy.legacy object at 0x04421050>","<openexp._canvas.legacy.legacy object at 0x043C71D0>","<openexp._canvas.legacy.legacy object at 0x043D6070>","<openexp._canvas.legacy.legacy object at 0x043EA3D0>","75","C:/Userdata/Michel/SpatProbMultiple3","no","mono","no","18","no","white","no","yes","0.09","98","1050","legacy","45","28","28","1","C:/Userdata/Michel/SpatProbMultiple3/beh/subject-16.csv","legacy","9","192","25","Jazzy James","3.1.9","yes","598477b2b83f69022949e7e9","47","red","circular","red","rectangular","0","\","668","space","21299","21299","(80, 80, 80)","(0, 123, 0)","(177, 0, 0)","(155, 155, 155)","2","legacy","experiment","[7, 0, 1, 2, 3, 4, 5, 6]","\","2500","3000","0","8","252.758751519","1024","2","48000","-16","main","[(0, -252), (178, -178), (252, 0), (178, 178), (0, 252), (-178, 178), (-252, 0), (-178, -178)]","[]","16","even","2","NA","238039","296688","296688","127846","126838","1879","168901","168901","1879","1879","149146","368160","1877","296688","367489","366659","366659","NA","821","study_X","0","21299","1","yes","1680"
"undefined","undefined","NA","NA","NA","21299","21299","black","no","legacy","legacy","legacy","0","green","(0, 123, 0)","shape","present","highProbOther","circular","swap","same","swap","same","green","(0, 123, 0)","lowProb","lowProb1","rectangular","uniform","1","undefined","0","0.151041666667","1","1","159","1","29","30528","0","0","0","0","0","0","0","0","55","0","1","0.151041666667","159","29","30528","54","54","54","11/27/18 15:37:29","Default description","yes","<openexp._canvas.legacy.legacy object at 0x043D6050>","<openexp._canvas.legacy.legacy object at 0x043D6AD0>","<openexp._canvas.legacy.legacy object at 0x043EF250>","<openexp._canvas.legacy.legacy object at 0x043E49B0>","<openexp._canvas.legacy.legacy object at 0x04421050>","<openexp._canvas.legacy.legacy object at 0x043C71D0>","<openexp._canvas.legacy.legacy object at 0x0474F170>","<openexp._canvas.legacy.legacy object at 0x043EA3D0>","75","C:/Userdata/Michel/SpatProbMultiple3","no","mono","no","18","no","white","no","yes","0.09","98","1050","legacy","45","29","29","1","C:/Userdata/Michel/SpatProbMultiple3/beh/subject-16.csv","legacy","9","192","25","Jazzy James","3.1.9","yes","598477b2b83f69022949e7e9","47","green","circular","green","rectangular","0","\","1029","space","21299","21299","(80, 80, 80)","(0, 123, 0)","(177, 0, 0)","(155, 155, 155)","2","legacy","experiment","[7, 0, 1, 2, 3, 4, 5, 6]","\","2500","3000","0","8","252.758751519","1024","2","48000","-16","main","[(0, -252), (178, -178), (252, 0), (178, 178), (0, 252), (-178, 178), (-252, 0), (-178, -178)]","[]","16","even","0","NA","238039","296688","296688","127846","126838","1879","168901","168901","1879","1879","149146","370456","1877","296688","369424","368594","368594","NA","821","study_X","0","21299","1","yes","1680"
"undefined","undefined","NA","NA","NA","21299","21299","black","no","legacy","legacy","legacy","0","red","(177, 0, 0)","color","present","highProb","circular","swap","same","same","swap","green","(0, 123, 0)","lowProb","lowProb2","circular","uniform","1","undefined","0","0.15625","1","1","164.088541667","1","30","31505","0","0","0","0","0","0","0","0","56","0","1","0.15625","164.088541667","30","31505","55","55","55","11/27/18 15:37:29","Default description","yes","<openexp._canvas.legacy.legacy object at 0x043D6050>","<openexp._canvas.legacy.legacy object at 0x043D6AD0>","<openexp._canvas.legacy.legacy object at 0x043EF250>","<openexp._canvas.legacy.legacy object at 0x043E49B0>","<openexp._canvas.legacy.legacy object at 0x04421050>","<openexp._canvas.legacy.legacy object at 0x043C71D0>","<openexp._canvas.legacy.legacy object at 0x043F16D0>","<openexp._canvas.legacy.legacy object at 0x043EA3D0>","75","C:/Userdata/Michel/SpatProbMultiple3","no","mono","no","18","no","white","no","yes","0.09","98","1050","legacy","315","30","30","1","C:/Userdata/Michel/SpatProbMultiple3/beh/subject-16.csv","legacy","9","192","25","Jazzy James","3.1.9","yes","598477b2b83f69022949e7e9","47","red","circular","green","circular","0","/","977","space","21299","21299","(80, 80, 80)","(0, 123, 0)","(177, 0, 0)","(155, 155, 155)","2","legacy","experiment","[7, 0, 1, 2, 3, 4, 5, 6]","/","2500","3000","0","8","252.758751519","1024","2","48000","-16","main","[(0, -252), (178, -178), (252, 0), (178, 178), (0, 252), (-178, 178), (-252, 0), (-178, -178)]","[]","16","even","1","NA","238039","296688","296688","127846","126838","1879","168901","168901","1879","1879","149146","372712","1877","296688","371732","370902","370902","NA","821","study_X","0","21299","1","yes","1680"
"undefined","undefined","NA","NA","NA","21299","21299","black","no","legacy","legacy","legacy","0","green","(0, 123, 0)","color","absent","lowProb1","circular","swap","same","same","same","green","(0, 123, 0)","highProbColor","highProbColor","circular","uniform","1","undefined","0","0.161458333333","1","1","174.083333333","1","31","33424","0","0","0","0","0","0","0","0","57","0","1","0.161458333333","174.083333333","31","33424","56","56","56","11/27/18 15:37:29","Default description","yes","<openexp._canvas.legacy.legacy object at 0x043D6050>","<openexp._canvas.legacy.legacy object at 0x043D6AD0>","<openexp._canvas.legacy.legacy object at 0x043EF250>","<openexp._canvas.legacy.legacy object at 0x043E49B0>","<openexp._canvas.legacy.legacy object at 0x04421050>","<openexp._canvas.legacy.legacy object at 0x043C71D0>","<openexp._canvas.legacy.legacy object at 0x043D6ED0>","<openexp._canvas.legacy.legacy object at 0x043EA3D0>","75","C:/Userdata/Michel/SpatProbMultiple3","no","mono","no","18","no","white","no","yes","0.09","98","1050","legacy","45","31","31","1","C:/Userdata/Michel/SpatProbMultiple3/beh/subject-16.csv","legacy","9","192","25","Jazzy James","3.1.9","yes","598477b2b83f69022949e7e9","47","green","circular","green","circular","0","\","1919","space","21299","21299","(80, 80, 80)","(0, 123, 0)","(177, 0, 0)","(155, 155, 155)","2","legacy","experiment","[7, 0, 1, 2, 3, 4, 5, 6]","\","2500","3000","0","8","252.758751519","1024","2","48000","-16","main","[(0, -252), (178, -178), (252, 0), (178, 178), (0, 252), (-178, 178), (-252, 0), (-178, -178)]","[]","16","even","7","NA","238039","296688","296688","127846","126838","1879","168901","168901","1879","1879","149146","375904","1877","296688","373982","373151","373152","NA","821","study_X","0","21299","1","yes","1680"
"undefined","undefined","NA","NA","NA","21299","21299","black","no","legacy","legacy","legacy","0","green","(0, 123, 0)","color","present","highProb","rectangular","same","swap","swap","swap","red","(177, 0, 0)","lowProb","lowProb1","rectangular","uniform","1","undefined","0","0.166666666667","1","1","180.046875","1","32","34569","0","0","0","0","0","0","0","0","58","0","1","0.166666666667","180.046875","32","34569","57","57","57","11/27/18 15:37:29","Default description","yes","<openexp._canvas.legacy.legacy object at 0x043D6050>","<openexp._canvas.legacy.legacy object at 0x043D6AD0>","<openexp._canvas.legacy.legacy object at 0x043EF250>","<openexp._canvas.legacy.legacy object at 0x043E49B0>","<openexp._canvas.legacy.legacy object at 0x04421050>","<openexp._canvas.legacy.legacy object at 0x043C71D0>","<openexp._canvas.legacy.legacy object at 0x0474FBF0>","<openexp._canvas.legacy.legacy object at 0x043EA3D0>","75","C:/Userdata/Michel/SpatProbMultiple3","no","mono","no","18","no","white","no","yes","0.09","98","1050","legacy","315","32","32","1","C:/Userdata/Michel/SpatProbMultiple3/beh/subject-16.csv","legacy","9","192","25","Jazzy James","3.1.9","yes","598477b2b83f69022949e7e9","47","green","rectangular","red","rectangular","0","/","1145","space","21299","21299","(80, 80, 80)","(0, 123, 0)","(177, 0, 0)","(155, 155, 155)","2","legacy","experiment","[7, 0, 1, 2, 3, 4, 5, 6]","/","2500","3000","0","8","252.758751519","1024","2","48000","-16","main","[(0, -252), (178, -178), (252, 0), (178, 178), (0, 252), (-178, 178), (-252, 0), (-178, -178)]","[]","16","even","0","NA","238039","296688","296688","127846","126838","1879","168901","168901","1879","1879","149146","378312","1877","296688","377163","376333","376333","NA","821","study_X","0","21299","1","yes","1680"
"undefined","undefined","NA","NA","NA","21299","21299","black","no","legacy","legacy","legacy","0","red","(177, 0, 0)","shape","present","lowProb2","rectangular","swap","same","same","swap","red","(177, 0, 0)","lowProb","lowProb1","circular","uniform","1","undefined","0","0.171875","1","1","184.28125","1","33","35382","0","0","0","0","0","0","0","0","59","0","1","0.171875","184.28125","33","35382","58","58","58","11/27/18 15:37:29","Default description","yes","<openexp._canvas.legacy.legacy object at 0x043D6050>","<openexp._canvas.legacy.legacy object at 0x043D6AD0>","<openexp._canvas.legacy.legacy object at 0x043EF250>","<openexp._canvas.legacy.legacy object at 0x043E49B0>","<openexp._canvas.legacy.legacy object at 0x04421050>","<openexp._canvas.legacy.legacy object at 0x043C71D0>","<openexp._canvas.legacy.legacy object at 0x043CD7B0>","<openexp._canvas.legacy.legacy object at 0x043EA3D0>","75","C:/Userdata/Michel/SpatProbMultiple3","no","mono","no","18","no","white","no","yes","0.09","98","1050","legacy","315","33","33","1","C:/Userdata/Michel/SpatProbMultiple3/beh/subject-16.csv","legacy","9","192","25","Jazzy James","3.1.9","yes","598477b2b83f69022949e7e9","47","red","rectangular","red","circular","0","/","813","space","21299","21299","(80, 80, 80)","(0, 123, 0)","(177, 0, 0)","(155, 155, 155)","2","legacy","experiment","[7, 0, 1, 2, 3, 4, 5, 6]","/","2500","3000","0","8","252.758751519","1024","2","48000","-16","main","[(0, -252), (178, -178), (252, 0), (178, 178), (0, 252), (-178, 178), (-252, 0), (-178, -178)]","[]","16","even","0","NA","238039","296688","296688","127846","126838","1879","168901","168901","1879","1879","149146","380416","1877","296688","379599","378768","378768","NA","821","study_X","0","21299","1","yes","1680"
"undefined","undefined","NA","NA","NA","21299","21299","black","no","legacy","legacy","legacy","0","red","(177, 0, 0)","color","present","lowProb5","circular","same","swap","swap","same","green","(0, 123, 0)","lowProb","lowProb6","circular","uniform","1","undefined","0","0.177083333333","1","1","190.526041667","1","34","36581","0","0","0","0","0","0","0","0","60","0","1","0.177083333333","190.526041667","34","36581","59","59","59","11/27/18 15:37:29","Default description","yes","<openexp._canvas.legacy.legacy object at 0x043D6050>","<openexp._canvas.legacy.legacy object at 0x043D6AD0>","<openexp._canvas.legacy.legacy object at 0x043EF250>","<openexp._canvas.legacy.legacy object at 0x043E49B0>","<openexp._canvas.legacy.legacy object at 0x04421050>","<openexp._canvas.legacy.legacy object at 0x043C71D0>","<openexp._canvas.legacy.legacy object at 0x0475DB70>","<openexp._canvas.legacy.legacy object at 0x043EA3D0>","75","C:/Userdata/Michel/SpatProbMultiple3","no","mono","no","18","no","white","no","yes","0.09","98","1050","legacy","45","34","34","1","C:/Userdata/Michel/SpatProbMultiple3/beh/subject-16.csv","legacy","9","192","25","Jazzy James","3.1.9","yes","598477b2b83f69022949e7e9","47","red","circular","green","circular","0","\","1199","space","21299","21299","(80, 80, 80)","(0, 123, 0)","(177, 0, 0)","(155, 155, 155)","2","legacy","experiment","[7, 0, 1, 2, 3, 4, 5, 6]","\","2500","3000","0","8","252.758751519","1024","2","48000","-16","main","[(0, -252), (178, -178), (252, 0), (178, 178), (0, 252), (-178, 178), (-252, 0), (-178, -178)]","[]","16","even","6","NA","238039","296688","296688","127846","126838","1879","168901","168901","1879","1879","149146","382896","1877","296688","381693","380863","380863","NA","821","study_X","0","21299","1","yes","1680"
"undefined","undefined","NA","NA","NA","21299","21299","black","no","legacy","legacy","legacy","0","green","(0, 123, 0)","shape","present","highProb","rectangular","swap","swap","same","same","green","(0, 123, 0)","lowProb","lowProb5","circular","uniform","1","undefined","0","0.182291666667","1","1","197.510416667","1","35","37922","0","0","0","0","0","0","0","0","61","0","1","0.182291666667","197.510416667","35","37922","60","60","60","11/27/18 15:37:29","Default description","yes","<openexp._canvas.legacy.legacy object at 0x043D6050>","<openexp._canvas.legacy.legacy object at 0x043D6AD0>","<openexp._canvas.legacy.legacy object at 0x043EF250>","<openexp._canvas.legacy.legacy object at 0x043E49B0>","<openexp._canvas.legacy.legacy object at 0x04421050>","<openexp._canvas.legacy.legacy object at 0x043C71D0>","<openexp._canvas.legacy.legacy object at 0x0474FFD0>","<openexp._canvas.legacy.legacy object at 0x043EA3D0>","75","C:/Userdata/Michel/SpatProbMultiple3","no","mono","no","18","no","white","no","yes","0.09","98","1050","legacy","315","35","35","1","C:/Userdata/Michel/SpatProbMultiple3/beh/subject-16.csv","legacy","9","192","25","Jazzy James","3.1.9","yes","598477b2b83f69022949e7e9","47","green","rectangular","green","circular","0","/","1341","space","21299","21299","(80, 80, 80)","(0, 123, 0)","(177, 0, 0)","(155, 155, 155)","2","legacy","experiment","[7, 0, 1, 2, 3, 4, 5, 6]","/","2500","3000","0","8","252.758751519","1024","2","48000","-16","main","[(0, -252), (178, -178), (252, 0), (178, 178), (0, 252), (-178, 178), (-252, 0), (-178, -178)]","[]","16","even","5","NA","238039","296688","296688","127846","126838","1879","168901","168901","1879","1879","149146","385512","1877","296688","384168","383338","383338","NA","821","study_X","0","21299","1","yes","1680"
"undefined","undefined","NA","NA","NA","21299","21299","black","no","legacy","legacy","legacy","0","green","(0, 123, 0)","color","present","lowProb5","circular","same","swap","swap","same","red","(177, 0, 0)","lowProb","lowProb2","circular","uniform","1","undefined","0","0.1875","1","1","200.833333333","1","36","38560","0","0","0","0","0","0","0","0","62","0","1","0.1875","200.833333333","36","38560","61","61","61","11/27/18 15:37:29","Default description","yes","<openexp._canvas.legacy.legacy object at 0x043D6050>","<openexp._canvas.legacy.legacy object at 0x043D6AD0>","<openexp._canvas.legacy.legacy object at 0x043EF250>","<openexp._canvas.legacy.legacy object at 0x043E49B0>","<openexp._canvas.legacy.legacy object at 0x04421050>","<openexp._canvas.legacy.legacy object at 0x043C71D0>","<openexp._canvas.legacy.legacy object at 0x04426390>","<openexp._canvas.legacy.legacy object at 0x043EA3D0>","75","C:/Userdata/Michel/SpatProbMultiple3","no","mono","no","18","no","white","no","yes","0.09","98","1050","legacy","315","36","36","1","C:/Userdata/Michel/SpatProbMultiple3/beh/subject-16.csv","legacy","9","192","25","Jazzy James","3.1.9","yes","598477b2b83f69022949e7e9","47","green","circular","red","circular","0","/","638","space","21299","21299","(80, 80, 80)","(0, 123, 0)","(177, 0, 0)","(155, 155, 155)","2","legacy","experiment","[7, 0, 1, 2, 3, 4, 5, 6]","/","2500","3000","0","8","252.758751519","1024","2","48000","-16","main","[(0, -252), (178, -178), (252, 0), (178, 178), (0, 252), (-178, 178), (-252, 0), (-178, -178)]","[]","16","even","1","NA","238039","296688","296688","127846","126838","1879","168901","168901","1879","1879","149146","387464","1877","296688","386823","385992","385992","NA","821","study_X","0","21299","1","yes","1680"
"undefined","undefined","NA","NA","NA","21299","21299","black","no","legacy","legacy","legacy","0","green","(0, 123, 0)","shape","absent","lowProb1","rectangular","same","swap","swap","swap","green","(0, 123, 0)","lowProb","lowProb4","rectangular","uniform","1","undefined","0","0.192708333333","1","1","207.020833333","1","37","39748","0","0","0","0","0","0","0","0","63","0","1","0.192708333333","207.020833333","37","39748","62","62","62","11/27/18 15:37:29","Default description","yes","<openexp._canvas.legacy.legacy object at 0x043D6050>","<openexp._canvas.legacy.legacy object at 0x043D6AD0>","<openexp._canvas.legacy.legacy object at 0x043EF250>","<openexp._canvas.legacy.legacy object at 0x043E49B0>","<openexp._canvas.legacy.legacy object at 0x04421050>","<openexp._canvas.legacy.legacy object at 0x043C71D0>","<openexp._canvas.legacy.legacy object at 0x0475D230>","<openexp._canvas.legacy.legacy object at 0x043EA3D0>","75","C:/Userdata/Michel/SpatProbMultiple3","no","mono","no","18","no","white","no","yes","0.09","98","1050","legacy","315","37","37","1","C:/Userdata/Michel/SpatProbMultiple3/beh/subject-16.csv","legacy","9","192","25","Jazzy James","3.1.9","yes","598477b2b83f69022949e7e9","47","green","rectangular","green","rectangular","0","/","1188","space","21299","21299","(80, 80, 80)","(0, 123, 0)","(177, 0, 0)","(155, 155, 155)","2","legacy","experiment","[7, 0, 1, 2, 3, 4, 5, 6]","/","2500","3000","0","8","252.758751519","1024","2","48000","-16","main","[(0, -252), (178, -178), (252, 0), (178, 178), (0, 252), (-178, 178), (-252, 0), (-178, -178)]","[]","16","even","4","NA","238039","296688","296688","127846","126838","1879","168901","168901","1879","1879","149146","389904","1877","296688","388713","387883","387883","NA","821","study_X","0","21299","1","yes","1680"
"undefined","undefined","NA","NA","NA","21299","21299","black","no","legacy","legacy","legacy","0","red","(177, 0, 0)","color","present","highProb","rectangular","swap","same","same","same","green","(0, 123, 0)","lowProb","lowProb5","rectangular","uniform","1","undefined","0","0.197916666667","1","1","212.59375","1","38","40818","0","0","0","0","0","0","0","0","64","0","1","0.197916666667","212.59375","38","40818","63","63","63","11/27/18 15:37:29","Default description","yes","<openexp._canvas.legacy.legacy object at 0x043D6050>","<openexp._canvas.legacy.legacy object at 0x043D6AD0>","<openexp._canvas.legacy.legacy object at 0x043EF250>","<openexp._canvas.legacy.legacy object at 0x043E49B0>","<openexp._canvas.legacy.legacy object at 0x04421050>","<openexp._canvas.legacy.legacy object at 0x043C71D0>","<openexp._canvas.legacy.legacy object at 0x043CD530>","<openexp._canvas.legacy.legacy object at 0x043EA3D0>","75","C:/Userdata/Michel/SpatProbMultiple3","no","mono","no","18","no","white","no","yes","0.09","98","1050","legacy","45","38","38","1","C:/Userdata/Michel/SpatProbMultiple3/beh/subject-16.csv","legacy","9","192","25","Jazzy James","3.1.9","yes","598477b2b83f69022949e7e9","47","red","rectangular","green","rectangular","0","\","1070","space","21299","21299","(80, 80, 80)","(0, 123, 0)","(177, 0, 0)","(155, 155, 155)","2","legacy","experiment","[7, 0, 1, 2, 3, 4, 5, 6]","\","2500","3000","0","8","252.758751519","1024","2","48000","-16","main","[(0, -252), (178, -178), (252, 0), (178, 178), (0, 252), (-178, 178), (-252, 0), (-178, -178)]","[]","16","even","5","NA","238039","296688","296688","127846","126838","1879","168901","168901","1879","1879","149146","392248","1877","296688","391174","390343","390344","NA","821","study_X","0","21299","1","yes","1680"
"undefined","undefined","NA","NA","NA","21299","21299","black","no","legacy","legacy","legacy","0","red","(177, 0, 0)","color","absent","lowProb4","rectangular","same","same","swap","same","red","(177, 0, 0)","highProbColor","highProbColor","rectangular","uniform","1","undefined","0","0.203125","1","1","216.786458333","1","39","41623","0","0","0","0","0","0","0","0","65","0","1","0.203125","216.786458333","39","41623","64","64","64","11/27/18 15:37:29","Default description","yes","<openexp._canvas.legacy.legacy object at 0x043D6050>","<openexp._canvas.legacy.legacy object at 0x043D6AD0>","<openexp._canvas.legacy.legacy object at 0x043EF250>","<openexp._canvas.legacy.legacy object at 0x043E49B0>","<openexp._canvas.legacy.legacy object at 0x04421050>","<openexp._canvas.legacy.legacy object at 0x043C71D0>","<openexp._canvas.legacy.legacy object at 0x043F1A90>","<openexp._canvas.legacy.legacy object at 0x043EA3D0>","75","C:/Userdata/Michel/SpatProbMultiple3","no","mono","no","18","no","white","no","yes","0.09","98","1050","legacy","45","39","39","1","C:/Userdata/Michel/SpatProbMultiple3/beh/subject-16.csv","legacy","9","192","25","Jazzy James","3.1.9","yes","598477b2b83f69022949e7e9","47","red","rectangular","red","rectangular","0","\","805","space","21299","21299","(80, 80, 80)","(0, 123, 0)","(177, 0, 0)","(155, 155, 155)","2","legacy","experiment","[7, 0, 1, 2, 3, 4, 5, 6]","\","2500","3000","0","8","252.758751519","1024","2","48000","-16","main","[(0, -252), (178, -178), (252, 0), (178, 178), (0, 252), (-178, 178), (-252, 0), (-178, -178)]","[]","16","even","7","NA","238039","296688","296688","127846","126838","1879","168901","168901","1879","1879","149146","394312","1877","296688","393503","392673","392673","NA","821","study_X","0","21299","1","yes","1680"
"undefined","undefined","NA","NA","NA","21299","21299","black","no","legacy","legacy","legacy","0","red","(177, 0, 0)","color","present","highProb","circular","same","swap","swap","swap","green","(0, 123, 0)","lowProb","lowProb1","circular","uniform","1","undefined","0","0.208333333333","1","1","219.963541667","1","40","42233","0","0","0","0","0","0","0","0","66","0","1","0.208333333333","219.963541667","40","42233","65","65","65","11/27/18 15:37:29","Default description","yes","<openexp._canvas.legacy.legacy object at 0x043D6050>","<openexp._canvas.legacy.legacy object at 0x043D6AD0>","<openexp._canvas.legacy.legacy object at 0x043EF250>","<openexp._canvas.legacy.legacy object at 0x043E49B0>","<openexp._canvas.legacy.legacy object at 0x04421050>","<openexp._canvas.legacy.legacy object at 0x043C71D0>","<openexp._canvas.legacy.legacy object at 0x043D6FF0>","<openexp._canvas.legacy.legacy object at 0x043EA3D0>","75","C:/Userdata/Michel/SpatProbMultiple3","no","mono","no","18","no","white","no","yes","0.09","98","1050","legacy","315","40","40","1","C:/Userdata/Michel/SpatProbMultiple3/beh/subject-16.csv","legacy","9","192","25","Jazzy James","3.1.9","yes","598477b2b83f69022949e7e9","47","red","circular","green","circular","0","/","610","space","21299","21299","(80, 80, 80)","(0, 123, 0)","(177, 0, 0)","(155, 155, 155)","2","legacy","experiment","[7, 0, 1, 2, 3, 4, 5, 6]","/","2500","3000","0","8","252.758751519","1024","2","48000","-16","main","[(0, -252), (178, -178), (252, 0), (178, 178), (0, 252), (-178, 178), (-252, 0), (-178, -178)]","[]","16","even","0","NA","238039","296688","296688","127846","126838","1879","168901","168901","1879","1879","149146","396192","1877","296688","395578","394748","394748","NA","821","study_X","0","21299","1","yes","1680"
"undefined","undefined","NA","NA","NA","21299","21299","black","no","legacy","legacy","legacy","0","green","(0, 123, 0)","color","present","lowProb5","rectangular","swap","swap","swap","swap","red","(177, 0, 0)","lowProb","lowProb6","rectangular","uniform","1","undefined","0","0.213541666667","1","1","224.354166667","1","41","43076","0","0","0","0","0","0","0","0","67","0","1","0.213541666667","224.354166667","41","43076","66","66","66","11/27/18 15:37:29","Default description","yes","<openexp._canvas.legacy.legacy object at 0x043D6050>","<openexp._canvas.legacy.legacy object at 0x043D6AD0>","<openexp._canvas.legacy.legacy object at 0x043EF250>","<openexp._canvas.legacy.legacy object at 0x043E49B0>","<openexp._canvas.legacy.legacy object at 0x04421050>","<openexp._canvas.legacy.legacy object at 0x043C71D0>","<openexp._canvas.legacy.legacy object at 0x043F10D0>","<openexp._canvas.legacy.legacy object at 0x043EA3D0>","75","C:/Userdata/Michel/SpatProbMultiple3","no","mono","no","18","no","white","no","yes","0.09","98","1050","legacy","315","41","41","1","C:/Userdata/Michel/SpatProbMultiple3/beh/subject-16.csv","legacy","9","192","25","Jazzy James","3.1.9","yes","598477b2b83f69022949e7e9","47","green","rectangular","red","rectangular","0","/","843","space","21299","21299","(80, 80, 80)","(0, 123, 0)","(177, 0, 0)","(155, 155, 155)","2","legacy","experiment","[7, 0, 1, 2, 3, 4, 5, 6]","/","2500","3000","0","8","252.758751519","1024","2","48000","-16","main","[(0, -252), (178, -178), (252, 0), (178, 178), (0, 252), (-178, 178), (-252, 0), (-178, -178)]","[]","16","even","6","NA","238039","296688","296688","127846","126838","1879","168901","168901","1879","1879","149146","398295","1877","296688","397449","396619","396619","NA","821","study_X","0","21299","1","yes","1680"
"undefined","undefined","NA","NA","NA","21299","21299","black","no","legacy","legacy","legacy","0","red","(177, 0, 0)","shape","present","highProb","circular","swap","swap","same","same","red","(177, 0, 0)","lowProb","lowProb3","rectangular","uniform","1","undefined","0","0.21875","1","1","227.833333333","1","42","43744","0","0","0","0","0","0","0","0","68","0","1","0.21875","227.833333333","42","43744","67","67","67","11/27/18 15:37:29","Default description","yes","<openexp._canvas.legacy.legacy object at 0x043D6050>","<openexp._canvas.legacy.legacy object at 0x043D6AD0>","<openexp._canvas.legacy.legacy object at 0x043EF250>","<openexp._canvas.legacy.legacy object at 0x043E49B0>","<openexp._canvas.legacy.legacy object at 0x04421050>","<openexp._canvas.legacy.legacy object at 0x043C71D0>","<openexp._canvas.legacy.legacy object at 0x04303DF0>","<openexp._canvas.legacy.legacy object at 0x043EA3D0>","75","C:/Userdata/Michel/SpatProbMultiple3","no","mono","no","18","no","white","no","yes","0.09","98","1050","legacy","45","42","42","1","C:/Userdata/Michel/SpatProbMultiple3/beh/subject-16.csv","legacy","9","192","25","Jazzy James","3.1.9","yes","598477b2b83f69022949e7e9","47","red","circular","red","rectangular","0","\","668","space","21299","21299","(80, 80, 80)","(0, 123, 0)","(177, 0, 0)","(155, 155, 155)","2","legacy","experiment","[7, 0, 1, 2, 3, 4, 5, 6]","\","2500","3000","0","8","252.758751519","1024","2","48000","-16","main","[(0, -252), (178, -178), (252, 0), (178, 178), (0, 252), (-178, 178), (-252, 0), (-178, -178)]","[]","16","even","2","NA","238039","296688","296688","127846","126838","1879","168901","168901","1879","1879","149146","400215","1877","296688","399544","398714","398714","NA","821","study_X","0","21299","1","yes","1680"
"undefined","undefined","NA","NA","NA","21299","21299","black","no","legacy","legacy","legacy","0","red","(177, 0, 0)","color","present","highProb","rectangular","same","swap","swap","same","green","(0, 123, 0)","lowProb","lowProb4","rectangular","uniform","1","undefined","0","0.223958333333","1","1","235.828125","1","43","45279","0","0","0","0","0","0","0","0","69","0","1","0.223958333333","235.828125","43","45279","68","68","68","11/27/18 15:37:29","Default description","yes","<openexp._canvas.legacy.legacy object at 0x043D6050>","<openexp._canvas.legacy.legacy object at 0x043D6AD0>","<openexp._canvas.legacy.legacy object at 0x043EF250>","<openexp._canvas.legacy.legacy object at 0x043E49B0>","<openexp._canvas.legacy.legacy object at 0x04421050>","<openexp._canvas.legacy.legacy object at 0x043C71D0>","<openexp._canvas.legacy.legacy object at 0x0475D7F0>","<openexp._canvas.legacy.legacy object at 0x043EA3D0>","75","C:/Userdata/Michel/SpatProbMultiple3","no","mono","no","18","no","white","no","yes","0.09","98","1050","legacy","315","43","43","1","C:/Userdata/Michel/SpatProbMultiple3/beh/subject-16.csv","legacy","9","192","25","Jazzy James","3.1.9","yes","598477b2b83f69022949e7e9","47","red","rectangular","green","rectangular","0","/","1535","space","21299","21299","(80, 80, 80)","(0, 123, 0)","(177, 0, 0)","(155, 155, 155)","2","legacy","experiment","[7, 0, 1, 2, 3, 4, 5, 6]","/","2500","3000","0","8","252.758751519","1024","2","48000","-16","main","[(0, -252), (178, -178), (252, 0), (178, 178), (0, 252), (-178, 178), (-252, 0), (-178, -178)]","[]","16","even","4","NA","238039","296688","296688","127846","126838","1879","168901","168901","1879","1879","149146","403008","1877","296688","401470","400640","400640","NA","821","study_X","0","21299","1","yes","1680"
"undefined","undefined","NA","NA","NA","21299","21299","black","no","legacy","legacy","legacy","0","green","(0, 123, 0)","shape","present","highProb","circular","swap","swap","same","same","green","(0, 123, 0)","lowProb","lowProb4","rectangular","uniform","1","undefined","0","0.229166666667","1","1","241.729166667","1","44","46412","0","0","0","0","0","0","0","0","70","0","1","0.229166666667","241.729166667","44","46412","69","69","69","11/27/18 15:37:29","Default description","yes","<openexp._canvas.legacy.legacy object at 0x043D6050>","<openexp._canvas.legacy.legacy object at 0x043D6AD0>","<openexp._canvas.legacy.legacy object at 0x043EF250>","<openexp._canvas.legacy.legacy object at 0x043E49B0>","<openexp._canvas.legacy.legacy object at 0x04421050>","<openexp._canvas.legacy.legacy object at 0x043C71D0>","<openexp._canvas.legacy.legacy object at 0x0474FC70>","<openexp._canvas.legacy.legacy object at 0x043EA3D0>","75","C:/Userdata/Michel/SpatProbMultiple3","no","mono","no","18","no","white","no","yes","0.09","98","1050","legacy","45","44","44","1","C:/Userdata/Michel/SpatProbMultiple3/beh/subject-16.csv","legacy","9","192","25","Jazzy James","3.1.9","yes","598477b2b83f69022949e7e9","47","green","circular","green","rectangular","0","\","1133","space","21299","21299","(80, 80, 80)","(0, 123, 0)","(177, 0, 0)","(155, 155, 155)","2","legacy","experiment","[7, 0, 1, 2, 3, 4, 5, 6]","\","2500","3000","0","8","252.758751519","1024","2","48000","-16","main","[(0, -252), (178, -178), (252, 0), (178, 178), (0, 252), (-178, 178), (-252, 0), (-178, -178)]","[]","16","even","4","NA","238039","296688","296688","127846","126838","1879","168901","168901","1879","1879","149146","405392","1877","296688","404256","403426","403426","NA","821","study_X","0","21299","1","yes","1680"
"undefined","undefined","NA","NA","NA","21299","21299","black","no","legacy","legacy","legacy","0","green","(0, 123, 0)","shape","present","highProb","circular","same","same","same","same","green","(0, 123, 0)","lowProb","lowProb5","rectangular","uniform","1","undefined","0","0.234375","1","1","246.046875","1","45","47241","0","0","0","0","0","0","0","0","71","0","1","0.234375","246.046875","45","47241","70","70","70","11/27/18 15:37:29","Default description","yes","<openexp._canvas.legacy.legacy object at 0x043D6050>","<openexp._canvas.legacy.legacy object at 0x043D6AD0>","<openexp._canvas.legacy.legacy object at 0x043EF250>","<openexp._canvas.legacy.legacy object at 0x043E49B0>","<openexp._canvas.legacy.legacy object at 0x04421050>","<openexp._canvas.legacy.legacy object at 0x043C71D0>","<openexp._canvas.legacy.legacy object at 0x043D5490>","<openexp._canvas.legacy.legacy object at 0x043EA3D0>","75","C:/Userdata/Michel/SpatProbMultiple3","no","mono","no","18","no","white","no","yes","0.09","98","1050","legacy","45","45","45","1","C:/Userdata/Michel/SpatProbMultiple3/beh/subject-16.csv","legacy","9","192","25","Jazzy James","3.1.9","yes","598477b2b83f69022949e7e9","47","green","circular","green","rectangular","0","\","829","space","21299","21299","(80, 80, 80)","(0, 123, 0)","(177, 0, 0)","(155, 155, 155)","2","legacy","experiment","[7, 0, 1, 2, 3, 4, 5, 6]","\","2500","3000","0","8","252.758751519","1024","2","48000","-16","main","[(0, -252), (178, -178), (252, 0), (178, 178), (0, 252), (-178, 178), (-252, 0), (-178, -178)]","[]","16","even","5","NA","238039","296688","296688","127846","126838","1879","168901","168901","1879","1879","149146","407488","1877","296688","406655","405825","405825","NA","821","study_X","0","21299","1","yes","1680"
"undefined","undefined","NA","NA","NA","21299","21299","black","no","legacy","legacy","legacy","0","green","(0, 123, 0)","color","present","highProb","rectangular","same","swap","swap","same","red","(177, 0, 0)","highProbShape","highProbShape","rectangular","uniform","1","undefined","0","0.239583333333","1","1","249.192708333","1","46","47845","0","0","0","0","0","0","0","0","72","0","1","0.239583333333","249.192708333","46","47845","71","71","71","11/27/18 15:37:29","Default description","yes","<openexp._canvas.legacy.legacy object at 0x043D6050>","<openexp._canvas.legacy.legacy object at 0x043D6AD0>","<openexp._canvas.legacy.legacy object at 0x043EF250>","<openexp._canvas.legacy.legacy object at 0x043E49B0>","<openexp._canvas.legacy.legacy object at 0x04421050>","<openexp._canvas.legacy.legacy object at 0x043C71D0>","<openexp._canvas.legacy.legacy object at 0x0475D610>","<openexp._canvas.legacy.legacy object at 0x043EA3D0>","75","C:/Userdata/Michel/SpatProbMultiple3","no","mono","no","18","no","white","no","yes","0.09","98","1050","legacy","315","46","46","1","C:/Userdata/Michel/SpatProbMultiple3/beh/subject-16.csv","legacy","9","192","25","Jazzy James","3.1.9","yes","598477b2b83f69022949e7e9","47","green","rectangular","red","rectangular","0","/","604","space","21299","21299","(80, 80, 80)","(0, 123, 0)","(177, 0, 0)","(155, 155, 155)","2","legacy","experiment","[7, 0, 1, 2, 3, 4, 5, 6]","/","2500","3000","0","8","252.758751519","1024","2","48000","-16","main","[(0, -252), (178, -178), (252, 0), (178, 178), (0, 252), (-178, 178), (-252, 0), (-178, -178)]","[]","16","even","3","NA","238039","296688","296688","127846","126838","1879","168901","168901","1879","1879","149146","409344","1877","296688","408736","407906","407906","NA","821","study_X","0","21299","1","yes","1680"
"undefined","undefined","NA","NA","NA","21299","21299","black","no","legacy","legacy","legacy","0","red","(177, 0, 0)","color","absent","lowProb3","circular","swap","swap","same","swap","red","(177, 0, 0)","lowProb","lowProb6","circular","uniform","1","undefined","0","0.244791666667","1","1","253.010416667","1","47","48578","0","0","0","0","0","0","0","0","73","0","1","0.244791666667","253.010416667","47","48578","72","72","72","11/27/18 15:37:29","Default description","yes","<openexp._canvas.legacy.legacy object at 0x043D6050>","<openexp._canvas.legacy.legacy object at 0x043D6AD0>","<openexp._canvas.legacy.legacy object at 0x043EF250>","<openexp._canvas.legacy.legacy object at 0x043E49B0>","<openexp._canvas.legacy.legacy object at 0x04421050>","<openexp._canvas.legacy.legacy object at 0x043C71D0>","<openexp._canvas.legacy.legacy object at 0x0474F6F0>","<openexp._canvas.legacy.legacy object at 0x043EA3D0>","75","C:/Userdata/Michel/SpatProbMultiple3","no","mono","no","18","no","white","no","yes","0.09","98","1050","legacy","45","47","47","1","C:/Userdata/Michel/SpatProbMultiple3/beh/subject-16.csv","legacy","9","192","25","Jazzy James","3.1.9","yes","598477b2b83f69022949e7e9","47","red","circular","red","circular","0","\","733","space","21299","21299","(80, 80, 80)","(0, 123, 0)","(177, 0, 0)","(155, 155, 155)","2","legacy","experiment","[7, 0, 1, 2, 3, 4, 5, 6]","\","2500","3000","0","8","252.758751519","1024","2","48000","-16","main","[(0, -252), (178, -178), (252, 0), (178, 178), (0, 252), (-178, 178), (-252, 0), (-178, -178)]","[]","16","even","6","NA","238039","296688","296688","127846","126838","1879","168901","168901","1879","1879","149146","411344","1877","296688","410607","409777","409777","NA","821","study_X","0","21299","1","yes","1680"
"undefined","undefined","NA","NA","NA","21299","21299","black","no","legacy","legacy","legacy","0","green","(0, 123, 0)","color","present","highProb","rectangular","swap","swap","same","swap","red","(177, 0, 0)","lowProb","lowProb3","rectangular","uniform","1","undefined","0","0.25","1","1","256.609375","1","48","49269","0","0","0","0","0","0","0","0","74","0","1","0.25","256.609375","48","49269","73","73","73","11/27/18 15:37:29","Default description","yes","<openexp._canvas.legacy.legacy object at 0x043D6050>","<openexp._canvas.legacy.legacy object at 0x043D6AD0>","<openexp._canvas.legacy.legacy object at 0x043EF250>","<openexp._canvas.legacy.legacy object at 0x043E49B0>","<openexp._canvas.legacy.legacy object at 0x04421050>","<openexp._canvas.legacy.legacy object at 0x043C71D0>","<openexp._canvas.legacy.legacy object at 0x043F12D0>","<openexp._canvas.legacy.legacy object at 0x043EA3D0>","75","C:/Userdata/Michel/SpatProbMultiple3","no","mono","no","18","no","white","no","yes","0.09","98","1050","legacy","45","48","48","1","C:/Userdata/Michel/SpatProbMultiple3/beh/subject-16.csv","legacy","9","192","25","Jazzy James","3.1.9","yes","598477b2b83f69022949e7e9","47","green","rectangular","red","rectangular","0","\","691","space","21299","21299","(80, 80, 80)","(0, 123, 0)","(177, 0, 0)","(155, 155, 155)","2","legacy","experiment","[7, 0, 1, 2, 3, 4, 5, 6]","\","2500","3000","0","8","252.758751519","1024","2","48000","-16","main","[(0, -252), (178, -178), (252, 0), (178, 178), (0, 252), (-178, 178), (-252, 0), (-178, -178)]","[]","16","even","2","NA","238039","296688","296688","127846","126838","1879","168901","168901","1879","1879","149146","413296","1877","296688","412601","411770","411770","NA","821","study_X","0","21299","1","yes","1680"
"undefined","undefined","NA","NA","NA","21299","21299","black","no","legacy","legacy","legacy","0","red","(177, 0, 0)","shape","present","highProb","rectangular","swap","same","same","swap","red","(177, 0, 0)","lowProb","lowProb5","circular","uniform","1","undefined","0","0.255208333333","1","1","268.041666667","1","49","51464","0","0","0","0","0","0","0","0","75","0","1","0.255208333333","268.041666667","49","51464","74","74","74","11/27/18 15:37:29","Default description","yes","<openexp._canvas.legacy.legacy object at 0x043D6050>","<openexp._canvas.legacy.legacy object at 0x043D6AD0>","<openexp._canvas.legacy.legacy object at 0x043EF250>","<openexp._canvas.legacy.legacy object at 0x043E49B0>","<openexp._canvas.legacy.legacy object at 0x04421050>","<openexp._canvas.legacy.legacy object at 0x043C71D0>","<openexp._canvas.legacy.legacy object at 0x043D6B70>","<openexp._canvas.legacy.legacy object at 0x043EA3D0>","75","C:/Userdata/Michel/SpatProbMultiple3","no","mono","no","18","no","white","no","yes","0.09","98","1050","legacy","45","49","49","1","C:/Userdata/Michel/SpatProbMultiple3/beh/subject-16.csv","legacy","9","192","25","Jazzy James","3.1.9","yes","598477b2b83f69022949e7e9","47","red","rectangular","red","circular","0","\","2195","space","21299","21299","(80, 80, 80)","(0, 123, 0)","(177, 0, 0)","(155, 155, 155)","2","legacy","experiment","[7, 0, 1, 2, 3, 4, 5, 6]","\","2500","3000","0","8","252.758751519","1024","2","48000","-16","main","[(0, -252), (178, -178), (252, 0), (178, 178), (0, 252), (-178, 178), (-252, 0), (-178, -178)]","[]","16","even","5","NA","238039","296688","296688","127846","126838","1879","168901","168901","1879","1879","149146","416751","1877","296688","414553","413723","413723","NA","821","study_X","0","21299","1","yes","1680"
"undefined","undefined","NA","NA","NA","21299","21299","black","no","legacy","legacy","legacy","0","red","(177, 0, 0)","shape","present","highProb","rectangular","same","same","same","same","red","(177, 0, 0)","lowProb","lowProb2","circular","uniform","1","undefined","0","0.260416666667","1","1","272.244791667","1","50","52271","0","0","0","0","0","0","0","0","76","0","1","0.260416666667","272.244791667","50","52271","75","75","75","11/27/18 15:37:29","Default description","yes","<openexp._canvas.legacy.legacy object at 0x043D6050>","<openexp._canvas.legacy.legacy object at 0x043D6AD0>","<openexp._canvas.legacy.legacy object at 0x043EF250>","<openexp._canvas.legacy.legacy object at 0x043E49B0>","<openexp._canvas.legacy.legacy object at 0x04421050>","<openexp._canvas.legacy.legacy object at 0x043C71D0>","<openexp._canvas.legacy.legacy object at 0x043F8270>","<openexp._canvas.legacy.legacy object at 0x043EA3D0>","75","C:/Userdata/Michel/SpatProbMultiple3","no","mono","no","18","no","white","no","yes","0.09","98","1050","legacy","45","50","50","1","C:/Userdata/Michel/SpatProbMultiple3/beh/subject-16.csv","legacy","9","192","25","Jazzy James","3.1.9","yes","598477b2b83f69022949e7e9","47","red","rectangular","red","circular","0","\","807","space","21299","21299","(80, 80, 80)","(0, 123, 0)","(177, 0, 0)","(155, 155, 155)","2","legacy","experiment","[7, 0, 1, 2, 3, 4, 5, 6]","\","2500","3000","0","8","252.758751519","1024","2","48000","-16","main","[(0, -252), (178, -178), (252, 0), (178, 178), (0, 252), (-178, 178), (-252, 0), (-178, -178)]","[]","16","even","1","NA","238039","296688","296688","127846","126838","1879","168901","168901","1879","1879","149146","418823","1877","296688","418014","417184","417184","NA","821","study_X","0","21299","1","yes","1680"
"undefined","undefined","NA","NA","NA","21299","21299","black","no","legacy","legacy","legacy","0","red","(177, 0, 0)","color","present","highProb","circular","same","swap","swap","same","green","(0, 123, 0)","highProbShape","highProbShape","circular","uniform","1","undefined","0","0.265625","1","1","276.28125","1","51","53046","0","0","0","0","0","0","0","0","77","0","1","0.265625","276.28125","51","53046","76","76","76","11/27/18 15:37:29","Default description","yes","<openexp._canvas.legacy.legacy object at 0x043D6050>","<openexp._canvas.legacy.legacy object at 0x043D6AD0>","<openexp._canvas.legacy.legacy object at 0x043EF250>","<openexp._canvas.legacy.legacy object at 0x043E49B0>","<openexp._canvas.legacy.legacy object at 0x04421050>","<openexp._canvas.legacy.legacy object at 0x043C71D0>","<openexp._canvas.legacy.legacy object at 0x0474F810>","<openexp._canvas.legacy.legacy object at 0x043EA3D0>","75","C:/Userdata/Michel/SpatProbMultiple3","no","mono","no","18","no","white","no","yes","0.09","98","1050","legacy","45","51","51","1","C:/Userdata/Michel/SpatProbMultiple3/beh/subject-16.csv","legacy","9","192","25","Jazzy James","3.1.9","yes","598477b2b83f69022949e7e9","47","red","circular","green","circular","0","\","775","space","21299","21299","(80, 80, 80)","(0, 123, 0)","(177, 0, 0)","(155, 155, 155)","2","legacy","experiment","[7, 0, 1, 2, 3, 4, 5, 6]","\","2500","3000","0","8","252.758751519","1024","2","48000","-16","main","[(0, -252), (178, -178), (252, 0), (178, 178), (0, 252), (-178, 178), (-252, 0), (-178, -178)]","[]","16","even","3","NA","238039","296688","296688","127846","126838","1879","168901","168901","1879","1879","149146","420864","1877","296688","420086","419256","419256","NA","821","study_X","0","21299","1","yes","1680"
"undefined","undefined","NA","NA","NA","21299","21299","black","no","legacy","legacy","legacy","0","red","(177, 0, 0)","color","present","highProbOther","circular","same","same","same","same","green","(0, 123, 0)","highProbColor","highProbColor","circular","uniform","1","undefined","0","0.270833333333","1","1","283.484375","1","52","54429","0","0","0","0","0","0","0","0","78","0","1","0.270833333333","283.484375","52","54429","77","77","77","11/27/18 15:37:29","Default description","yes","<openexp._canvas.legacy.legacy object at 0x043D6050>","<openexp._canvas.legacy.legacy object at 0x043D6AD0>","<openexp._canvas.legacy.legacy object at 0x043EF250>","<openexp._canvas.legacy.legacy object at 0x043E49B0>","<openexp._canvas.legacy.legacy object at 0x04421050>","<openexp._canvas.legacy.legacy object at 0x043C71D0>","<openexp._canvas.legacy.legacy object at 0x043D6F50>","<openexp._canvas.legacy.legacy object at 0x043EA3D0>","75","C:/Userdata/Michel/SpatProbMultiple3","no","mono","no","18","no","white","no","yes","0.09","98","1050","legacy","315","52","52","1","C:/Userdata/Michel/SpatProbMultiple3/beh/subject-16.csv","legacy","9","192","25","Jazzy James","3.1.9","yes","598477b2b83f69022949e7e9","47","red","circular","green","circular","0","/","1383","space","21299","21299","(80, 80, 80)","(0, 123, 0)","(177, 0, 0)","(155, 155, 155)","2","legacy","experiment","[7, 0, 1, 2, 3, 4, 5, 6]","/","2500","3000","0","8","252.758751519","1024","2","48000","-16","main","[(0, -252), (178, -178), (252, 0), (178, 178), (0, 252), (-178, 178), (-252, 0), (-178, -178)]","[]","16","even","7","NA","238039","296688","296688","127846","126838","1879","168901","168901","1879","1879","149146","423520","1877","296688","422133","421303","421303","NA","821","study_X","0","21299","1","yes","1680"
"undefined","undefined","NA","NA","NA","21299","21299","black","no","legacy","legacy","legacy","0","green","(0, 123, 0)","color","present","highProbOther","circular","swap","same","swap","same","red","(177, 0, 0)","lowProb","lowProb2","circular","uniform","1","undefined","0","0.276041666667","1","1","287.921875","1","53","55281","0","0","0","0","0","0","0","0","79","0","1","0.276041666667","287.921875","53","55281","78","78","78","11/27/18 15:37:29","Default description","yes","<openexp._canvas.legacy.legacy object at 0x043D6050>","<openexp._canvas.legacy.legacy object at 0x043D6AD0>","<openexp._canvas.legacy.legacy object at 0x043EF250>","<openexp._canvas.legacy.legacy object at 0x043E49B0>","<openexp._canvas.legacy.legacy object at 0x04421050>","<openexp._canvas.legacy.legacy object at 0x043C71D0>","<openexp._canvas.legacy.legacy object at 0x043EF0D0>","<openexp._canvas.legacy.legacy object at 0x043EA3D0>","75","C:/Userdata/Michel/SpatProbMultiple3","no","mono","no","18","no","white","no","yes","0.09","98","1050","legacy","315","53","53","1","C:/Userdata/Michel/SpatProbMultiple3/beh/subject-16.csv","legacy","9","192","25","Jazzy James","3.1.9","yes","598477b2b83f69022949e7e9","47","green","circular","red","circular","0","/","852","space","21299","21299","(80, 80, 80)","(0, 123, 0)","(177, 0, 0)","(155, 155, 155)","2","legacy","experiment","[7, 0, 1, 2, 3, 4, 5, 6]","/","2500","3000","0","8","252.758751519","1024","2","48000","-16","main","[(0, -252), (178, -178), (252, 0), (178, 178), (0, 252), (-178, 178), (-252, 0), (-178, -178)]","[]","16","even","1","NA","238039","296688","296688","127846","126838","1879","168901","168901","1879","1879","149146","425632","1877","296688","424777","423947","423947","NA","821","study_X","0","21299","1","yes","1680"
