acc,accuracy,answerQ1,answerQ2,answerQ3,average_response_time,avg_rt,background,bidi,canvas_backend,clock_backend,color_backend,compensation,cond_disColor,cond_disColorRGB,cond_disFeature,cond_disPresent,cond_disProbability,cond_disShape,cond_primingDisColor,cond_primingDisShape,cond_primingTarColor,cond_primingTarShape,cond_tarColor,cond_tarColorRGB,cond_tarLocation,cond_tarLocationLong,cond_tarShape,coordinates,correct,correct_continuePress,count_Questions,count_blockAcc,count_blockFeed,count_blockLoop,count_blockRT,count_blockSeq,count_blockSumCorrect,count_blockSumRT,count_continuePress,count_example,count_expSettings,count_exp_mainLoop,count_experiment,count_instructions,count_instructions1,count_instructions2,count_log,count_main,count_prepCanvas,count_totalAcc,count_totalRT,count_totalSumCorrect,count_totalSumRT,count_trialResp,count_trialSeq,count_trialTask,datetime,description,disable_garbage_collection,dispBlank,dispBlockStart,dispFeedBlock,dispFix,dispInstructions,dispQuestions,dispSearch,dispStartScreen,distance2screen,experiment_file,experiment_path,font_bold,font_family,font_italic,font_size,font_underline,foreground,form_clicks,fullscreen,gaborFreq,gaborSize,height,keyboard_backend,lineOriTar,live_row,live_row_blockLoop,live_row_exp_mainLoop,logfile,mouse_backend,noExpBlocks,noExpTrials,noPracTrials,opensesame_codename,opensesame_version,osf_always_upload_experiment,osf_id,physical_screensize,previousDisColor,previousDisShape,previousTarColor,previousTarShape,repeat_cycle,response,responseTime,response_continuePress,response_time,response_time_continuePress,rgb_gray,rgb_green,rgb_red,rgb_white,round_decimals,sampler_backend,set_blockType,set_counterPositions,set_respCorrect,set_respTimeoutExp,set_respTimeoutPrac,set_rotation,set_setSize,sizeImaginary,sound_buf_size,sound_channels,sound_freq,sound_sample_size,start,stimPositions,stimuli,subject_nr,subject_parity,tarIdx,time_Questions,time_blockFeed,time_blockLoop,time_blockSeq,time_continuePress,time_example,time_expSettings,time_exp_mainLoop,time_experiment,time_instructions,time_instructions1,time_instructions2,time_log,time_main,time_prepCanvas,time_trialResp,time_trialSeq,time_trialTask,timing_EEGwait,timing_fix,title,total_correct,total_response_time,total_responses,uniform_coordinates,width
undefined,undefined,NA,NA,NA,5084,5084,black,no,legacy,legacy,legacy,0,red,"(177, 0, 0)",shape,present,highProb,rectangular,swap,swap,same,same,red,"(177, 0, 0)",lowProb,lowProb5,circular,uniform,1,undefined,0,0.005208333,1,1,7.609375,1,1,1461,0,0,0,0,0,0,0,0,26,0,1,0.005208333,7.609375,1,1461,25,25,25,11/27/2018 10:34,Default description,yes,<openexp._canvas.legacy.Legacy object at 0x054EC8D0>,<openexp._canvas.legacy.Legacy object at 0x0550DFB0>,<openexp._canvas.legacy.Legacy object at 0x054C9BD0>,<openexp._canvas.legacy.Legacy object at 0x0538A930>,<openexp._canvas.legacy.Legacy object at 0x0537A190>,<openexp._canvas.legacy.Legacy object at 0x054DF2B0>,<openexp._canvas.legacy.Legacy object at 0x0550D030>,<openexp._canvas.legacy.Legacy object at 0x053C5C30>,75,SpatProbMultiple3.osexp,C:/Userdata/Michel/SpatProbMultiple3,no,mono,no,18,no,white,no,yes,0.09,98,1050,legacy,315,0,0,1,C:/Userdata/Michel/SpatProbMultiple3/beh/subject-12.csv,legacy,9,192,25,Kafkaesque Koffka,3.2.5,yes,598477b2b83f69022949e7e9,47,red,rectangular,red,circular,0,/,1461,space,5084,5084,"(80, 80, 80)","(0, 123, 0)","(177, 0, 0)","(155, 155, 155)",2,legacy,experiment,"[3, 4, 5, 6, 7, 0, 1, 2]",/,2500,3000,0,8,252.7587515,1024,2,48000,-16,main,"[(0, -252), (178, -178), (252, 0), (178, 178), (0, 252), (-178, 178), (-252, 0), (-178, -178)]",[],36,even,1,NA,205464,256107,256107,124634,123623,2260,137946,137946,2260,2260,129718,264053,2258,256107,262589,256504,256504,NA,919,study_X,0,5084,1,yes,1680
undefined,undefined,NA,NA,NA,5084,5084,black,no,legacy,legacy,legacy,0,green,"(0, 123, 0)",shape,absent,lowProb3,rectangular,swap,same,swap,swap,green,"(0, 123, 0)",lowProb,lowProb5,rectangular,uniform,1,undefined,0,0.010416667,1,1,11.85416667,1,2,2276,0,0,0,0,0,0,0,0,27,0,1,0.010416667,11.85416667,2,2276,26,26,26,11/27/2018 10:34,Default description,yes,<openexp._canvas.legacy.Legacy object at 0x054EC8D0>,<openexp._canvas.legacy.Legacy object at 0x0550DFB0>,<openexp._canvas.legacy.Legacy object at 0x054C9BD0>,<openexp._canvas.legacy.Legacy object at 0x0538A930>,<openexp._canvas.legacy.Legacy object at 0x0537A190>,<openexp._canvas.legacy.Legacy object at 0x054DF2B0>,<openexp._canvas.legacy.Legacy object at 0x0538A950>,<openexp._canvas.legacy.Legacy object at 0x053C5C30>,75,SpatProbMultiple3.osexp,C:/Userdata/Michel/SpatProbMultiple3,no,mono,no,18,no,white,no,yes,0.09,98,1050,legacy,45,1,1,1,C:/Userdata/Michel/SpatProbMultiple3/beh/subject-12.csv,legacy,9,192,25,Kafkaesque Koffka,3.2.5,yes,598477b2b83f69022949e7e9,47,green,rectangular,green,rectangular,0,\,815,space,5084,5084,"(80, 80, 80)","(0, 123, 0)","(177, 0, 0)","(155, 155, 155)",2,legacy,experiment,"[3, 4, 5, 6, 7, 0, 1, 2]",\,2500,3000,0,8,252.7587515,1024,2,48000,-16,main,"[(0, -252), (178, -178), (252, 0), (178, 178), (0, 252), (-178, 178), (-252, 0), (-178, -178)]",[],36,even,1,NA,205464,256107,256107,124634,123623,2260,137946,137946,2260,2260,129718,266237,2258,256107,265420,264492,264492,NA,919,study_X,0,5084,1,yes,1680
undefined,undefined,NA,NA,NA,5084,5084,black,no,legacy,legacy,legacy,0,red,"(177, 0, 0)",color,present,lowProb4,circular,swap,swap,same,swap,green,"(0, 123, 0)",lowProb,lowProb2,circular,uniform,1,undefined,0,0.015625,1,1,16.39583333,1,3,3148,0,0,0,0,0,0,0,0,28,0,1,0.015625,16.39583333,3,3148,27,27,27,11/27/2018 10:34,Default description,yes,<openexp._canvas.legacy.Legacy object at 0x054EC8D0>,<openexp._canvas.legacy.Legacy object at 0x0550DFB0>,<openexp._canvas.legacy.Legacy object at 0x054C9BD0>,<openexp._canvas.legacy.Legacy object at 0x0538A930>,<openexp._canvas.legacy.Legacy object at 0x0537A190>,<openexp._canvas.legacy.Legacy object at 0x054DF2B0>,<openexp._canvas.legacy.Legacy object at 0x05518090>,<openexp._canvas.legacy.Legacy object at 0x053C5C30>,75,SpatProbMultiple3.osexp,C:/Userdata/Michel/SpatProbMultiple3,no,mono,no,18,no,white,no,yes,0.09,98,1050,legacy,45,2,2,1,C:/Userdata/Michel/SpatProbMultiple3/beh/subject-12.csv,legacy,9,192,25,Kafkaesque Koffka,3.2.5,yes,598477b2b83f69022949e7e9,47,red,circular,green,circular,0,\,872,space,5084,5084,"(80, 80, 80)","(0, 123, 0)","(177, 0, 0)","(155, 155, 155)",2,legacy,experiment,"[3, 4, 5, 6, 7, 0, 1, 2]",\,2500,3000,0,8,252.7587515,1024,2,48000,-16,main,"[(0, -252), (178, -178), (252, 0), (178, 178), (0, 252), (-178, 178), (-252, 0), (-178, -178)]",[],36,even,5,NA,205464,256107,256107,124634,123623,2260,137946,137946,2260,2260,129718,268469,2258,256107,267594,266666,266666,NA,919,study_X,0,5084,1,yes,1680
undefined,undefined,NA,NA,NA,5084,5084,black,no,legacy,legacy,legacy,0,green,"(0, 123, 0)",shape,present,highProb,circular,swap,same,same,swap,green,"(0, 123, 0)",lowProb,lowProb6,rectangular,uniform,1,undefined,0,0.020833333,1,1,21.91666667,1,4,4208,0,0,0,0,0,0,0,0,29,0,1,0.020833333,21.91666667,4,4208,28,28,28,11/27/2018 10:34,Default description,yes,<openexp._canvas.legacy.Legacy object at 0x054EC8D0>,<openexp._canvas.legacy.Legacy object at 0x0550DFB0>,<openexp._canvas.legacy.Legacy object at 0x054C9BD0>,<openexp._canvas.legacy.Legacy object at 0x0538A930>,<openexp._canvas.legacy.Legacy object at 0x0537A190>,<openexp._canvas.legacy.Legacy object at 0x054DF2B0>,<openexp._canvas.legacy.Legacy object at 0x054EC750>,<openexp._canvas.legacy.Legacy object at 0x053C5C30>,75,SpatProbMultiple3.osexp,C:/Userdata/Michel/SpatProbMultiple3,no,mono,no,18,no,white,no,yes,0.09,98,1050,legacy,45,3,3,1,C:/Userdata/Michel/SpatProbMultiple3/beh/subject-12.csv,legacy,9,192,25,Kafkaesque Koffka,3.2.5,yes,598477b2b83f69022949e7e9,47,green,circular,green,rectangular,0,\,1060,space,5084,5084,"(80, 80, 80)","(0, 123, 0)","(177, 0, 0)","(155, 155, 155)",2,legacy,experiment,"[3, 4, 5, 6, 7, 0, 1, 2]",\,2500,3000,0,8,252.7587515,1024,2,48000,-16,main,"[(0, -252), (178, -178), (252, 0), (178, 178), (0, 252), (-178, 178), (-252, 0), (-178, -178)]",[],36,even,2,NA,205464,256107,256107,124634,123623,2260,137946,137946,2260,2260,129718,270893,2258,256107,269831,268903,268903,NA,919,study_X,0,5084,1,yes,1680
undefined,undefined,NA,NA,NA,5084,5084,black,no,legacy,legacy,legacy,0,red,"(177, 0, 0)",color,present,highProb,circular,swap,same,same,swap,green,"(0, 123, 0)",lowProb,lowProb3,circular,uniform,1,undefined,0,0.026041667,1,1,29.85416667,1,5,5732,0,0,0,0,0,0,0,0,30,0,1,0.026041667,29.85416667,5,5732,29,29,29,11/27/2018 10:34,Default description,yes,<openexp._canvas.legacy.Legacy object at 0x054EC8D0>,<openexp._canvas.legacy.Legacy object at 0x0550DFB0>,<openexp._canvas.legacy.Legacy object at 0x054C9BD0>,<openexp._canvas.legacy.Legacy object at 0x0538A930>,<openexp._canvas.legacy.Legacy object at 0x0537A190>,<openexp._canvas.legacy.Legacy object at 0x054DF2B0>,<openexp._canvas.legacy.Legacy object at 0x054F6550>,<openexp._canvas.legacy.Legacy object at 0x053C5C30>,75,SpatProbMultiple3.osexp,C:/Userdata/Michel/SpatProbMultiple3,no,mono,no,18,no,white,no,yes,0.09,98,1050,legacy,315,4,4,1,C:/Userdata/Michel/SpatProbMultiple3/beh/subject-12.csv,legacy,9,192,25,Kafkaesque Koffka,3.2.5,yes,598477b2b83f69022949e7e9,47,red,circular,green,circular,0,/,1524,space,5084,5084,"(80, 80, 80)","(0, 123, 0)","(177, 0, 0)","(155, 155, 155)",2,legacy,experiment,"[3, 4, 5, 6, 7, 0, 1, 2]",/,2500,3000,0,8,252.7587515,1024,2,48000,-16,main,"[(0, -252), (178, -178), (252, 0), (178, 178), (0, 252), (-178, 178), (-252, 0), (-178, -178)]",[],36,even,6,NA,205464,256107,256107,124634,123623,2260,137946,137946,2260,2260,129718,273774,2258,256107,272247,271319,271319,NA,919,study_X,0,5084,1,yes,1680
undefined,undefined,NA,NA,NA,5084,5084,black,no,legacy,legacy,legacy,0,red,"(177, 0, 0)",shape,absent,lowProb2,circular,same,same,swap,same,red,"(177, 0, 0)",highProbColor,highProbColor,circular,uniform,1,undefined,0,0.03125,1,1,35.73958333,1,6,6862,0,0,0,0,0,0,0,0,31,0,1,0.03125,35.73958333,6,6862,30,30,30,11/27/2018 10:34,Default description,yes,<openexp._canvas.legacy.Legacy object at 0x054EC8D0>,<openexp._canvas.legacy.Legacy object at 0x0550DFB0>,<openexp._canvas.legacy.Legacy object at 0x054C9BD0>,<openexp._canvas.legacy.Legacy object at 0x0538A930>,<openexp._canvas.legacy.Legacy object at 0x0537A190>,<openexp._canvas.legacy.Legacy object at 0x054DF2B0>,<openexp._canvas.legacy.Legacy object at 0x05502270>,<openexp._canvas.legacy.Legacy object at 0x053C5C30>,75,SpatProbMultiple3.osexp,C:/Userdata/Michel/SpatProbMultiple3,no,mono,no,18,no,white,no,yes,0.09,98,1050,legacy,315,5,5,1,C:/Userdata/Michel/SpatProbMultiple3/beh/subject-12.csv,legacy,9,192,25,Kafkaesque Koffka,3.2.5,yes,598477b2b83f69022949e7e9,47,red,circular,red,circular,0,/,1130,space,5084,5084,"(80, 80, 80)","(0, 123, 0)","(177, 0, 0)","(155, 155, 155)",2,legacy,experiment,"[3, 4, 5, 6, 7, 0, 1, 2]",/,2500,3000,0,8,252.7587515,1024,2,48000,-16,main,"[(0, -252), (178, -178), (252, 0), (178, 178), (0, 252), (-178, 178), (-252, 0), (-178, -178)]",[],36,even,3,NA,205464,256107,256107,124634,123623,2260,137946,137946,2260,2260,129718,276262,2258,256107,275129,274201,274201,NA,919,study_X,0,5084,1,yes,1680
undefined,undefined,NA,NA,NA,5084,5084,black,no,legacy,legacy,legacy,0,red,"(177, 0, 0)",shape,present,lowProb5,rectangular,same,swap,same,same,red,"(177, 0, 0)",lowProb,lowProb6,circular,uniform,1,undefined,0,0.036458333,1,1,43.00520833,1,7,8257,0,0,0,0,0,0,0,0,32,0,1,0.036458333,43.00520833,7,8257,31,31,31,11/27/2018 10:34,Default description,yes,<openexp._canvas.legacy.Legacy object at 0x054EC8D0>,<openexp._canvas.legacy.Legacy object at 0x0550DFB0>,<openexp._canvas.legacy.Legacy object at 0x054C9BD0>,<openexp._canvas.legacy.Legacy object at 0x0538A930>,<openexp._canvas.legacy.Legacy object at 0x0537A190>,<openexp._canvas.legacy.Legacy object at 0x054DF2B0>,<openexp._canvas.legacy.Legacy object at 0x0553D830>,<openexp._canvas.legacy.Legacy object at 0x053C5C30>,75,SpatProbMultiple3.osexp,C:/Userdata/Michel/SpatProbMultiple3,no,mono,no,18,no,white,no,yes,0.09,98,1050,legacy,315,6,6,1,C:/Userdata/Michel/SpatProbMultiple3/beh/subject-12.csv,legacy,9,192,25,Kafkaesque Koffka,3.2.5,yes,598477b2b83f69022949e7e9,47,red,rectangular,red,circular,0,/,1395,space,5084,5084,"(80, 80, 80)","(0, 123, 0)","(177, 0, 0)","(155, 155, 155)",2,legacy,experiment,"[3, 4, 5, 6, 7, 0, 1, 2]",/,2500,3000,0,8,252.7587515,1024,2,48000,-16,main,"[(0, -252), (178, -178), (252, 0), (178, 178), (0, 252), (-178, 178), (-252, 0), (-178, -178)]",[],36,even,2,NA,205464,256107,256107,124634,123623,2260,137946,137946,2260,2260,129718,279013,2258,256107,277616,276687,276687,NA,919,study_X,0,5084,1,yes,1680
undefined,undefined,NA,NA,NA,5084,5084,black,no,legacy,legacy,legacy,0,green,"(0, 123, 0)",color,present,highProb,rectangular,swap,same,same,swap,red,"(177, 0, 0)",lowProb,lowProb1,rectangular,uniform,1,undefined,0,0.041666667,1,1,48.44270833,1,8,9301,0,0,0,0,0,0,0,0,33,0,1,0.041666667,48.44270833,8,9301,32,32,32,11/27/2018 10:34,Default description,yes,<openexp._canvas.legacy.Legacy object at 0x054EC8D0>,<openexp._canvas.legacy.Legacy object at 0x0550DFB0>,<openexp._canvas.legacy.Legacy object at 0x054C9BD0>,<openexp._canvas.legacy.Legacy object at 0x0538A930>,<openexp._canvas.legacy.Legacy object at 0x0537A190>,<openexp._canvas.legacy.Legacy object at 0x054DF2B0>,<openexp._canvas.legacy.Legacy object at 0x0538FD70>,<openexp._canvas.legacy.Legacy object at 0x053C5C30>,75,SpatProbMultiple3.osexp,C:/Userdata/Michel/SpatProbMultiple3,no,mono,no,18,no,white,no,yes,0.09,98,1050,legacy,315,7,7,1,C:/Userdata/Michel/SpatProbMultiple3/beh/subject-12.csv,legacy,9,192,25,Kafkaesque Koffka,3.2.5,yes,598477b2b83f69022949e7e9,47,green,rectangular,red,rectangular,0,/,1044,space,5084,5084,"(80, 80, 80)","(0, 123, 0)","(177, 0, 0)","(155, 155, 155)",2,legacy,experiment,"[3, 4, 5, 6, 7, 0, 1, 2]",/,2500,3000,0,8,252.7587515,1024,2,48000,-16,main,"[(0, -252), (178, -178), (252, 0), (178, 178), (0, 252), (-178, 178), (-252, 0), (-178, -178)]",[],36,even,4,NA,205464,256107,256107,124634,123623,2260,137946,137946,2260,2260,129718,281405,2258,256107,280358,279430,279430,NA,919,study_X,0,5084,1,yes,1680
undefined,undefined,NA,NA,NA,5084,5084,black,no,legacy,legacy,legacy,0,green,"(0, 123, 0)",shape,present,lowProb5,circular,same,swap,swap,same,green,"(0, 123, 0)",highProbShape,highProbShape,rectangular,uniform,1,undefined,0,0.046875,1,1,53.60416667,1,9,10292,0,0,0,0,0,0,0,0,34,0,1,0.046875,53.60416667,9,10292,33,33,33,11/27/2018 10:34,Default description,yes,<openexp._canvas.legacy.Legacy object at 0x054EC8D0>,<openexp._canvas.legacy.Legacy object at 0x0550DFB0>,<openexp._canvas.legacy.Legacy object at 0x054C9BD0>,<openexp._canvas.legacy.Legacy object at 0x0538A930>,<openexp._canvas.legacy.Legacy object at 0x0537A190>,<openexp._canvas.legacy.Legacy object at 0x054DF2B0>,<openexp._canvas.legacy.Legacy object at 0x0538F550>,<openexp._canvas.legacy.Legacy object at 0x053C5C30>,75,SpatProbMultiple3.osexp,C:/Userdata/Michel/SpatProbMultiple3,no,mono,no,18,no,white,no,yes,0.09,98,1050,legacy,45,8,8,1,C:/Userdata/Michel/SpatProbMultiple3/beh/subject-12.csv,legacy,9,192,25,Kafkaesque Koffka,3.2.5,yes,598477b2b83f69022949e7e9,47,green,circular,green,rectangular,0,\,991,space,5084,5084,"(80, 80, 80)","(0, 123, 0)","(177, 0, 0)","(155, 155, 155)",2,legacy,experiment,"[3, 4, 5, 6, 7, 0, 1, 2]",\,2500,3000,0,8,252.7587515,1024,2,48000,-16,main,"[(0, -252), (178, -178), (252, 0), (178, 178), (0, 252), (-178, 178), (-252, 0), (-178, -178)]",[],36,even,7,NA,205464,256107,256107,124634,123623,2260,137946,137946,2260,2260,129718,283741,2258,256107,282747,281819,281819,NA,919,study_X,0,5084,1,yes,1680
undefined,undefined,NA,NA,NA,5084,5084,black,no,legacy,legacy,legacy,0,green,"(0, 123, 0)",color,present,lowProb4,circular,same,same,swap,swap,red,"(177, 0, 0)",highProbColor,highProbColor,circular,uniform,1,undefined,0,0.052083333,1,1,61.55208333,1,10,11818,0,0,0,0,0,0,0,0,35,0,1,0.052083333,61.55208333,10,11818,34,34,34,11/27/2018 10:34,Default description,yes,<openexp._canvas.legacy.Legacy object at 0x054EC8D0>,<openexp._canvas.legacy.Legacy object at 0x0550DFB0>,<openexp._canvas.legacy.Legacy object at 0x054C9BD0>,<openexp._canvas.legacy.Legacy object at 0x0538A930>,<openexp._canvas.legacy.Legacy object at 0x0537A190>,<openexp._canvas.legacy.Legacy object at 0x054DF2B0>,<openexp._canvas.legacy.Legacy object at 0x054ECE90>,<openexp._canvas.legacy.Legacy object at 0x053C5C30>,75,SpatProbMultiple3.osexp,C:/Userdata/Michel/SpatProbMultiple3,no,mono,no,18,no,white,no,yes,0.09,98,1050,legacy,315,9,9,1,C:/Userdata/Michel/SpatProbMultiple3/beh/subject-12.csv,legacy,9,192,25,Kafkaesque Koffka,3.2.5,yes,598477b2b83f69022949e7e9,47,green,circular,red,circular,0,/,1526,space,5084,5084,"(80, 80, 80)","(0, 123, 0)","(177, 0, 0)","(155, 155, 155)",2,legacy,experiment,"[3, 4, 5, 6, 7, 0, 1, 2]",/,2500,3000,0,8,252.7587515,1024,2,48000,-16,main,"[(0, -252), (178, -178), (252, 0), (178, 178), (0, 252), (-178, 178), (-252, 0), (-178, -178)]",[],36,even,3,NA,205464,256107,256107,124634,123623,2260,137946,137946,2260,2260,129718,286653,2258,256107,285124,284196,284196,NA,919,study_X,0,5084,1,yes,1680
undefined,undefined,NA,NA,NA,5084,5084,black,no,legacy,legacy,legacy,0,green,"(0, 123, 0)",color,present,highProb,circular,same,same,same,same,red,"(177, 0, 0)",lowProb,lowProb2,circular,uniform,1,undefined,0,0.057291667,1,1,68.33333333,1,11,13120,0,0,0,0,0,0,0,0,36,0,1,0.057291667,68.33333333,11,13120,35,35,35,11/27/2018 10:34,Default description,yes,<openexp._canvas.legacy.Legacy object at 0x054EC8D0>,<openexp._canvas.legacy.Legacy object at 0x0550DFB0>,<openexp._canvas.legacy.Legacy object at 0x054C9BD0>,<openexp._canvas.legacy.Legacy object at 0x0538A930>,<openexp._canvas.legacy.Legacy object at 0x0537A190>,<openexp._canvas.legacy.Legacy object at 0x054DF2B0>,<openexp._canvas.legacy.Legacy object at 0x05518CD0>,<openexp._canvas.legacy.Legacy object at 0x053C5C30>,75,SpatProbMultiple3.osexp,C:/Userdata/Michel/SpatProbMultiple3,no,mono,no,18,no,white,no,yes,0.09,98,1050,legacy,45,10,10,1,C:/Userdata/Michel/SpatProbMultiple3/beh/subject-12.csv,legacy,9,192,25,Kafkaesque Koffka,3.2.5,yes,598477b2b83f69022949e7e9,47,green,circular,red,circular,0,\,1302,space,5084,5084,"(80, 80, 80)","(0, 123, 0)","(177, 0, 0)","(155, 155, 155)",2,legacy,experiment,"[3, 4, 5, 6, 7, 0, 1, 2]",\,2500,3000,0,8,252.7587515,1024,2,48000,-16,main,"[(0, -252), (178, -178), (252, 0), (178, 178), (0, 252), (-178, 178), (-252, 0), (-178, -178)]",[],36,even,5,NA,205464,256107,256107,124634,123623,2260,137946,137946,2260,2260,129718,289317,2258,256107,288011,287083,287083,NA,919,study_X,0,5084,1,yes,1680
undefined,undefined,NA,NA,NA,5084,5084,black,no,legacy,legacy,legacy,0,green,"(0, 123, 0)",shape,present,lowProb4,rectangular,same,swap,swap,same,green,"(0, 123, 0)",lowProb,lowProb5,circular,uniform,1,undefined,0,0.0625,1,1,73.85416667,1,12,14180,0,0,0,0,0,0,0,0,37,0,1,0.0625,73.85416667,12,14180,36,36,36,11/27/2018 10:34,Default description,yes,<openexp._canvas.legacy.Legacy object at 0x054EC8D0>,<openexp._canvas.legacy.Legacy object at 0x0550DFB0>,<openexp._canvas.legacy.Legacy object at 0x054C9BD0>,<openexp._canvas.legacy.Legacy object at 0x0538A930>,<openexp._canvas.legacy.Legacy object at 0x0537A190>,<openexp._canvas.legacy.Legacy object at 0x054DF2B0>,<openexp._canvas.legacy.Legacy object at 0x054ECFF0>,<openexp._canvas.legacy.Legacy object at 0x053C5C30>,75,SpatProbMultiple3.osexp,C:/Userdata/Michel/SpatProbMultiple3,no,mono,no,18,no,white,no,yes,0.09,98,1050,legacy,45,11,11,1,C:/Userdata/Michel/SpatProbMultiple3/beh/subject-12.csv,legacy,9,192,25,Kafkaesque Koffka,3.2.5,yes,598477b2b83f69022949e7e9,47,green,rectangular,green,circular,0,\,1060,space,5084,5084,"(80, 80, 80)","(0, 123, 0)","(177, 0, 0)","(155, 155, 155)",2,legacy,experiment,"[3, 4, 5, 6, 7, 0, 1, 2]",\,2500,3000,0,8,252.7587515,1024,2,48000,-16,main,"[(0, -252), (178, -178), (252, 0), (178, 178), (0, 252), (-178, 178), (-252, 0), (-178, -178)]",[],36,even,1,NA,205464,256107,256107,124634,123623,2260,137946,137946,2260,2260,129718,291734,2258,256107,290671,289743,289743,NA,919,study_X,0,5084,1,yes,1680
undefined,undefined,NA,NA,NA,5084,5084,black,no,legacy,legacy,legacy,0,green,"(0, 123, 0)",shape,absent,lowProb3,circular,same,swap,same,same,green,"(0, 123, 0)",highProbShape,highProbShape,circular,uniform,1,undefined,0,0.067708333,1,1,77.85416667,1,13,14948,0,0,0,0,0,0,0,0,38,0,1,0.067708333,77.85416667,13,14948,37,37,37,11/27/2018 10:34,Default description,yes,<openexp._canvas.legacy.Legacy object at 0x054EC8D0>,<openexp._canvas.legacy.Legacy object at 0x0550DFB0>,<openexp._canvas.legacy.Legacy object at 0x054C9BD0>,<openexp._canvas.legacy.Legacy object at 0x0538A930>,<openexp._canvas.legacy.Legacy object at 0x0537A190>,<openexp._canvas.legacy.Legacy object at 0x054DF2B0>,<openexp._canvas.legacy.Legacy object at 0x054F6050>,<openexp._canvas.legacy.Legacy object at 0x053C5C30>,75,SpatProbMultiple3.osexp,C:/Userdata/Michel/SpatProbMultiple3,no,mono,no,18,no,white,no,yes,0.09,98,1050,legacy,45,12,12,1,C:/Userdata/Michel/SpatProbMultiple3/beh/subject-12.csv,legacy,9,192,25,Kafkaesque Koffka,3.2.5,yes,598477b2b83f69022949e7e9,47,green,circular,green,circular,0,\,768,space,5084,5084,"(80, 80, 80)","(0, 123, 0)","(177, 0, 0)","(155, 155, 155)",2,legacy,experiment,"[3, 4, 5, 6, 7, 0, 1, 2]",\,2500,3000,0,8,252.7587515,1024,2,48000,-16,main,"[(0, -252), (178, -178), (252, 0), (178, 178), (0, 252), (-178, 178), (-252, 0), (-178, -178)]",[],36,even,7,NA,205464,256107,256107,124634,123623,2260,137946,137946,2260,2260,129718,293861,2258,256107,293091,292162,292162,NA,919,study_X,0,5084,1,yes,1680
undefined,undefined,NA,NA,NA,5084,5084,black,no,legacy,legacy,legacy,0,red,"(177, 0, 0)",shape,present,lowProb1,circular,swap,same,swap,swap,red,"(177, 0, 0)",lowProb,lowProb2,rectangular,uniform,1,undefined,0,0.072916667,1,1,81.61458333,1,14,15670,0,0,0,0,0,0,0,0,39,0,1,0.072916667,81.61458333,14,15670,38,38,38,11/27/2018 10:34,Default description,yes,<openexp._canvas.legacy.Legacy object at 0x054EC8D0>,<openexp._canvas.legacy.Legacy object at 0x0550DFB0>,<openexp._canvas.legacy.Legacy object at 0x054C9BD0>,<openexp._canvas.legacy.Legacy object at 0x0538A930>,<openexp._canvas.legacy.Legacy object at 0x0537A190>,<openexp._canvas.legacy.Legacy object at 0x054DF2B0>,<openexp._canvas.legacy.Legacy object at 0x05512C10>,<openexp._canvas.legacy.Legacy object at 0x053C5C30>,75,SpatProbMultiple3.osexp,C:/Userdata/Michel/SpatProbMultiple3,no,mono,no,18,no,white,no,yes,0.09,98,1050,legacy,45,13,13,1,C:/Userdata/Michel/SpatProbMultiple3/beh/subject-12.csv,legacy,9,192,25,Kafkaesque Koffka,3.2.5,yes,598477b2b83f69022949e7e9,47,red,circular,red,rectangular,0,\,722,space,5084,5084,"(80, 80, 80)","(0, 123, 0)","(177, 0, 0)","(155, 155, 155)",2,legacy,experiment,"[3, 4, 5, 6, 7, 0, 1, 2]",\,2500,3000,0,8,252.7587515,1024,2,48000,-16,main,"[(0, -252), (178, -178), (252, 0), (178, 178), (0, 252), (-178, 178), (-252, 0), (-178, -178)]",[],36,even,5,NA,205464,256107,256107,124634,123623,2260,137946,137946,2260,2260,129718,295957,2258,256107,295232,294303,294303,NA,919,study_X,0,5084,1,yes,1680
undefined,undefined,NA,NA,NA,5084,5084,black,no,legacy,legacy,legacy,0,green,"(0, 123, 0)",color,absent,lowProb5,rectangular,swap,swap,swap,same,green,"(0, 123, 0)",lowProb,lowProb6,rectangular,uniform,1,undefined,0,0.078125,1,1,87.61458333,1,15,16822,0,0,0,0,0,0,0,0,40,0,1,0.078125,87.61458333,15,16822,39,39,39,11/27/2018 10:34,Default description,yes,<openexp._canvas.legacy.Legacy object at 0x054EC8D0>,<openexp._canvas.legacy.Legacy object at 0x0550DFB0>,<openexp._canvas.legacy.Legacy object at 0x054C9BD0>,<openexp._canvas.legacy.Legacy object at 0x0538A930>,<openexp._canvas.legacy.Legacy object at 0x0537A190>,<openexp._canvas.legacy.Legacy object at 0x054DF2B0>,<openexp._canvas.legacy.Legacy object at 0x0538F550>,<openexp._canvas.legacy.Legacy object at 0x053C5C30>,75,SpatProbMultiple3.osexp,C:/Userdata/Michel/SpatProbMultiple3,no,mono,no,18,no,white,no,yes,0.09,98,1050,legacy,315,14,14,1,C:/Userdata/Michel/SpatProbMultiple3/beh/subject-12.csv,legacy,9,192,25,Kafkaesque Koffka,3.2.5,yes,598477b2b83f69022949e7e9,47,green,rectangular,green,rectangular,0,/,1152,space,5084,5084,"(80, 80, 80)","(0, 123, 0)","(177, 0, 0)","(155, 155, 155)",2,legacy,experiment,"[3, 4, 5, 6, 7, 0, 1, 2]",/,2500,3000,0,8,252.7587515,1024,2,48000,-16,main,"[(0, -252), (178, -178), (252, 0), (178, 178), (0, 252), (-178, 178), (-252, 0), (-178, -178)]",[],36,even,2,NA,205464,256107,256107,124634,123623,2260,137946,137946,2260,2260,129718,298461,2258,256107,297306,296377,296377,NA,919,study_X,0,5084,1,yes,1680
undefined,undefined,NA,NA,NA,5084,5084,black,no,legacy,legacy,legacy,0,green,"(0, 123, 0)",color,present,lowProb4,rectangular,same,same,swap,same,red,"(177, 0, 0)",lowProb,lowProb3,rectangular,uniform,1,undefined,0,0.083333333,1,1,92.64583333,1,16,17788,0,0,0,0,0,0,0,0,41,0,1,0.083333333,92.64583333,16,17788,40,40,40,11/27/2018 10:34,Default description,yes,<openexp._canvas.legacy.Legacy object at 0x054EC8D0>,<openexp._canvas.legacy.Legacy object at 0x0550DFB0>,<openexp._canvas.legacy.Legacy object at 0x054C9BD0>,<openexp._canvas.legacy.Legacy object at 0x0538A930>,<openexp._canvas.legacy.Legacy object at 0x0537A190>,<openexp._canvas.legacy.Legacy object at 0x054DF2B0>,<openexp._canvas.legacy.Legacy object at 0x05512A30>,<openexp._canvas.legacy.Legacy object at 0x053C5C30>,75,SpatProbMultiple3.osexp,C:/Userdata/Michel/SpatProbMultiple3,no,mono,no,18,no,white,no,yes,0.09,98,1050,legacy,315,15,15,1,C:/Userdata/Michel/SpatProbMultiple3/beh/subject-12.csv,legacy,9,192,25,Kafkaesque Koffka,3.2.5,yes,598477b2b83f69022949e7e9,47,green,rectangular,red,rectangular,0,/,966,space,5084,5084,"(80, 80, 80)","(0, 123, 0)","(177, 0, 0)","(155, 155, 155)",2,legacy,experiment,"[3, 4, 5, 6, 7, 0, 1, 2]",/,2500,3000,0,8,252.7587515,1024,2,48000,-16,main,"[(0, -252), (178, -178), (252, 0), (178, 178), (0, 252), (-178, 178), (-252, 0), (-178, -178)]",[],36,even,6,NA,205464,256107,256107,124634,123623,2260,137946,137946,2260,2260,129718,300789,2258,256107,299820,298891,298892,NA,919,study_X,0,5084,1,yes,1680
undefined,undefined,NA,NA,NA,5084,5084,black,no,legacy,legacy,legacy,0,green,"(0, 123, 0)",shape,present,highProb,rectangular,same,same,swap,swap,green,"(0, 123, 0)",lowProb,lowProb6,circular,uniform,1,undefined,0,0.088541667,1,1,98.47395833,1,17,18907,0,0,0,0,0,0,0,0,42,0,1,0.088541667,98.47395833,17,18907,41,41,41,11/27/2018 10:34,Default description,yes,<openexp._canvas.legacy.Legacy object at 0x054EC8D0>,<openexp._canvas.legacy.Legacy object at 0x0550DFB0>,<openexp._canvas.legacy.Legacy object at 0x054C9BD0>,<openexp._canvas.legacy.Legacy object at 0x0538A930>,<openexp._canvas.legacy.Legacy object at 0x0537A190>,<openexp._canvas.legacy.Legacy object at 0x054DF2B0>,<openexp._canvas.legacy.Legacy object at 0x05537C70>,<openexp._canvas.legacy.Legacy object at 0x053C5C30>,75,SpatProbMultiple3.osexp,C:/Userdata/Michel/SpatProbMultiple3,no,mono,no,18,no,white,no,yes,0.09,98,1050,legacy,315,16,16,1,C:/Userdata/Michel/SpatProbMultiple3/beh/subject-12.csv,legacy,9,192,25,Kafkaesque Koffka,3.2.5,yes,598477b2b83f69022949e7e9,47,green,rectangular,green,circular,0,/,1119,space,5084,5084,"(80, 80, 80)","(0, 123, 0)","(177, 0, 0)","(155, 155, 155)",2,legacy,experiment,"[3, 4, 5, 6, 7, 0, 1, 2]",/,2500,3000,0,8,252.7587515,1024,2,48000,-16,main,"[(0, -252), (178, -178), (252, 0), (178, 178), (0, 252), (-178, 178), (-252, 0), (-178, -178)]",[],36,even,2,NA,205464,256107,256107,124634,123623,2260,137946,137946,2260,2260,129718,303269,2258,256107,302147,301219,301219,NA,919,study_X,0,5084,1,yes,1680
undefined,undefined,NA,NA,NA,5084,5084,black,no,legacy,legacy,legacy,0,red,"(177, 0, 0)",color,absent,lowProb3,rectangular,swap,same,swap,swap,red,"(177, 0, 0)",lowProb,lowProb5,rectangular,uniform,1,undefined,0,0.09375,1,1,103.4114583,1,18,19855,0,0,0,0,0,0,0,0,43,0,1,0.09375,103.4114583,18,19855,42,42,42,11/27/2018 10:34,Default description,yes,<openexp._canvas.legacy.Legacy object at 0x054EC8D0>,<openexp._canvas.legacy.Legacy object at 0x0550DFB0>,<openexp._canvas.legacy.Legacy object at 0x054C9BD0>,<openexp._canvas.legacy.Legacy object at 0x0538A930>,<openexp._canvas.legacy.Legacy object at 0x0537A190>,<openexp._canvas.legacy.Legacy object at 0x054DF2B0>,<openexp._canvas.legacy.Legacy object at 0x0538FDF0>,<openexp._canvas.legacy.Legacy object at 0x053C5C30>,75,SpatProbMultiple3.osexp,C:/Userdata/Michel/SpatProbMultiple3,no,mono,no,18,no,white,no,yes,0.09,98,1050,legacy,45,17,17,1,C:/Userdata/Michel/SpatProbMultiple3/beh/subject-12.csv,legacy,9,192,25,Kafkaesque Koffka,3.2.5,yes,598477b2b83f69022949e7e9,47,red,rectangular,red,rectangular,0,\,948,space,5084,5084,"(80, 80, 80)","(0, 123, 0)","(177, 0, 0)","(155, 155, 155)",2,legacy,experiment,"[3, 4, 5, 6, 7, 0, 1, 2]",\,2500,3000,0,8,252.7587515,1024,2,48000,-16,main,"[(0, -252), (178, -178), (252, 0), (178, 178), (0, 252), (-178, 178), (-252, 0), (-178, -178)]",[],36,even,1,NA,205464,256107,256107,124634,123623,2260,137946,137946,2260,2260,129718,305597,2258,256107,304645,303717,303717,NA,919,study_X,0,5084,1,yes,1680
undefined,undefined,NA,NA,NA,5084,5084,black,no,legacy,legacy,legacy,0,green,"(0, 123, 0)",shape,present,highProb,circular,swap,swap,swap,same,green,"(0, 123, 0)",lowProb,lowProb1,rectangular,uniform,1,undefined,0,0.098958333,1,1,111.8697917,1,19,21479,0,0,0,0,0,0,0,0,44,0,1,0.098958333,111.8697917,19,21479,43,43,43,11/27/2018 10:34,Default description,yes,<openexp._canvas.legacy.Legacy object at 0x054EC8D0>,<openexp._canvas.legacy.Legacy object at 0x0550DFB0>,<openexp._canvas.legacy.Legacy object at 0x054C9BD0>,<openexp._canvas.legacy.Legacy object at 0x0538A930>,<openexp._canvas.legacy.Legacy object at 0x0537A190>,<openexp._canvas.legacy.Legacy object at 0x054DF2B0>,<openexp._canvas.legacy.Legacy object at 0x05537F50>,<openexp._canvas.legacy.Legacy object at 0x053C5C30>,75,SpatProbMultiple3.osexp,C:/Userdata/Michel/SpatProbMultiple3,no,mono,no,18,no,white,no,yes,0.09,98,1050,legacy,315,18,18,1,C:/Userdata/Michel/SpatProbMultiple3/beh/subject-12.csv,legacy,9,192,25,Kafkaesque Koffka,3.2.5,yes,598477b2b83f69022949e7e9,47,green,circular,green,rectangular,0,/,1624,space,5084,5084,"(80, 80, 80)","(0, 123, 0)","(177, 0, 0)","(155, 155, 155)",2,legacy,experiment,"[3, 4, 5, 6, 7, 0, 1, 2]",/,2500,3000,0,8,252.7587515,1024,2,48000,-16,main,"[(0, -252), (178, -178), (252, 0), (178, 178), (0, 252), (-178, 178), (-252, 0), (-178, -178)]",[],36,even,4,NA,205464,256107,256107,124634,123623,2260,137946,137946,2260,2260,129718,308574,2258,256107,306946,306017,306018,NA,919,study_X,0,5084,1,yes,1680
undefined,undefined,NA,NA,NA,5084,5084,black,no,legacy,legacy,legacy,0,green,"(0, 123, 0)",shape,present,highProb,rectangular,same,swap,same,swap,green,"(0, 123, 0)",lowProb,lowProb2,circular,uniform,0,undefined,0,0.098958333,1,1,117.140625,1,19,22491,0,0,0,0,0,0,0,0,45,0,1,0.098958333,117.140625,19,22491,44,44,44,11/27/2018 10:34,Default description,yes,<openexp._canvas.legacy.Legacy object at 0x054EC8D0>,<openexp._canvas.legacy.Legacy object at 0x0550DFB0>,<openexp._canvas.legacy.Legacy object at 0x054C9BD0>,<openexp._canvas.legacy.Legacy object at 0x0538A930>,<openexp._canvas.legacy.Legacy object at 0x0537A190>,<openexp._canvas.legacy.Legacy object at 0x054DF2B0>,<openexp._canvas.legacy.Legacy object at 0x05502370>,<openexp._canvas.legacy.Legacy object at 0x053C5C30>,75,SpatProbMultiple3.osexp,C:/Userdata/Michel/SpatProbMultiple3,no,mono,no,18,no,white,no,yes,0.09,98,1050,legacy,45,19,19,1,C:/Userdata/Michel/SpatProbMultiple3/beh/subject-12.csv,legacy,9,192,25,Kafkaesque Koffka,3.2.5,yes,598477b2b83f69022949e7e9,47,green,rectangular,green,circular,0,/,1012,space,5084,5084,"(80, 80, 80)","(0, 123, 0)","(177, 0, 0)","(155, 155, 155)",2,legacy,experiment,"[3, 4, 5, 6, 7, 0, 1, 2]",\,2500,3000,0,8,252.7587515,1024,2,48000,-16,main,"[(0, -252), (178, -178), (252, 0), (178, 178), (0, 252), (-178, 178), (-252, 0), (-178, -178)]",[],36,even,5,NA,205464,256107,256107,124634,123623,2260,137946,137946,2260,2260,129718,310941,2258,256107,309927,308999,308999,NA,919,study_X,0,5084,1,yes,1680
undefined,undefined,NA,NA,NA,5084,5084,black,no,legacy,legacy,legacy,0,green,"(0, 123, 0)",color,absent,lowProb3,rectangular,same,same,same,swap,green,"(0, 123, 0)",lowProb,lowProb5,rectangular,uniform,1,undefined,0,0.104166667,1,1,121.9583333,1,20,23416,0,0,0,0,0,0,0,0,46,0,1,0.104166667,121.9583333,20,23416,45,45,45,11/27/2018 10:34,Default description,yes,<openexp._canvas.legacy.Legacy object at 0x054EC8D0>,<openexp._canvas.legacy.Legacy object at 0x0550DFB0>,<openexp._canvas.legacy.Legacy object at 0x054C9BD0>,<openexp._canvas.legacy.Legacy object at 0x0538A930>,<openexp._canvas.legacy.Legacy object at 0x0537A190>,<openexp._canvas.legacy.Legacy object at 0x054DF2B0>,<openexp._canvas.legacy.Legacy object at 0x054F6970>,<openexp._canvas.legacy.Legacy object at 0x053C5C30>,75,SpatProbMultiple3.osexp,C:/Userdata/Michel/SpatProbMultiple3,no,mono,no,18,no,white,no,yes,0.09,98,1050,legacy,45,20,20,1,C:/Userdata/Michel/SpatProbMultiple3/beh/subject-12.csv,legacy,9,192,25,Kafkaesque Koffka,3.2.5,yes,598477b2b83f69022949e7e9,47,green,rectangular,green,rectangular,0,\,925,space,5084,5084,"(80, 80, 80)","(0, 123, 0)","(177, 0, 0)","(155, 155, 155)",2,legacy,experiment,"[3, 4, 5, 6, 7, 0, 1, 2]",\,2500,3000,0,8,252.7587515,1024,2,48000,-16,main,"[(0, -252), (178, -178), (252, 0), (178, 178), (0, 252), (-178, 178), (-252, 0), (-178, -178)]",[],36,even,1,NA,205464,256107,256107,124634,123623,2260,137946,137946,2260,2260,129718,313213,2258,256107,312286,311360,311360,NA,919,study_X,0,5084,1,yes,1680
undefined,undefined,NA,NA,NA,5084,5084,black,no,legacy,legacy,legacy,0,red,"(177, 0, 0)",shape,present,highProb,circular,swap,swap,swap,same,red,"(177, 0, 0)",lowProb,lowProb3,rectangular,uniform,1,undefined,0,0.109375,1,1,127.7916667,1,21,24536,0,0,0,0,0,0,0,0,47,0,1,0.109375,127.7916667,21,24536,46,46,46,11/27/2018 10:34,Default description,yes,<openexp._canvas.legacy.Legacy object at 0x054EC8D0>,<openexp._canvas.legacy.Legacy object at 0x0550DFB0>,<openexp._canvas.legacy.Legacy object at 0x054C9BD0>,<openexp._canvas.legacy.Legacy object at 0x0538A930>,<openexp._canvas.legacy.Legacy object at 0x0537A190>,<openexp._canvas.legacy.Legacy object at 0x054DF2B0>,<openexp._canvas.legacy.Legacy object at 0x05512B50>,<openexp._canvas.legacy.Legacy object at 0x053C5C30>,75,SpatProbMultiple3.osexp,C:/Userdata/Michel/SpatProbMultiple3,no,mono,no,18,no,white,no,yes,0.09,98,1050,legacy,315,21,21,1,C:/Userdata/Michel/SpatProbMultiple3/beh/subject-12.csv,legacy,9,192,25,Kafkaesque Koffka,3.2.5,yes,598477b2b83f69022949e7e9,47,red,circular,red,rectangular,0,/,1120,space,5084,5084,"(80, 80, 80)","(0, 123, 0)","(177, 0, 0)","(155, 155, 155)",2,legacy,experiment,"[3, 4, 5, 6, 7, 0, 1, 2]",/,2500,3000,0,8,252.7587515,1024,2,48000,-16,main,"[(0, -252), (178, -178), (252, 0), (178, 178), (0, 252), (-178, 178), (-252, 0), (-178, -178)]",[],36,even,6,NA,205464,256107,256107,124634,123623,2260,137946,137946,2260,2260,129718,315757,2258,256107,314635,313706,313706,NA,919,study_X,0,5084,1,yes,1680
undefined,undefined,NA,NA,NA,5084,5084,black,no,legacy,legacy,legacy,0,green,"(0, 123, 0)",color,present,highProb,circular,swap,same,same,swap,red,"(177, 0, 0)",lowProb,lowProb6,circular,uniform,1,undefined,0,0.114583333,1,1,133.6354167,1,22,25658,0,0,0,0,0,0,0,0,48,0,1,0.114583333,133.6354167,22,25658,47,47,47,11/27/2018 10:34,Default description,yes,<openexp._canvas.legacy.Legacy object at 0x054EC8D0>,<openexp._canvas.legacy.Legacy object at 0x0550DFB0>,<openexp._canvas.legacy.Legacy object at 0x054C9BD0>,<openexp._canvas.legacy.Legacy object at 0x0538A930>,<openexp._canvas.legacy.Legacy object at 0x0537A190>,<openexp._canvas.legacy.Legacy object at 0x054DF2B0>,<openexp._canvas.legacy.Legacy object at 0x05512890>,<openexp._canvas.legacy.Legacy object at 0x053C5C30>,75,SpatProbMultiple3.osexp,C:/Userdata/Michel/SpatProbMultiple3,no,mono,no,18,no,white,no,yes,0.09,98,1050,legacy,315,22,22,1,C:/Userdata/Michel/SpatProbMultiple3/beh/subject-12.csv,legacy,9,192,25,Kafkaesque Koffka,3.2.5,yes,598477b2b83f69022949e7e9,47,green,circular,red,circular,0,/,1122,space,5084,5084,"(80, 80, 80)","(0, 123, 0)","(177, 0, 0)","(155, 155, 155)",2,legacy,experiment,"[3, 4, 5, 6, 7, 0, 1, 2]",/,2500,3000,0,8,252.7587515,1024,2,48000,-16,main,"[(0, -252), (178, -178), (252, 0), (178, 178), (0, 252), (-178, 178), (-252, 0), (-178, -178)]",[],36,even,2,NA,205464,256107,256107,124634,123623,2260,137946,137946,2260,2260,129718,318229,2258,256107,317104,316176,316176,NA,919,study_X,0,5084,1,yes,1680
undefined,undefined,NA,NA,NA,5084,5084,black,no,legacy,legacy,legacy,0,green,"(0, 123, 0)",color,present,highProbOther,rectangular,same,swap,same,swap,red,"(177, 0, 0)",lowProb,lowProb2,rectangular,uniform,1,undefined,0,0.119791667,1,1,138.3645833,1,23,26566,0,0,0,0,0,0,0,0,49,0,1,0.119791667,138.3645833,23,26566,48,48,48,11/27/2018 10:34,Default description,yes,<openexp._canvas.legacy.Legacy object at 0x054EC8D0>,<openexp._canvas.legacy.Legacy object at 0x0550DFB0>,<openexp._canvas.legacy.Legacy object at 0x054C9BD0>,<openexp._canvas.legacy.Legacy object at 0x0538A930>,<openexp._canvas.legacy.Legacy object at 0x0537A190>,<openexp._canvas.legacy.Legacy object at 0x054DF2B0>,<openexp._canvas.legacy.Legacy object at 0x05512AB0>,<openexp._canvas.legacy.Legacy object at 0x053C5C30>,75,SpatProbMultiple3.osexp,C:/Userdata/Michel/SpatProbMultiple3,no,mono,no,18,no,white,no,yes,0.09,98,1050,legacy,45,23,23,1,C:/Userdata/Michel/SpatProbMultiple3/beh/subject-12.csv,legacy,9,192,25,Kafkaesque Koffka,3.2.5,yes,598477b2b83f69022949e7e9,47,green,rectangular,red,rectangular,0,\,908,space,5084,5084,"(80, 80, 80)","(0, 123, 0)","(177, 0, 0)","(155, 155, 155)",2,legacy,experiment,"[3, 4, 5, 6, 7, 0, 1, 2]",\,2500,3000,0,8,252.7587515,1024,2,48000,-16,main,"[(0, -252), (178, -178), (252, 0), (178, 178), (0, 252), (-178, 178), (-252, 0), (-178, -178)]",[],36,even,5,NA,205464,256107,256107,124634,123623,2260,137946,137946,2260,2260,129718,320485,2258,256107,319573,318644,318644,NA,919,study_X,0,5084,1,yes,1680
undefined,undefined,NA,NA,NA,5084,5084,black,no,legacy,legacy,legacy,0,green,"(0, 123, 0)",color,present,highProb,rectangular,same,same,same,same,red,"(177, 0, 0)",lowProb,lowProb1,rectangular,uniform,1,undefined,0,0.125,1,1,142.6145833,1,24,27382,0,0,0,0,0,0,0,0,50,0,1,0.125,142.6145833,24,27382,49,49,49,11/27/2018 10:34,Default description,yes,<openexp._canvas.legacy.Legacy object at 0x054EC8D0>,<openexp._canvas.legacy.Legacy object at 0x0550DFB0>,<openexp._canvas.legacy.Legacy object at 0x054C9BD0>,<openexp._canvas.legacy.Legacy object at 0x0538A930>,<openexp._canvas.legacy.Legacy object at 0x0537A190>,<openexp._canvas.legacy.Legacy object at 0x054DF2B0>,<openexp._canvas.legacy.Legacy object at 0x05537F70>,<openexp._canvas.legacy.Legacy object at 0x053C5C30>,75,SpatProbMultiple3.osexp,C:/Userdata/Michel/SpatProbMultiple3,no,mono,no,18,no,white,no,yes,0.09,98,1050,legacy,45,24,24,1,C:/Userdata/Michel/SpatProbMultiple3/beh/subject-12.csv,legacy,9,192,25,Kafkaesque Koffka,3.2.5,yes,598477b2b83f69022949e7e9,47,green,rectangular,red,rectangular,0,\,816,space,5084,5084,"(80, 80, 80)","(0, 123, 0)","(177, 0, 0)","(155, 155, 155)",2,legacy,experiment,"[3, 4, 5, 6, 7, 0, 1, 2]",\,2500,3000,0,8,252.7587515,1024,2,48000,-16,main,"[(0, -252), (178, -178), (252, 0), (178, 178), (0, 252), (-178, 178), (-252, 0), (-178, -178)]",[],36,even,4,NA,205464,256107,256107,124634,123623,2260,137946,137946,2260,2260,129718,322653,2258,256107,321833,320904,320904,NA,919,study_X,0,5084,1,yes,1680
undefined,undefined,NA,NA,NA,5084,5084,black,no,legacy,legacy,legacy,0,green,"(0, 123, 0)",color,present,lowProb5,rectangular,same,same,same,same,red,"(177, 0, 0)",lowProb,lowProb1,rectangular,uniform,1,undefined,0,0.130208333,1,1,147.2760417,1,25,28277,0,0,0,0,0,0,0,0,51,0,1,0.130208333,147.2760417,25,28277,50,50,50,11/27/2018 10:34,Default description,yes,<openexp._canvas.legacy.Legacy object at 0x054EC8D0>,<openexp._canvas.legacy.Legacy object at 0x0550DFB0>,<openexp._canvas.legacy.Legacy object at 0x054C9BD0>,<openexp._canvas.legacy.Legacy object at 0x0538A930>,<openexp._canvas.legacy.Legacy object at 0x0537A190>,<openexp._canvas.legacy.Legacy object at 0x054DF2B0>,<openexp._canvas.legacy.Legacy object at 0x0538F4B0>,<openexp._canvas.legacy.Legacy object at 0x053C5C30>,75,SpatProbMultiple3.osexp,C:/Userdata/Michel/SpatProbMultiple3,no,mono,no,18,no,white,no,yes,0.09,98,1050,legacy,315,25,25,1,C:/Userdata/Michel/SpatProbMultiple3/beh/subject-12.csv,legacy,9,192,25,Kafkaesque Koffka,3.2.5,yes,598477b2b83f69022949e7e9,47,green,rectangular,red,rectangular,0,/,895,space,5084,5084,"(80, 80, 80)","(0, 123, 0)","(177, 0, 0)","(155, 155, 155)",2,legacy,experiment,"[3, 4, 5, 6, 7, 0, 1, 2]",/,2500,3000,0,8,252.7587515,1024,2,48000,-16,main,"[(0, -252), (178, -178), (252, 0), (178, 178), (0, 252), (-178, 178), (-252, 0), (-178, -178)]",[],36,even,4,NA,205464,256107,256107,124634,123623,2260,137946,137946,2260,2260,129718,324900,2258,256107,324002,323073,323073,NA,919,study_X,0,5084,1,yes,1680
undefined,undefined,NA,NA,NA,5084,5084,black,no,legacy,legacy,legacy,0,red,"(177, 0, 0)",color,present,highProb,rectangular,swap,same,swap,same,green,"(0, 123, 0)",lowProb,lowProb3,rectangular,uniform,1,undefined,0,0.135416667,1,1,150.9635417,1,26,28985,0,0,0,0,0,0,0,0,52,0,1,0.135416667,150.9635417,26,28985,51,51,51,11/27/2018 10:34,Default description,yes,<openexp._canvas.legacy.Legacy object at 0x054EC8D0>,<openexp._canvas.legacy.Legacy object at 0x0550DFB0>,<openexp._canvas.legacy.Legacy object at 0x054C9BD0>,<openexp._canvas.legacy.Legacy object at 0x0538A930>,<openexp._canvas.legacy.Legacy object at 0x0537A190>,<openexp._canvas.legacy.Legacy object at 0x054DF2B0>,<openexp._canvas.legacy.Legacy object at 0x05512F90>,<openexp._canvas.legacy.Legacy object at 0x053C5C30>,75,SpatProbMultiple3.osexp,C:/Userdata/Michel/SpatProbMultiple3,no,mono,no,18,no,white,no,yes,0.09,98,1050,legacy,45,26,26,1,C:/Userdata/Michel/SpatProbMultiple3/beh/subject-12.csv,legacy,9,192,25,Kafkaesque Koffka,3.2.5,yes,598477b2b83f69022949e7e9,47,red,rectangular,green,rectangular,0,\,708,space,5084,5084,"(80, 80, 80)","(0, 123, 0)","(177, 0, 0)","(155, 155, 155)",2,legacy,experiment,"[3, 4, 5, 6, 7, 0, 1, 2]",\,2500,3000,0,8,252.7587515,1024,2,48000,-16,main,"[(0, -252), (178, -178), (252, 0), (178, 178), (0, 252), (-178, 178), (-252, 0), (-178, -178)]",[],36,even,6,NA,205464,256107,256107,124634,123623,2260,137946,137946,2260,2260,129718,326973,2258,256107,326262,325334,325334,NA,919,study_X,0,5084,1,yes,1680
undefined,undefined,NA,NA,NA,5084,5084,black,no,legacy,legacy,legacy,0,red,"(177, 0, 0)",color,present,highProb,rectangular,same,same,same,same,green,"(0, 123, 0)",lowProb,lowProb3,rectangular,uniform,1,undefined,0,0.140625,1,1,157.96875,1,27,30330,0,0,0,0,0,0,0,0,53,0,1,0.140625,157.96875,27,30330,52,52,52,11/27/2018 10:34,Default description,yes,<openexp._canvas.legacy.Legacy object at 0x054EC8D0>,<openexp._canvas.legacy.Legacy object at 0x0550DFB0>,<openexp._canvas.legacy.Legacy object at 0x054C9BD0>,<openexp._canvas.legacy.Legacy object at 0x0538A930>,<openexp._canvas.legacy.Legacy object at 0x0537A190>,<openexp._canvas.legacy.Legacy object at 0x054DF2B0>,<openexp._canvas.legacy.Legacy object at 0x05518830>,<openexp._canvas.legacy.Legacy object at 0x053C5C30>,75,SpatProbMultiple3.osexp,C:/Userdata/Michel/SpatProbMultiple3,no,mono,no,18,no,white,no,yes,0.09,98,1050,legacy,315,27,27,1,C:/Userdata/Michel/SpatProbMultiple3/beh/subject-12.csv,legacy,9,192,25,Kafkaesque Koffka,3.2.5,yes,598477b2b83f69022949e7e9,47,red,rectangular,green,rectangular,0,/,1345,space,5084,5084,"(80, 80, 80)","(0, 123, 0)","(177, 0, 0)","(155, 155, 155)",2,legacy,experiment,"[3, 4, 5, 6, 7, 0, 1, 2]",/,2500,3000,0,8,252.7587515,1024,2,48000,-16,main,"[(0, -252), (178, -178), (252, 0), (178, 178), (0, 252), (-178, 178), (-252, 0), (-178, -178)]",[],36,even,6,NA,205464,256107,256107,124634,123623,2260,137946,137946,2260,2260,129718,329669,2258,256107,328321,327392,327392,NA,919,study_X,0,5084,1,yes,1680
undefined,undefined,NA,NA,NA,5084,5084,black,no,legacy,legacy,legacy,0,red,"(177, 0, 0)",shape,absent,highProbOther,circular,same,swap,swap,swap,red,"(177, 0, 0)",lowProb,lowProb5,circular,uniform,1,undefined,0,0.145833333,1,1,161.9479167,1,28,31094,0,0,0,0,0,0,0,0,54,0,1,0.145833333,161.9479167,28,31094,53,53,53,11/27/2018 10:34,Default description,yes,<openexp._canvas.legacy.Legacy object at 0x054EC8D0>,<openexp._canvas.legacy.Legacy object at 0x0550DFB0>,<openexp._canvas.legacy.Legacy object at 0x054C9BD0>,<openexp._canvas.legacy.Legacy object at 0x0538A930>,<openexp._canvas.legacy.Legacy object at 0x0537A190>,<openexp._canvas.legacy.Legacy object at 0x054DF2B0>,<openexp._canvas.legacy.Legacy object at 0x0538FAD0>,<openexp._canvas.legacy.Legacy object at 0x053C5C30>,75,SpatProbMultiple3.osexp,C:/Userdata/Michel/SpatProbMultiple3,no,mono,no,18,no,white,no,yes,0.09,98,1050,legacy,315,28,28,1,C:/Userdata/Michel/SpatProbMultiple3/beh/subject-12.csv,legacy,9,192,25,Kafkaesque Koffka,3.2.5,yes,598477b2b83f69022949e7e9,47,red,circular,red,circular,0,/,764,space,5084,5084,"(80, 80, 80)","(0, 123, 0)","(177, 0, 0)","(155, 155, 155)",2,legacy,experiment,"[3, 4, 5, 6, 7, 0, 1, 2]",/,2500,3000,0,8,252.7587515,1024,2,48000,-16,main,"[(0, -252), (178, -178), (252, 0), (178, 178), (0, 252), (-178, 178), (-252, 0), (-178, -178)]",[],36,even,1,NA,205464,256107,256107,124634,123623,2260,137946,137946,2260,2260,129718,331805,2258,256107,331038,330109,330109,NA,919,study_X,0,5084,1,yes,1680
undefined,undefined,NA,NA,NA,5084,5084,black,no,legacy,legacy,legacy,0,green,"(0, 123, 0)",shape,present,lowProb6,circular,swap,same,swap,swap,green,"(0, 123, 0)",lowProb,lowProb4,rectangular,uniform,1,undefined,0,0.151041667,1,1,167.6302083,1,29,32185,0,0,0,0,0,0,0,0,55,0,1,0.151041667,167.6302083,29,32185,54,54,54,11/27/2018 10:34,Default description,yes,<openexp._canvas.legacy.Legacy object at 0x054EC8D0>,<openexp._canvas.legacy.Legacy object at 0x0550DFB0>,<openexp._canvas.legacy.Legacy object at 0x054C9BD0>,<openexp._canvas.legacy.Legacy object at 0x0538A930>,<openexp._canvas.legacy.Legacy object at 0x0537A190>,<openexp._canvas.legacy.Legacy object at 0x054DF2B0>,<openexp._canvas.legacy.Legacy object at 0x0538F490>,<openexp._canvas.legacy.Legacy object at 0x053C5C30>,75,SpatProbMultiple3.osexp,C:/Userdata/Michel/SpatProbMultiple3,no,mono,no,18,no,white,no,yes,0.09,98,1050,legacy,315,29,29,1,C:/Userdata/Michel/SpatProbMultiple3/beh/subject-12.csv,legacy,9,192,25,Kafkaesque Koffka,3.2.5,yes,598477b2b83f69022949e7e9,47,green,circular,green,rectangular,0,/,1091,space,5084,5084,"(80, 80, 80)","(0, 123, 0)","(177, 0, 0)","(155, 155, 155)",2,legacy,experiment,"[3, 4, 5, 6, 7, 0, 1, 2]",/,2500,3000,0,8,252.7587515,1024,2,48000,-16,main,"[(0, -252), (178, -178), (252, 0), (178, 178), (0, 252), (-178, 178), (-252, 0), (-178, -178)]",[],36,even,0,NA,205464,256107,256107,124634,123623,2260,137946,137946,2260,2260,129718,334253,2258,256107,333158,332229,332230,NA,919,study_X,0,5084,1,yes,1680
undefined,undefined,NA,NA,NA,5084,5084,black,no,legacy,legacy,legacy,0,green,"(0, 123, 0)",shape,present,highProb,rectangular,same,swap,same,swap,green,"(0, 123, 0)",lowProb,lowProb6,circular,uniform,1,undefined,0,0.15625,1,1,179.8020833,1,30,34522,0,0,0,0,0,0,0,0,56,0,1,0.15625,179.8020833,30,34522,55,55,55,11/27/2018 10:34,Default description,yes,<openexp._canvas.legacy.Legacy object at 0x054EC8D0>,<openexp._canvas.legacy.Legacy object at 0x0550DFB0>,<openexp._canvas.legacy.Legacy object at 0x054C9BD0>,<openexp._canvas.legacy.Legacy object at 0x0538A930>,<openexp._canvas.legacy.Legacy object at 0x0537A190>,<openexp._canvas.legacy.Legacy object at 0x054DF2B0>,<openexp._canvas.legacy.Legacy object at 0x05512B90>,<openexp._canvas.legacy.Legacy object at 0x053C5C30>,75,SpatProbMultiple3.osexp,C:/Userdata/Michel/SpatProbMultiple3,no,mono,no,18,no,white,no,yes,0.09,98,1050,legacy,315,30,30,1,C:/Userdata/Michel/SpatProbMultiple3/beh/subject-12.csv,legacy,9,192,25,Kafkaesque Koffka,3.2.5,yes,598477b2b83f69022949e7e9,47,green,rectangular,green,circular,0,/,2337,space,5084,5084,"(80, 80, 80)","(0, 123, 0)","(177, 0, 0)","(155, 155, 155)",2,legacy,experiment,"[3, 4, 5, 6, 7, 0, 1, 2]",/,2500,3000,0,8,252.7587515,1024,2,48000,-16,main,"[(0, -252), (178, -178), (252, 0), (178, 178), (0, 252), (-178, 178), (-252, 0), (-178, -178)]",[],36,even,2,NA,205464,256107,256107,124634,123623,2260,137946,137946,2260,2260,129718,337957,2258,256107,335616,334688,334688,NA,919,study_X,0,5084,1,yes,1680
undefined,undefined,NA,NA,NA,5084,5084,black,no,legacy,legacy,legacy,0,green,"(0, 123, 0)",shape,present,highProb,circular,same,swap,same,swap,green,"(0, 123, 0)",lowProb,lowProb3,rectangular,uniform,1,undefined,0,0.161458333,1,1,183.6614583,1,31,35263,0,0,0,0,0,0,0,0,57,0,1,0.161458333,183.6614583,31,35263,56,56,56,11/27/2018 10:34,Default description,yes,<openexp._canvas.legacy.Legacy object at 0x054EC8D0>,<openexp._canvas.legacy.Legacy object at 0x0550DFB0>,<openexp._canvas.legacy.Legacy object at 0x054C9BD0>,<openexp._canvas.legacy.Legacy object at 0x0538A930>,<openexp._canvas.legacy.Legacy object at 0x0537A190>,<openexp._canvas.legacy.Legacy object at 0x054DF2B0>,<openexp._canvas.legacy.Legacy object at 0x05512CF0>,<openexp._canvas.legacy.Legacy object at 0x053C5C30>,75,SpatProbMultiple3.osexp,C:/Userdata/Michel/SpatProbMultiple3,no,mono,no,18,no,white,no,yes,0.09,98,1050,legacy,45,31,31,1,C:/Userdata/Michel/SpatProbMultiple3/beh/subject-12.csv,legacy,9,192,25,Kafkaesque Koffka,3.2.5,yes,598477b2b83f69022949e7e9,47,green,circular,green,rectangular,0,\,741,space,5084,5084,"(80, 80, 80)","(0, 123, 0)","(177, 0, 0)","(155, 155, 155)",2,legacy,experiment,"[3, 4, 5, 6, 7, 0, 1, 2]",\,2500,3000,0,8,252.7587515,1024,2,48000,-16,main,"[(0, -252), (178, -178), (252, 0), (178, 178), (0, 252), (-178, 178), (-252, 0), (-178, -178)]",[],36,even,6,NA,205464,256107,256107,124634,123623,2260,137946,137946,2260,2260,129718,340053,2258,256107,339309,338381,338381,NA,919,study_X,0,5084,1,yes,1680
undefined,undefined,NA,NA,NA,5084,5084,black,no,legacy,legacy,legacy,0,red,"(177, 0, 0)",shape,present,highProb,rectangular,swap,swap,swap,swap,red,"(177, 0, 0)",lowProb,lowProb6,circular,uniform,1,undefined,0,0.166666667,1,1,190.7291667,1,32,36620,0,0,0,0,0,0,0,0,58,0,1,0.166666667,190.7291667,32,36620,57,57,57,11/27/2018 10:34,Default description,yes,<openexp._canvas.legacy.Legacy object at 0x054EC8D0>,<openexp._canvas.legacy.Legacy object at 0x0550DFB0>,<openexp._canvas.legacy.Legacy object at 0x054C9BD0>,<openexp._canvas.legacy.Legacy object at 0x0538A930>,<openexp._canvas.legacy.Legacy object at 0x0537A190>,<openexp._canvas.legacy.Legacy object at 0x054DF2B0>,<openexp._canvas.legacy.Legacy object at 0x054F6C10>,<openexp._canvas.legacy.Legacy object at 0x053C5C30>,75,SpatProbMultiple3.osexp,C:/Userdata/Michel/SpatProbMultiple3,no,mono,no,18,no,white,no,yes,0.09,98,1050,legacy,45,32,32,1,C:/Userdata/Michel/SpatProbMultiple3/beh/subject-12.csv,legacy,9,192,25,Kafkaesque Koffka,3.2.5,yes,598477b2b83f69022949e7e9,47,red,rectangular,red,circular,0,\,1357,space,5084,5084,"(80, 80, 80)","(0, 123, 0)","(177, 0, 0)","(155, 155, 155)",2,legacy,experiment,"[3, 4, 5, 6, 7, 0, 1, 2]",\,2500,3000,0,8,252.7587515,1024,2,48000,-16,main,"[(0, -252), (178, -178), (252, 0), (178, 178), (0, 252), (-178, 178), (-252, 0), (-178, -178)]",[],36,even,2,NA,205464,256107,256107,124634,123623,2260,137946,137946,2260,2260,129718,342765,2258,256107,341405,340477,340477,NA,919,study_X,0,5084,1,yes,1680
undefined,undefined,NA,NA,NA,5084,5084,black,no,legacy,legacy,legacy,0,red,"(177, 0, 0)",shape,absent,lowProb5,circular,same,swap,same,same,red,"(177, 0, 0)",lowProb,lowProb4,circular,uniform,1,undefined,0,0.171875,1,1,196.5572917,1,33,37739,0,0,0,0,0,0,0,0,59,0,1,0.171875,196.5572917,33,37739,58,58,58,11/27/2018 10:34,Default description,yes,<openexp._canvas.legacy.Legacy object at 0x054EC8D0>,<openexp._canvas.legacy.Legacy object at 0x0550DFB0>,<openexp._canvas.legacy.Legacy object at 0x054C9BD0>,<openexp._canvas.legacy.Legacy object at 0x0538A930>,<openexp._canvas.legacy.Legacy object at 0x0537A190>,<openexp._canvas.legacy.Legacy object at 0x054DF2B0>,<openexp._canvas.legacy.Legacy object at 0x05502450>,<openexp._canvas.legacy.Legacy object at 0x053C5C30>,75,SpatProbMultiple3.osexp,C:/Userdata/Michel/SpatProbMultiple3,no,mono,no,18,no,white,no,yes,0.09,98,1050,legacy,315,33,33,1,C:/Userdata/Michel/SpatProbMultiple3/beh/subject-12.csv,legacy,9,192,25,Kafkaesque Koffka,3.2.5,yes,598477b2b83f69022949e7e9,47,red,circular,red,circular,0,/,1119,space,5084,5084,"(80, 80, 80)","(0, 123, 0)","(177, 0, 0)","(155, 155, 155)",2,legacy,experiment,"[3, 4, 5, 6, 7, 0, 1, 2]",/,2500,3000,0,8,252.7587515,1024,2,48000,-16,main,"[(0, -252), (178, -178), (252, 0), (178, 178), (0, 252), (-178, 178), (-252, 0), (-178, -178)]",[],36,even,0,NA,205464,256107,256107,124634,123623,2260,137946,137946,2260,2260,129718,345237,2258,256107,344116,343189,343189,NA,919,study_X,0,5084,1,yes,1680
undefined,undefined,NA,NA,NA,5084,5084,black,no,legacy,legacy,legacy,0,red,"(177, 0, 0)",color,present,highProb,circular,same,same,swap,same,green,"(0, 123, 0)",lowProb,lowProb1,circular,uniform,1,undefined,0,0.177083333,1,1,203.6458333,1,34,39100,0,0,0,0,0,0,0,0,60,0,1,0.177083333,203.6458333,34,39100,59,59,59,11/27/2018 10:34,Default description,yes,<openexp._canvas.legacy.Legacy object at 0x054EC8D0>,<openexp._canvas.legacy.Legacy object at 0x0550DFB0>,<openexp._canvas.legacy.Legacy object at 0x054C9BD0>,<openexp._canvas.legacy.Legacy object at 0x0538A930>,<openexp._canvas.legacy.Legacy object at 0x0537A190>,<openexp._canvas.legacy.Legacy object at 0x054DF2B0>,<openexp._canvas.legacy.Legacy object at 0x054F69F0>,<openexp._canvas.legacy.Legacy object at 0x053C5C30>,75,SpatProbMultiple3.osexp,C:/Userdata/Michel/SpatProbMultiple3,no,mono,no,18,no,white,no,yes,0.09,98,1050,legacy,315,34,34,1,C:/Userdata/Michel/SpatProbMultiple3/beh/subject-12.csv,legacy,9,192,25,Kafkaesque Koffka,3.2.5,yes,598477b2b83f69022949e7e9,47,red,circular,green,circular,0,/,1361,space,5084,5084,"(80, 80, 80)","(0, 123, 0)","(177, 0, 0)","(155, 155, 155)",2,legacy,experiment,"[3, 4, 5, 6, 7, 0, 1, 2]",/,2500,3000,0,8,252.7587515,1024,2,48000,-16,main,"[(0, -252), (178, -178), (252, 0), (178, 178), (0, 252), (-178, 178), (-252, 0), (-178, -178)]",[],36,even,4,NA,205464,256107,256107,124634,123623,2260,137946,137946,2260,2260,129718,347949,2258,256107,346586,345657,345657,NA,919,study_X,0,5084,1,yes,1680
undefined,undefined,NA,NA,NA,5084,5084,black,no,legacy,legacy,legacy,0,green,"(0, 123, 0)",shape,present,highProb,rectangular,swap,swap,same,same,green,"(0, 123, 0)",lowProb,lowProb6,circular,uniform,1,undefined,0,0.182291667,1,1,215.9479167,1,35,41462,0,0,0,0,0,0,0,0,61,0,1,0.182291667,215.9479167,35,41462,60,60,60,11/27/2018 10:34,Default description,yes,<openexp._canvas.legacy.Legacy object at 0x054EC8D0>,<openexp._canvas.legacy.Legacy object at 0x0550DFB0>,<openexp._canvas.legacy.Legacy object at 0x054C9BD0>,<openexp._canvas.legacy.Legacy object at 0x0538A930>,<openexp._canvas.legacy.Legacy object at 0x0537A190>,<openexp._canvas.legacy.Legacy object at 0x054DF2B0>,<openexp._canvas.legacy.Legacy object at 0x0538F1F0>,<openexp._canvas.legacy.Legacy object at 0x053C5C30>,75,SpatProbMultiple3.osexp,C:/Userdata/Michel/SpatProbMultiple3,no,mono,no,18,no,white,no,yes,0.09,98,1050,legacy,315,35,35,1,C:/Userdata/Michel/SpatProbMultiple3/beh/subject-12.csv,legacy,9,192,25,Kafkaesque Koffka,3.2.5,yes,598477b2b83f69022949e7e9,47,green,rectangular,green,circular,0,/,2362,space,5084,5084,"(80, 80, 80)","(0, 123, 0)","(177, 0, 0)","(155, 155, 155)",2,legacy,experiment,"[3, 4, 5, 6, 7, 0, 1, 2]",/,2500,3000,0,8,252.7587515,1024,2,48000,-16,main,"[(0, -252), (178, -178), (252, 0), (178, 178), (0, 252), (-178, 178), (-252, 0), (-178, -178)]",[],36,even,2,NA,205464,256107,256107,124634,123623,2260,137946,137946,2260,2260,129718,351669,2258,256107,349303,348375,348375,NA,919,study_X,0,5084,1,yes,1680
undefined,undefined,NA,NA,NA,5084,5084,black,no,legacy,legacy,legacy,0,green,"(0, 123, 0)",shape,present,lowProb3,rectangular,same,same,same,same,green,"(0, 123, 0)",lowProb,lowProb4,circular,uniform,1,undefined,0,0.1875,1,1,222.96875,1,36,42810,0,0,0,0,0,0,0,0,62,0,1,0.1875,222.96875,36,42810,61,61,61,11/27/2018 10:34,Default description,yes,<openexp._canvas.legacy.Legacy object at 0x054EC8D0>,<openexp._canvas.legacy.Legacy object at 0x0550DFB0>,<openexp._canvas.legacy.Legacy object at 0x054C9BD0>,<openexp._canvas.legacy.Legacy object at 0x0538A930>,<openexp._canvas.legacy.Legacy object at 0x0537A190>,<openexp._canvas.legacy.Legacy object at 0x054DF2B0>,<openexp._canvas.legacy.Legacy object at 0x0550D250>,<openexp._canvas.legacy.Legacy object at 0x053C5C30>,75,SpatProbMultiple3.osexp,C:/Userdata/Michel/SpatProbMultiple3,no,mono,no,18,no,white,no,yes,0.09,98,1050,legacy,315,36,36,1,C:/Userdata/Michel/SpatProbMultiple3/beh/subject-12.csv,legacy,9,192,25,Kafkaesque Koffka,3.2.5,yes,598477b2b83f69022949e7e9,47,green,rectangular,green,circular,0,/,1348,space,5084,5084,"(80, 80, 80)","(0, 123, 0)","(177, 0, 0)","(155, 155, 155)",2,legacy,experiment,"[3, 4, 5, 6, 7, 0, 1, 2]",/,2500,3000,0,8,252.7587515,1024,2,48000,-16,main,"[(0, -252), (178, -178), (252, 0), (178, 178), (0, 252), (-178, 178), (-252, 0), (-178, -178)]",[],36,even,0,NA,205464,256107,256107,124634,123623,2260,137946,137946,2260,2260,129718,354373,2258,256107,353021,352092,352093,NA,919,study_X,0,5084,1,yes,1680
undefined,undefined,NA,NA,NA,5084,5084,black,no,legacy,legacy,legacy,0,red,"(177, 0, 0)",shape,present,highProb,circular,swap,swap,swap,swap,red,"(177, 0, 0)",lowProb,lowProb3,rectangular,uniform,1,undefined,0,0.192708333,1,1,226.1354167,1,37,43418,0,0,0,0,0,0,0,0,63,0,1,0.192708333,226.1354167,37,43418,62,62,62,11/27/2018 10:34,Default description,yes,<openexp._canvas.legacy.Legacy object at 0x054EC8D0>,<openexp._canvas.legacy.Legacy object at 0x0550DFB0>,<openexp._canvas.legacy.Legacy object at 0x054C9BD0>,<openexp._canvas.legacy.Legacy object at 0x0538A930>,<openexp._canvas.legacy.Legacy object at 0x0537A190>,<openexp._canvas.legacy.Legacy object at 0x054DF2B0>,<openexp._canvas.legacy.Legacy object at 0x054F6C30>,<openexp._canvas.legacy.Legacy object at 0x053C5C30>,75,SpatProbMultiple3.osexp,C:/Userdata/Michel/SpatProbMultiple3,no,mono,no,18,no,white,no,yes,0.09,98,1050,legacy,45,37,37,1,C:/Userdata/Michel/SpatProbMultiple3/beh/subject-12.csv,legacy,9,192,25,Kafkaesque Koffka,3.2.5,yes,598477b2b83f69022949e7e9,47,red,circular,red,rectangular,0,\,608,space,5084,5084,"(80, 80, 80)","(0, 123, 0)","(177, 0, 0)","(155, 155, 155)",2,legacy,experiment,"[3, 4, 5, 6, 7, 0, 1, 2]",\,2500,3000,0,8,252.7587515,1024,2,48000,-16,main,"[(0, -252), (178, -178), (252, 0), (178, 178), (0, 252), (-178, 178), (-252, 0), (-178, -178)]",[],36,even,6,NA,205464,256107,256107,124634,123623,2260,137946,137946,2260,2260,129718,356332,2258,256107,355722,354795,354795,NA,919,study_X,0,5084,1,yes,1680
undefined,undefined,NA,NA,NA,5084,5084,black,no,legacy,legacy,legacy,0,green,"(0, 123, 0)",color,present,highProb,circular,swap,same,same,swap,red,"(177, 0, 0)",lowProb,lowProb4,circular,uniform,1,undefined,0,0.197916667,1,1,235.34375,1,38,45186,0,0,0,0,0,0,0,0,64,0,1,0.197916667,235.34375,38,45186,63,63,63,11/27/2018 10:34,Default description,yes,<openexp._canvas.legacy.Legacy object at 0x054EC8D0>,<openexp._canvas.legacy.Legacy object at 0x0550DFB0>,<openexp._canvas.legacy.Legacy object at 0x054C9BD0>,<openexp._canvas.legacy.Legacy object at 0x0538A930>,<openexp._canvas.legacy.Legacy object at 0x0537A190>,<openexp._canvas.legacy.Legacy object at 0x054DF2B0>,<openexp._canvas.legacy.Legacy object at 0x0553DB50>,<openexp._canvas.legacy.Legacy object at 0x053C5C30>,75,SpatProbMultiple3.osexp,C:/Userdata/Michel/SpatProbMultiple3,no,mono,no,18,no,white,no,yes,0.09,98,1050,legacy,315,38,38,1,C:/Userdata/Michel/SpatProbMultiple3/beh/subject-12.csv,legacy,9,192,25,Kafkaesque Koffka,3.2.5,yes,598477b2b83f69022949e7e9,47,green,circular,red,circular,0,/,1768,space,5084,5084,"(80, 80, 80)","(0, 123, 0)","(177, 0, 0)","(155, 155, 155)",2,legacy,experiment,"[3, 4, 5, 6, 7, 0, 1, 2]",/,2500,3000,0,8,252.7587515,1024,2,48000,-16,main,"[(0, -252), (178, -178), (252, 0), (178, 178), (0, 252), (-178, 178), (-252, 0), (-178, -178)]",[],36,even,0,NA,205464,256107,256107,124634,123623,2260,137946,137946,2260,2260,129718,359460,2258,256107,357689,356761,356761,NA,919,study_X,0,5084,1,yes,1680
undefined,undefined,NA,NA,NA,5084,5084,black,no,legacy,legacy,legacy,0,red,"(177, 0, 0)",shape,present,highProb,circular,swap,same,same,swap,red,"(177, 0, 0)",lowProb,lowProb4,rectangular,uniform,1,undefined,0,0.203125,1,1,238.5625,1,39,45804,0,0,0,0,0,0,0,0,65,0,1,0.203125,238.5625,39,45804,64,64,64,11/27/2018 10:34,Default description,yes,<openexp._canvas.legacy.Legacy object at 0x054EC8D0>,<openexp._canvas.legacy.Legacy object at 0x0550DFB0>,<openexp._canvas.legacy.Legacy object at 0x054C9BD0>,<openexp._canvas.legacy.Legacy object at 0x0538A930>,<openexp._canvas.legacy.Legacy object at 0x0537A190>,<openexp._canvas.legacy.Legacy object at 0x054DF2B0>,<openexp._canvas.legacy.Legacy object at 0x0550DDD0>,<openexp._canvas.legacy.Legacy object at 0x053C5C30>,75,SpatProbMultiple3.osexp,C:/Userdata/Michel/SpatProbMultiple3,no,mono,no,18,no,white,no,yes,0.09,98,1050,legacy,315,39,39,1,C:/Userdata/Michel/SpatProbMultiple3/beh/subject-12.csv,legacy,9,192,25,Kafkaesque Koffka,3.2.5,yes,598477b2b83f69022949e7e9,47,red,circular,red,rectangular,0,/,618,space,5084,5084,"(80, 80, 80)","(0, 123, 0)","(177, 0, 0)","(155, 155, 155)",2,legacy,experiment,"[3, 4, 5, 6, 7, 0, 1, 2]",/,2500,3000,0,8,252.7587515,1024,2,48000,-16,main,"[(0, -252), (178, -178), (252, 0), (178, 178), (0, 252), (-178, 178), (-252, 0), (-178, -178)]",[],36,even,0,NA,205464,256107,256107,124634,123623,2260,137946,137946,2260,2260,129718,361429,2258,256107,360808,359879,359879,NA,919,study_X,0,5084,1,yes,1680
undefined,undefined,NA,NA,NA,5084,5084,black,no,legacy,legacy,legacy,0,green,"(0, 123, 0)",color,present,highProb,rectangular,swap,swap,same,same,red,"(177, 0, 0)",lowProb,lowProb3,rectangular,uniform,1,undefined,0,0.208333333,1,1,244.0208333,1,40,46852,0,0,0,0,0,0,0,0,66,0,1,0.208333333,244.0208333,40,46852,65,65,65,11/27/2018 10:34,Default description,yes,<openexp._canvas.legacy.Legacy object at 0x054EC8D0>,<openexp._canvas.legacy.Legacy object at 0x0550DFB0>,<openexp._canvas.legacy.Legacy object at 0x054C9BD0>,<openexp._canvas.legacy.Legacy object at 0x0538A930>,<openexp._canvas.legacy.Legacy object at 0x0537A190>,<openexp._canvas.legacy.Legacy object at 0x054DF2B0>,<openexp._canvas.legacy.Legacy object at 0x054E7F30>,<openexp._canvas.legacy.Legacy object at 0x053C5C30>,75,SpatProbMultiple3.osexp,C:/Userdata/Michel/SpatProbMultiple3,no,mono,no,18,no,white,no,yes,0.09,98,1050,legacy,315,40,40,1,C:/Userdata/Michel/SpatProbMultiple3/beh/subject-12.csv,legacy,9,192,25,Kafkaesque Koffka,3.2.5,yes,598477b2b83f69022949e7e9,47,green,rectangular,red,rectangular,0,/,1048,space,5084,5084,"(80, 80, 80)","(0, 123, 0)","(177, 0, 0)","(155, 155, 155)",2,legacy,experiment,"[3, 4, 5, 6, 7, 0, 1, 2]",/,2500,3000,0,8,252.7587515,1024,2,48000,-16,main,"[(0, -252), (178, -178), (252, 0), (178, 178), (0, 252), (-178, 178), (-252, 0), (-178, -178)]",[],36,even,6,NA,205464,256107,256107,124634,123623,2260,137946,137946,2260,2260,129718,363821,2258,256107,362770,361842,361842,NA,919,study_X,0,5084,1,yes,1680
undefined,undefined,NA,NA,NA,5084,5084,black,no,legacy,legacy,legacy,0,red,"(177, 0, 0)",color,absent,lowProb4,circular,swap,swap,same,swap,red,"(177, 0, 0)",lowProb,lowProb4,circular,uniform,1,undefined,0,0.213541667,1,1,249.5677083,1,41,47917,0,0,0,0,0,0,0,0,67,0,1,0.213541667,249.5677083,41,47917,66,66,66,11/27/2018 10:34,Default description,yes,<openexp._canvas.legacy.Legacy object at 0x054EC8D0>,<openexp._canvas.legacy.Legacy object at 0x0550DFB0>,<openexp._canvas.legacy.Legacy object at 0x054C9BD0>,<openexp._canvas.legacy.Legacy object at 0x0538A930>,<openexp._canvas.legacy.Legacy object at 0x0537A190>,<openexp._canvas.legacy.Legacy object at 0x054DF2B0>,<openexp._canvas.legacy.Legacy object at 0x05512590>,<openexp._canvas.legacy.Legacy object at 0x053C5C30>,75,SpatProbMultiple3.osexp,C:/Userdata/Michel/SpatProbMultiple3,no,mono,no,18,no,white,no,yes,0.09,98,1050,legacy,45,41,41,1,C:/Userdata/Michel/SpatProbMultiple3/beh/subject-12.csv,legacy,9,192,25,Kafkaesque Koffka,3.2.5,yes,598477b2b83f69022949e7e9,47,red,circular,red,circular,0,\,1065,space,5084,5084,"(80, 80, 80)","(0, 123, 0)","(177, 0, 0)","(155, 155, 155)",2,legacy,experiment,"[3, 4, 5, 6, 7, 0, 1, 2]",\,2500,3000,0,8,252.7587515,1024,2,48000,-16,main,"[(0, -252), (178, -178), (252, 0), (178, 178), (0, 252), (-178, 178), (-252, 0), (-178, -178)]",[],36,even,0,NA,205464,256107,256107,124634,123623,2260,137946,137946,2260,2260,129718,366245,2258,256107,365176,364247,364247,NA,919,study_X,0,5084,1,yes,1680
undefined,undefined,NA,NA,NA,5084,5084,black,no,legacy,legacy,legacy,0,green,"(0, 123, 0)",color,present,highProb,rectangular,swap,swap,same,swap,red,"(177, 0, 0)",lowProb,lowProb5,rectangular,uniform,1,undefined,0,0.21875,1,1,256.4427083,1,42,49237,0,0,0,0,0,0,0,0,68,0,1,0.21875,256.4427083,42,49237,67,67,67,11/27/2018 10:34,Default description,yes,<openexp._canvas.legacy.Legacy object at 0x054EC8D0>,<openexp._canvas.legacy.Legacy object at 0x0550DFB0>,<openexp._canvas.legacy.Legacy object at 0x054C9BD0>,<openexp._canvas.legacy.Legacy object at 0x0538A930>,<openexp._canvas.legacy.Legacy object at 0x0537A190>,<openexp._canvas.legacy.Legacy object at 0x054DF2B0>,<openexp._canvas.legacy.Legacy object at 0x0553D250>,<openexp._canvas.legacy.Legacy object at 0x053C5C30>,75,SpatProbMultiple3.osexp,C:/Userdata/Michel/SpatProbMultiple3,no,mono,no,18,no,white,no,yes,0.09,98,1050,legacy,315,42,42,1,C:/Userdata/Michel/SpatProbMultiple3/beh/subject-12.csv,legacy,9,192,25,Kafkaesque Koffka,3.2.5,yes,598477b2b83f69022949e7e9,47,green,rectangular,red,rectangular,0,/,1320,space,5084,5084,"(80, 80, 80)","(0, 123, 0)","(177, 0, 0)","(155, 155, 155)",2,legacy,experiment,"[3, 4, 5, 6, 7, 0, 1, 2]",/,2500,3000,0,8,252.7587515,1024,2,48000,-16,main,"[(0, -252), (178, -178), (252, 0), (178, 178), (0, 252), (-178, 178), (-252, 0), (-178, -178)]",[],36,even,1,NA,205464,256107,256107,124634,123623,2260,137946,137946,2260,2260,129718,368941,2258,256107,367618,366689,366689,NA,919,study_X,0,5084,1,yes,1680
undefined,undefined,NA,NA,NA,5084,5084,black,no,legacy,legacy,legacy,0,red,"(177, 0, 0)",color,present,highProb,rectangular,swap,same,swap,same,green,"(0, 123, 0)",lowProb,lowProb6,rectangular,uniform,1,undefined,0,0.223958333,1,1,262.6927083,1,43,50437,0,0,0,0,0,0,0,0,69,0,1,0.223958333,262.6927083,43,50437,68,68,68,11/27/2018 10:34,Default description,yes,<openexp._canvas.legacy.Legacy object at 0x054EC8D0>,<openexp._canvas.legacy.Legacy object at 0x0550DFB0>,<openexp._canvas.legacy.Legacy object at 0x054C9BD0>,<openexp._canvas.legacy.Legacy object at 0x0538A930>,<openexp._canvas.legacy.Legacy object at 0x0537A190>,<openexp._canvas.legacy.Legacy object at 0x054DF2B0>,<openexp._canvas.legacy.Legacy object at 0x055375D0>,<openexp._canvas.legacy.Legacy object at 0x053C5C30>,75,SpatProbMultiple3.osexp,C:/Userdata/Michel/SpatProbMultiple3,no,mono,no,18,no,white,no,yes,0.09,98,1050,legacy,45,43,43,1,C:/Userdata/Michel/SpatProbMultiple3/beh/subject-12.csv,legacy,9,192,25,Kafkaesque Koffka,3.2.5,yes,598477b2b83f69022949e7e9,47,red,rectangular,green,rectangular,0,\,1200,space,5084,5084,"(80, 80, 80)","(0, 123, 0)","(177, 0, 0)","(155, 155, 155)",2,legacy,experiment,"[3, 4, 5, 6, 7, 0, 1, 2]",\,2500,3000,0,8,252.7587515,1024,2,48000,-16,main,"[(0, -252), (178, -178), (252, 0), (178, 178), (0, 252), (-178, 178), (-252, 0), (-178, -178)]",[],36,even,2,NA,205464,256107,256107,124634,123623,2260,137946,137946,2260,2260,129718,371492,2258,256107,370290,369361,369361,NA,919,study_X,0,5084,1,yes,1680
undefined,undefined,NA,NA,NA,5084,5084,black,no,legacy,legacy,legacy,0,green,"(0, 123, 0)",shape,present,highProb,circular,swap,swap,same,same,green,"(0, 123, 0)",lowProb,lowProb6,rectangular,uniform,1,undefined,0,0.229166667,1,1,269.1145833,1,44,51670,0,0,0,0,0,0,0,0,70,0,1,0.229166667,269.1145833,44,51670,69,69,69,11/27/2018 10:34,Default description,yes,<openexp._canvas.legacy.Legacy object at 0x054EC8D0>,<openexp._canvas.legacy.Legacy object at 0x0550DFB0>,<openexp._canvas.legacy.Legacy object at 0x054C9BD0>,<openexp._canvas.legacy.Legacy object at 0x0538A930>,<openexp._canvas.legacy.Legacy object at 0x0537A190>,<openexp._canvas.legacy.Legacy object at 0x054DF2B0>,<openexp._canvas.legacy.Legacy object at 0x0550D970>,<openexp._canvas.legacy.Legacy object at 0x053C5C30>,75,SpatProbMultiple3.osexp,C:/Userdata/Michel/SpatProbMultiple3,no,mono,no,18,no,white,no,yes,0.09,98,1050,legacy,315,44,44,1,C:/Userdata/Michel/SpatProbMultiple3/beh/subject-12.csv,legacy,9,192,25,Kafkaesque Koffka,3.2.5,yes,598477b2b83f69022949e7e9,47,green,circular,green,rectangular,0,/,1233,space,5084,5084,"(80, 80, 80)","(0, 123, 0)","(177, 0, 0)","(155, 155, 155)",2,legacy,experiment,"[3, 4, 5, 6, 7, 0, 1, 2]",/,2500,3000,0,8,252.7587515,1024,2,48000,-16,main,"[(0, -252), (178, -178), (252, 0), (178, 178), (0, 252), (-178, 178), (-252, 0), (-178, -178)]",[],36,even,2,NA,205464,256107,256107,124634,123623,2260,137946,137946,2260,2260,129718,374076,2258,256107,372841,371913,371913,NA,919,study_X,0,5084,1,yes,1680
undefined,undefined,NA,NA,NA,5084,5084,black,no,legacy,legacy,legacy,0,red,"(177, 0, 0)",color,present,highProb,rectangular,swap,swap,same,same,green,"(0, 123, 0)",lowProb,lowProb3,rectangular,uniform,1,undefined,0,0.234375,1,1,273.4895833,1,45,52510,0,0,0,0,0,0,0,0,71,0,1,0.234375,273.4895833,45,52510,70,70,70,11/27/2018 10:34,Default description,yes,<openexp._canvas.legacy.Legacy object at 0x054EC8D0>,<openexp._canvas.legacy.Legacy object at 0x0550DFB0>,<openexp._canvas.legacy.Legacy object at 0x054C9BD0>,<openexp._canvas.legacy.Legacy object at 0x0538A930>,<openexp._canvas.legacy.Legacy object at 0x0537A190>,<openexp._canvas.legacy.Legacy object at 0x054DF2B0>,<openexp._canvas.legacy.Legacy object at 0x054F6090>,<openexp._canvas.legacy.Legacy object at 0x053C5C30>,75,SpatProbMultiple3.osexp,C:/Userdata/Michel/SpatProbMultiple3,no,mono,no,18,no,white,no,yes,0.09,98,1050,legacy,315,45,45,1,C:/Userdata/Michel/SpatProbMultiple3/beh/subject-12.csv,legacy,9,192,25,Kafkaesque Koffka,3.2.5,yes,598477b2b83f69022949e7e9,47,red,rectangular,green,rectangular,0,/,840,space,5084,5084,"(80, 80, 80)","(0, 123, 0)","(177, 0, 0)","(155, 155, 155)",2,legacy,experiment,"[3, 4, 5, 6, 7, 0, 1, 2]",/,2500,3000,0,8,252.7587515,1024,2,48000,-16,main,"[(0, -252), (178, -178), (252, 0), (178, 178), (0, 252), (-178, 178), (-252, 0), (-178, -178)]",[],36,even,6,NA,205464,256107,256107,124634,123623,2260,137946,137946,2260,2260,129718,376268,2258,256107,375426,374498,374498,NA,919,study_X,0,5084,1,yes,1680
undefined,undefined,NA,NA,NA,5084,5084,black,no,legacy,legacy,legacy,0,green,"(0, 123, 0)",shape,present,highProb,circular,swap,swap,same,same,green,"(0, 123, 0)",lowProb,lowProb3,rectangular,uniform,1,undefined,0,0.239583333,1,1,279.2916667,1,46,53624,0,0,0,0,0,0,0,0,72,0,1,0.239583333,279.2916667,46,53624,71,71,71,11/27/2018 10:34,Default description,yes,<openexp._canvas.legacy.Legacy object at 0x054EC8D0>,<openexp._canvas.legacy.Legacy object at 0x0550DFB0>,<openexp._canvas.legacy.Legacy object at 0x054C9BD0>,<openexp._canvas.legacy.Legacy object at 0x0538A930>,<openexp._canvas.legacy.Legacy object at 0x0537A190>,<openexp._canvas.legacy.Legacy object at 0x054DF2B0>,<openexp._canvas.legacy.Legacy object at 0x05512A90>,<openexp._canvas.legacy.Legacy object at 0x053C5C30>,75,SpatProbMultiple3.osexp,C:/Userdata/Michel/SpatProbMultiple3,no,mono,no,18,no,white,no,yes,0.09,98,1050,legacy,315,46,46,1,C:/Userdata/Michel/SpatProbMultiple3/beh/subject-12.csv,legacy,9,192,25,Kafkaesque Koffka,3.2.5,yes,598477b2b83f69022949e7e9,47,green,circular,green,rectangular,0,/,1114,space,5084,5084,"(80, 80, 80)","(0, 123, 0)","(177, 0, 0)","(155, 155, 155)",2,legacy,experiment,"[3, 4, 5, 6, 7, 0, 1, 2]",/,2500,3000,0,8,252.7587515,1024,2,48000,-16,main,"[(0, -252), (178, -178), (252, 0), (178, 178), (0, 252), (-178, 178), (-252, 0), (-178, -178)]",[],36,even,6,NA,205464,256107,256107,124634,123623,2260,137946,137946,2260,2260,129718,378757,2258,256107,377641,376713,376713,NA,919,study_X,0,5084,1,yes,1680
undefined,undefined,NA,NA,NA,5084,5084,black,no,legacy,legacy,legacy,0,green,"(0, 123, 0)",color,absent,highProb,rectangular,same,swap,same,same,green,"(0, 123, 0)",lowProb,lowProb4,rectangular,uniform,1,undefined,0,0.244791667,1,1,284.46875,1,47,54618,0,0,0,0,0,0,0,0,73,0,1,0.244791667,284.46875,47,54618,72,72,72,11/27/2018 10:34,Default description,yes,<openexp._canvas.legacy.Legacy object at 0x054EC8D0>,<openexp._canvas.legacy.Legacy object at 0x0550DFB0>,<openexp._canvas.legacy.Legacy object at 0x054C9BD0>,<openexp._canvas.legacy.Legacy object at 0x0538A930>,<openexp._canvas.legacy.Legacy object at 0x0537A190>,<openexp._canvas.legacy.Legacy object at 0x054DF2B0>,<openexp._canvas.legacy.Legacy object at 0x0538F1F0>,<openexp._canvas.legacy.Legacy object at 0x053C5C30>,75,SpatProbMultiple3.osexp,C:/Userdata/Michel/SpatProbMultiple3,no,mono,no,18,no,white,no,yes,0.09,98,1050,legacy,315,47,47,1,C:/Userdata/Michel/SpatProbMultiple3/beh/subject-12.csv,legacy,9,192,25,Kafkaesque Koffka,3.2.5,yes,598477b2b83f69022949e7e9,47,green,rectangular,green,rectangular,0,/,994,space,5084,5084,"(80, 80, 80)","(0, 123, 0)","(177, 0, 0)","(155, 155, 155)",2,legacy,experiment,"[3, 4, 5, 6, 7, 0, 1, 2]",/,2500,3000,0,8,252.7587515,1024,2,48000,-16,main,"[(0, -252), (178, -178), (252, 0), (178, 178), (0, 252), (-178, 178), (-252, 0), (-178, -178)]",[],36,even,0,NA,205464,256107,256107,124634,123623,2260,137946,137946,2260,2260,129718,381101,2258,256107,380103,379175,379175,NA,919,study_X,0,5084,1,yes,1680
undefined,undefined,NA,NA,NA,5084,5084,black,no,legacy,legacy,legacy,0,red,"(177, 0, 0)",shape,present,highProb,circular,swap,swap,swap,same,red,"(177, 0, 0)",lowProb,lowProb3,rectangular,uniform,1,undefined,0,0.25,1,1,290.9583333,1,48,55864,0,0,0,0,0,0,0,0,74,0,1,0.25,290.9583333,48,55864,73,73,73,11/27/2018 10:34,Default description,yes,<openexp._canvas.legacy.Legacy object at 0x054EC8D0>,<openexp._canvas.legacy.Legacy object at 0x0550DFB0>,<openexp._canvas.legacy.Legacy object at 0x054C9BD0>,<openexp._canvas.legacy.Legacy object at 0x0538A930>,<openexp._canvas.legacy.Legacy object at 0x0537A190>,<openexp._canvas.legacy.Legacy object at 0x054DF2B0>,<openexp._canvas.legacy.Legacy object at 0x0538F350>,<openexp._canvas.legacy.Legacy object at 0x053C5C30>,75,SpatProbMultiple3.osexp,C:/Userdata/Michel/SpatProbMultiple3,no,mono,no,18,no,white,no,yes,0.09,98,1050,legacy,45,48,48,1,C:/Userdata/Michel/SpatProbMultiple3/beh/subject-12.csv,legacy,9,192,25,Kafkaesque Koffka,3.2.5,yes,598477b2b83f69022949e7e9,47,red,circular,red,rectangular,0,\,1246,space,5084,5084,"(80, 80, 80)","(0, 123, 0)","(177, 0, 0)","(155, 155, 155)",2,legacy,experiment,"[3, 4, 5, 6, 7, 0, 1, 2]",\,2500,3000,0,8,252.7587515,1024,2,48000,-16,main,"[(0, -252), (178, -178), (252, 0), (178, 178), (0, 252), (-178, 178), (-252, 0), (-178, -178)]",[],36,even,6,NA,205464,256107,256107,124634,123623,2260,137946,137946,2260,2260,129718,383693,2258,256107,382444,381516,381516,NA,919,study_X,0,5084,1,yes,1680
undefined,undefined,NA,NA,NA,5084,5084,black,no,legacy,legacy,legacy,0,green,"(0, 123, 0)",shape,present,highProb,circular,swap,same,swap,same,green,"(0, 123, 0)",lowProb,lowProb4,rectangular,uniform,1,undefined,0,0.255208333,1,1,297.8958333,1,49,57196,0,0,0,0,0,0,0,0,75,0,1,0.255208333,297.8958333,49,57196,74,74,74,11/27/2018 10:34,Default description,yes,<openexp._canvas.legacy.Legacy object at 0x054EC8D0>,<openexp._canvas.legacy.Legacy object at 0x0550DFB0>,<openexp._canvas.legacy.Legacy object at 0x054C9BD0>,<openexp._canvas.legacy.Legacy object at 0x0538A930>,<openexp._canvas.legacy.Legacy object at 0x0537A190>,<openexp._canvas.legacy.Legacy object at 0x054DF2B0>,<openexp._canvas.legacy.Legacy object at 0x05512CF0>,<openexp._canvas.legacy.Legacy object at 0x053C5C30>,75,SpatProbMultiple3.osexp,C:/Userdata/Michel/SpatProbMultiple3,no,mono,no,18,no,white,no,yes,0.09,98,1050,legacy,45,49,49,1,C:/Userdata/Michel/SpatProbMultiple3/beh/subject-12.csv,legacy,9,192,25,Kafkaesque Koffka,3.2.5,yes,598477b2b83f69022949e7e9,47,green,circular,green,rectangular,0,\,1332,space,5084,5084,"(80, 80, 80)","(0, 123, 0)","(177, 0, 0)","(155, 155, 155)",2,legacy,experiment,"[3, 4, 5, 6, 7, 0, 1, 2]",\,2500,3000,0,8,252.7587515,1024,2,48000,-16,main,"[(0, -252), (178, -178), (252, 0), (178, 178), (0, 252), (-178, 178), (-252, 0), (-178, -178)]",[],36,even,0,NA,205464,256107,256107,124634,123623,2260,137946,137946,2260,2260,129718,386373,2258,256107,385038,384109,384109,NA,919,study_X,0,5084,1,yes,1680
undefined,undefined,NA,NA,NA,5084,5084,black,no,legacy,legacy,legacy,0,green,"(0, 123, 0)",shape,present,highProb,rectangular,same,swap,same,swap,green,"(0, 123, 0)",lowProb,lowProb4,circular,uniform,1,undefined,0,0.260416667,1,1,303.1770833,1,50,58210,0,0,0,0,0,0,0,0,76,0,1,0.260416667,303.1770833,50,58210,75,75,75,11/27/2018 10:34,Default description,yes,<openexp._canvas.legacy.Legacy object at 0x054EC8D0>,<openexp._canvas.legacy.Legacy object at 0x0550DFB0>,<openexp._canvas.legacy.Legacy object at 0x054C9BD0>,<openexp._canvas.legacy.Legacy object at 0x0538A930>,<openexp._canvas.legacy.Legacy object at 0x0537A190>,<openexp._canvas.legacy.Legacy object at 0x054DF2B0>,<openexp._canvas.legacy.Legacy object at 0x05512AB0>,<openexp._canvas.legacy.Legacy object at 0x053C5C30>,75,SpatProbMultiple3.osexp,C:/Userdata/Michel/SpatProbMultiple3,no,mono,no,18,no,white,no,yes,0.09,98,1050,legacy,45,50,50,1,C:/Userdata/Michel/SpatProbMultiple3/beh/subject-12.csv,legacy,9,192,25,Kafkaesque Koffka,3.2.5,yes,598477b2b83f69022949e7e9,47,green,rectangular,green,circular,0,\,1014,space,5084,5084,"(80, 80, 80)","(0, 123, 0)","(177, 0, 0)","(155, 155, 155)",2,legacy,experiment,"[3, 4, 5, 6, 7, 0, 1, 2]",\,2500,3000,0,8,252.7587515,1024,2,48000,-16,main,"[(0, -252), (178, -178), (252, 0), (178, 178), (0, 252), (-178, 178), (-252, 0), (-178, -178)]",[],36,even,0,NA,205464,256107,256107,124634,123623,2260,137946,137946,2260,2260,129718,388748,2258,256107,387731,386802,386803,NA,919,study_X,0,5084,1,yes,1680
undefined,undefined,NA,NA,NA,5084,5084,black,no,legacy,legacy,legacy,0,red,"(177, 0, 0)",shape,present,highProb,rectangular,swap,same,swap,same,red,"(177, 0, 0)",highProbColor,highProbColor,circular,uniform,1,undefined,0,0.265625,1,1,307.4010417,1,51,59021,0,0,0,0,0,0,0,0,77,0,1,0.265625,307.4010417,51,59021,76,76,76,11/27/2018 10:34,Default description,yes,<openexp._canvas.legacy.Legacy object at 0x054EC8D0>,<openexp._canvas.legacy.Legacy object at 0x0550DFB0>,<openexp._canvas.legacy.Legacy object at 0x054C9BD0>,<openexp._canvas.legacy.Legacy object at 0x0538A930>,<openexp._canvas.legacy.Legacy object at 0x0537A190>,<openexp._canvas.legacy.Legacy object at 0x054DF2B0>,<openexp._canvas.legacy.Legacy object at 0x0553D530>,<openexp._canvas.legacy.Legacy object at 0x053C5C30>,75,SpatProbMultiple3.osexp,C:/Userdata/Michel/SpatProbMultiple3,no,mono,no,18,no,white,no,yes,0.09,98,1050,legacy,45,51,51,1,C:/Userdata/Michel/SpatProbMultiple3/beh/subject-12.csv,legacy,9,192,25,Kafkaesque Koffka,3.2.5,yes,598477b2b83f69022949e7e9,47,red,rectangular,red,circular,0,\,811,space,5084,5084,"(80, 80, 80)","(0, 123, 0)","(177, 0, 0)","(155, 155, 155)",2,legacy,experiment,"[3, 4, 5, 6, 7, 0, 1, 2]",\,2500,3000,0,8,252.7587515,1024,2,48000,-16,main,"[(0, -252), (178, -178), (252, 0), (178, 178), (0, 252), (-178, 178), (-252, 0), (-178, -178)]",[],36,even,3,NA,205464,256107,256107,124634,123623,2260,137946,137946,2260,2260,129718,390916,2258,256107,390102,389174,389174,NA,919,study_X,0,5084,1,yes,1680
undefined,undefined,NA,NA,NA,5084,5084,black,no,legacy,legacy,legacy,0,red,"(177, 0, 0)",color,present,highProb,circular,same,swap,swap,same,green,"(0, 123, 0)",lowProb,lowProb1,circular,uniform,1,undefined,0,0.270833333,1,1,316.7708333,1,52,60820,0,0,0,0,0,0,0,0,78,0,1,0.270833333,316.7708333,52,60820,77,77,77,11/27/2018 10:34,Default description,yes,<openexp._canvas.legacy.Legacy object at 0x054EC8D0>,<openexp._canvas.legacy.Legacy object at 0x0550DFB0>,<openexp._canvas.legacy.Legacy object at 0x054C9BD0>,<openexp._canvas.legacy.Legacy object at 0x0538A930>,<openexp._canvas.legacy.Legacy object at 0x0537A190>,<openexp._canvas.legacy.Legacy object at 0x054DF2B0>,<openexp._canvas.legacy.Legacy object at 0x0553D930>,<openexp._canvas.legacy.Legacy object at 0x053C5C30>,75,SpatProbMultiple3.osexp,C:/Userdata/Michel/SpatProbMultiple3,no,mono,no,18,no,white,no,yes,0.09,98,1050,legacy,315,52,52,1,C:/Userdata/Michel/SpatProbMultiple3/beh/subject-12.csv,legacy,9,192,25,Kafkaesque Koffka,3.2.5,yes,598477b2b83f69022949e7e9,47,red,circular,green,circular,0,/,1799,space,5084,5084,"(80, 80, 80)","(0, 123, 0)","(177, 0, 0)","(155, 155, 155)",2,legacy,experiment,"[3, 4, 5, 6, 7, 0, 1, 2]",/,2500,3000,0,8,252.7587515,1024,2,48000,-16,main,"[(0, -252), (178, -178), (252, 0), (178, 178), (0, 252), (-178, 178), (-252, 0), (-178, -178)]",[],36,even,4,NA,205464,256107,256107,124634,123623,2260,137946,137946,2260,2260,129718,394076,2258,256107,392274,391345,391345,NA,919,study_X,0,5084,1,yes,1680
undefined,undefined,NA,NA,NA,5084,5084,black,no,legacy,legacy,legacy,0,green,"(0, 123, 0)",color,present,lowProb1,rectangular,swap,swap,swap,swap,red,"(177, 0, 0)",lowProb,lowProb3,rectangular,uniform,1,undefined,0,0.276041667,1,1,323.8958333,1,53,62188,0,0,0,0,0,0,0,0,79,0,1,0.276041667,323.8958333,53,62188,78,78,78,11/27/2018 10:34,Default description,yes,<openexp._canvas.legacy.Legacy object at 0x054EC8D0>,<openexp._canvas.legacy.Legacy object at 0x0550DFB0>,<openexp._canvas.legacy.Legacy object at 0x054C9BD0>,<openexp._canvas.legacy.Legacy object at 0x0538A930>,<openexp._canvas.legacy.Legacy object at 0x0537A190>,<openexp._canvas.legacy.Legacy object at 0x054DF2B0>,<openexp._canvas.legacy.Legacy object at 0x055122D0>,<openexp._canvas.legacy.Legacy object at 0x053C5C30>,75,SpatProbMultiple3.osexp,C:/Userdata/Michel/SpatProbMultiple3,no,mono,no,18,no,white,no,yes,0.09,98,1050,legacy,45,53,53,1,C:/Userdata/Michel/SpatProbMultiple3/beh/subject-12.csv,legacy,9,192,25,Kafkaesque Koffka,3.2.5,yes,598477b2b83f69022949e7e9,47,green,rectangular,red,rectangular,0,\,1368,space,5084,5084,"(80, 80, 80)","(0, 123, 0)","(177, 0, 0)","(155, 155, 155)",2,legacy,experiment,"[3, 4, 5, 6, 7, 0, 1, 2]",\,2500,3000,0,8,252.7587515,1024,2,48000,-16,main,"[(0, -252), (178, -178), (252, 0), (178, 178), (0, 252), (-178, 178), (-252, 0), (-178, -178)]",[],36,even,6,NA,205464,256107,256107,124634,123623,2260,137946,137946,2260,2260,129718,396797,2258,256107,395425,394496,394496,NA,919,study_X,0,5084,1,yes,1680
undefined,undefined,NA,NA,NA,5084,5084,black,no,legacy,legacy,legacy,0,red,"(177, 0, 0)",shape,present,highProb,rectangular,swap,same,same,swap,red,"(177, 0, 0)",lowProb,lowProb4,circular,uniform,1,undefined,0,0.28125,1,1,330.8802083,1,54,63529,0,0,0,0,0,0,0,0,80,0,1,0.28125,330.8802083,54,63529,79,79,79,11/27/2018 10:34,Default description,yes,<openexp._canvas.legacy.Legacy object at 0x054EC8D0>,<openexp._canvas.legacy.Legacy object at 0x0550DFB0>,<openexp._canvas.legacy.Legacy object at 0x054C9BD0>,<openexp._canvas.legacy.Legacy object at 0x0538A930>,<openexp._canvas.legacy.Legacy object at 0x0537A190>,<openexp._canvas.legacy.Legacy object at 0x054DF2B0>,<openexp._canvas.legacy.Legacy object at 0x0550D590>,<openexp._canvas.legacy.Legacy object at 0x053C5C30>,75,SpatProbMultiple3.osexp,C:/Userdata/Michel/SpatProbMultiple3,no,mono,no,18,no,white,no,yes,0.09,98,1050,legacy,315,54,54,1,C:/Userdata/Michel/SpatProbMultiple3/beh/subject-12.csv,legacy,9,192,25,Kafkaesque Koffka,3.2.5,yes,598477b2b83f69022949e7e9,47,red,rectangular,red,circular,0,/,1341,space,5084,5084,"(80, 80, 80)","(0, 123, 0)","(177, 0, 0)","(155, 155, 155)",2,legacy,experiment,"[3, 4, 5, 6, 7, 0, 1, 2]",/,2500,3000,0,8,252.7587515,1024,2,48000,-16,main,"[(0, -252), (178, -178), (252, 0), (178, 178), (0, 252), (-178, 178), (-252, 0), (-178, -178)]",[],36,even,0,NA,205464,256107,256107,124634,123623,2260,137946,137946,2260,2260,129718,399493,2258,256107,398148,397219,397219,NA,919,study_X,0,5084,1,yes,1680
undefined,undefined,NA,NA,NA,5084,5084,black,no,legacy,legacy,legacy,0,red,"(177, 0, 0)",color,present,lowProb1,rectangular,same,same,swap,swap,green,"(0, 123, 0)",lowProb,lowProb6,rectangular,uniform,1,undefined,0,0.286458333,1,1,338.5260417,1,55,64997,0,0,0,0,0,0,0,0,81,0,1,0.286458333,338.5260417,55,64997,80,80,80,11/27/2018 10:34,Default description,yes,<openexp._canvas.legacy.Legacy object at 0x054EC8D0>,<openexp._canvas.legacy.Legacy object at 0x0550DFB0>,<openexp._canvas.legacy.Legacy object at 0x054C9BD0>,<openexp._canvas.legacy.Legacy object at 0x0538A930>,<openexp._canvas.legacy.Legacy object at 0x0537A190>,<openexp._canvas.legacy.Legacy object at 0x054DF2B0>,<openexp._canvas.legacy.Legacy object at 0x05502DF0>,<openexp._canvas.legacy.Legacy object at 0x053C5C30>,75,SpatProbMultiple3.osexp,C:/Userdata/Michel/SpatProbMultiple3,no,mono,no,18,no,white,no,yes,0.09,98,1050,legacy,45,55,55,1,C:/Userdata/Michel/SpatProbMultiple3/beh/subject-12.csv,legacy,9,192,25,Kafkaesque Koffka,3.2.5,yes,598477b2b83f69022949e7e9,47,red,rectangular,green,rectangular,0,\,1468,space,5084,5084,"(80, 80, 80)","(0, 123, 0)","(177, 0, 0)","(155, 155, 155)",2,legacy,experiment,"[3, 4, 5, 6, 7, 0, 1, 2]",\,2500,3000,0,8,252.7587515,1024,2,48000,-16,main,"[(0, -252), (178, -178), (252, 0), (178, 178), (0, 252), (-178, 178), (-252, 0), (-178, -178)]",[],36,even,2,NA,205464,256107,256107,124634,123623,2260,137946,137946,2260,2260,129718,402316,2258,256107,400846,399917,399917,NA,919,study_X,0,5084,1,yes,1680
undefined,undefined,NA,NA,NA,5084,5084,black,no,legacy,legacy,legacy,0,green,"(0, 123, 0)",color,present,highProb,rectangular,swap,same,swap,same,red,"(177, 0, 0)",lowProb,lowProb2,rectangular,uniform,1,undefined,0,0.291666667,1,1,343.21875,1,56,65898,0,0,0,0,0,0,0,0,82,0,1,0.291666667,343.21875,56,65898,81,81,81,11/27/2018 10:34,Default description,yes,<openexp._canvas.legacy.Legacy object at 0x054EC8D0>,<openexp._canvas.legacy.Legacy object at 0x0550DFB0>,<openexp._canvas.legacy.Legacy object at 0x054C9BD0>,<openexp._canvas.legacy.Legacy object at 0x0538A930>,<openexp._canvas.legacy.Legacy object at 0x0537A190>,<openexp._canvas.legacy.Legacy object at 0x054DF2B0>,<openexp._canvas.legacy.Legacy object at 0x05512F90>,<openexp._canvas.legacy.Legacy object at 0x053C5C30>,75,SpatProbMultiple3.osexp,C:/Userdata/Michel/SpatProbMultiple3,no,mono,no,18,no,white,no,yes,0.09,98,1050,legacy,45,56,56,1,C:/Userdata/Michel/SpatProbMultiple3/beh/subject-12.csv,legacy,9,192,25,Kafkaesque Koffka,3.2.5,yes,598477b2b83f69022949e7e9,47,green,rectangular,red,rectangular,0,\,901,space,5084,5084,"(80, 80, 80)","(0, 123, 0)","(177, 0, 0)","(155, 155, 155)",2,legacy,experiment,"[3, 4, 5, 6, 7, 0, 1, 2]",\,2500,3000,0,8,252.7587515,1024,2,48000,-16,main,"[(0, -252), (178, -178), (252, 0), (178, 178), (0, 252), (-178, 178), (-252, 0), (-178, -178)]",[],36,even,5,NA,205464,256107,256107,124634,123623,2260,137946,137946,2260,2260,129718,404564,2258,256107,403660,402732,402732,NA,919,study_X,0,5084,1,yes,1680
undefined,undefined,NA,NA,NA,5084,5084,black,no,legacy,legacy,legacy,0,red,"(177, 0, 0)",color,present,lowProb3,rectangular,swap,same,swap,same,green,"(0, 123, 0)",lowProb,lowProb4,rectangular,uniform,1,undefined,0,0.296875,1,1,349.4166667,1,57,67088,0,0,0,0,0,0,0,0,83,0,1,0.296875,349.4166667,57,67088,82,82,82,11/27/2018 10:34,Default description,yes,<openexp._canvas.legacy.Legacy object at 0x054EC8D0>,<openexp._canvas.legacy.Legacy object at 0x0550DFB0>,<openexp._canvas.legacy.Legacy object at 0x054C9BD0>,<openexp._canvas.legacy.Legacy object at 0x0538A930>,<openexp._canvas.legacy.Legacy object at 0x0537A190>,<openexp._canvas.legacy.Legacy object at 0x054DF2B0>,<openexp._canvas.legacy.Legacy object at 0x0550D7F0>,<openexp._canvas.legacy.Legacy object at 0x053C5C30>,75,SpatProbMultiple3.osexp,C:/Userdata/Michel/SpatProbMultiple3,no,mono,no,18,no,white,no,yes,0.09,98,1050,legacy,45,57,57,1,C:/Userdata/Michel/SpatProbMultiple3/beh/subject-12.csv,legacy,9,192,25,Kafkaesque Koffka,3.2.5,yes,598477b2b83f69022949e7e9,47,red,rectangular,green,rectangular,0,\,1190,space,5084,5084,"(80, 80, 80)","(0, 123, 0)","(177, 0, 0)","(155, 155, 155)",2,legacy,experiment,"[3, 4, 5, 6, 7, 0, 1, 2]",\,2500,3000,0,8,252.7587515,1024,2,48000,-16,main,"[(0, -252), (178, -178), (252, 0), (178, 178), (0, 252), (-178, 178), (-252, 0), (-178, -178)]",[],36,even,0,NA,205464,256107,256107,124634,123623,2260,137946,137946,2260,2260,129718,407108,2258,256107,405916,404987,404987,NA,919,study_X,0,5084,1,yes,1680
undefined,undefined,NA,NA,NA,5084,5084,black,no,legacy,legacy,legacy,0,green,"(0, 123, 0)",color,present,highProb,circular,swap,swap,swap,swap,red,"(177, 0, 0)",lowProb,lowProb6,circular,uniform,1,undefined,0,0.302083333,1,1,358.5260417,1,58,68837,0,0,0,0,0,0,0,0,84,0,1,0.302083333,358.5260417,58,68837,83,83,83,11/27/2018 10:34,Default description,yes,<openexp._canvas.legacy.Legacy object at 0x054EC8D0>,<openexp._canvas.legacy.Legacy object at 0x0550DFB0>,<openexp._canvas.legacy.Legacy object at 0x054C9BD0>,<openexp._canvas.legacy.Legacy object at 0x0538A930>,<openexp._canvas.legacy.Legacy object at 0x0537A190>,<openexp._canvas.legacy.Legacy object at 0x054DF2B0>,<openexp._canvas.legacy.Legacy object at 0x05502CB0>,<openexp._canvas.legacy.Legacy object at 0x053C5C30>,75,SpatProbMultiple3.osexp,C:/Userdata/Michel/SpatProbMultiple3,no,mono,no,18,no,white,no,yes,0.09,98,1050,legacy,315,58,58,1,C:/Userdata/Michel/SpatProbMultiple3/beh/subject-12.csv,legacy,9,192,25,Kafkaesque Koffka,3.2.5,yes,598477b2b83f69022949e7e9,47,green,circular,red,circular,0,/,1749,space,5084,5084,"(80, 80, 80)","(0, 123, 0)","(177, 0, 0)","(155, 155, 155)",2,legacy,experiment,"[3, 4, 5, 6, 7, 0, 1, 2]",/,2500,3000,0,8,252.7587515,1024,2,48000,-16,main,"[(0, -252), (178, -178), (252, 0), (178, 178), (0, 252), (-178, 178), (-252, 0), (-178, -178)]",[],36,even,2,NA,205464,256107,256107,124634,123623,2260,137946,137946,2260,2260,129718,410236,2258,256107,408485,407556,407556,NA,919,study_X,0,5084,1,yes,1680
undefined,undefined,NA,NA,NA,5084,5084,black,no,legacy,legacy,legacy,0,green,"(0, 123, 0)",shape,present,highProb,circular,same,same,swap,swap,green,"(0, 123, 0)",highProbColor,highProbColor,rectangular,uniform,1,undefined,0,0.307291667,1,1,365.0885417,1,59,70097,0,0,0,0,0,0,0,0,85,0,1,0.307291667,365.0885417,59,70097,84,84,84,11/27/2018 10:34,Default description,yes,<openexp._canvas.legacy.Legacy object at 0x054EC8D0>,<openexp._canvas.legacy.Legacy object at 0x0550DFB0>,<openexp._canvas.legacy.Legacy object at 0x054C9BD0>,<openexp._canvas.legacy.Legacy object at 0x0538A930>,<openexp._canvas.legacy.Legacy object at 0x0537A190>,<openexp._canvas.legacy.Legacy object at 0x054DF2B0>,<openexp._canvas.legacy.Legacy object at 0x05537770>,<openexp._canvas.legacy.Legacy object at 0x053C5C30>,75,SpatProbMultiple3.osexp,C:/Userdata/Michel/SpatProbMultiple3,no,mono,no,18,no,white,no,yes,0.09,98,1050,legacy,45,59,59,1,C:/Userdata/Michel/SpatProbMultiple3/beh/subject-12.csv,legacy,9,192,25,Kafkaesque Koffka,3.2.5,yes,598477b2b83f69022949e7e9,47,green,circular,green,rectangular,0,\,1260,space,5084,5084,"(80, 80, 80)","(0, 123, 0)","(177, 0, 0)","(155, 155, 155)",2,legacy,experiment,"[3, 4, 5, 6, 7, 0, 1, 2]",\,2500,3000,0,8,252.7587515,1024,2,48000,-16,main,"[(0, -252), (178, -178), (252, 0), (178, 178), (0, 252), (-178, 178), (-252, 0), (-178, -178)]",[],36,even,3,NA,205464,256107,256107,124634,123623,2260,137946,137946,2260,2260,129718,412845,2258,256107,411582,410654,410654,NA,919,study_X,0,5084,1,yes,1680
undefined,undefined,NA,NA,NA,5084,5084,black,no,legacy,legacy,legacy,0,red,"(177, 0, 0)",shape,present,highProb,circular,swap,same,swap,same,red,"(177, 0, 0)",lowProb,lowProb1,rectangular,uniform,1,undefined,0,0.3125,1,1,369.7708333,1,60,70996,0,0,0,0,0,0,0,0,86,0,1,0.3125,369.7708333,60,70996,85,85,85,11/27/2018 10:34,Default description,yes,<openexp._canvas.legacy.Legacy object at 0x054EC8D0>,<openexp._canvas.legacy.Legacy object at 0x0550DFB0>,<openexp._canvas.legacy.Legacy object at 0x054C9BD0>,<openexp._canvas.legacy.Legacy object at 0x0538A930>,<openexp._canvas.legacy.Legacy object at 0x0537A190>,<openexp._canvas.legacy.Legacy object at 0x054DF2B0>,<openexp._canvas.legacy.Legacy object at 0x05502C30>,<openexp._canvas.legacy.Legacy object at 0x053C5C30>,75,SpatProbMultiple3.osexp,C:/Userdata/Michel/SpatProbMultiple3,no,mono,no,18,no,white,no,yes,0.09,98,1050,legacy,315,60,60,1,C:/Userdata/Michel/SpatProbMultiple3/beh/subject-12.csv,legacy,9,192,25,Kafkaesque Koffka,3.2.5,yes,598477b2b83f69022949e7e9,47,red,circular,red,rectangular,0,/,899,space,5084,5084,"(80, 80, 80)","(0, 123, 0)","(177, 0, 0)","(155, 155, 155)",2,legacy,experiment,"[3, 4, 5, 6, 7, 0, 1, 2]",/,2500,3000,0,8,252.7587515,1024,2,48000,-16,main,"[(0, -252), (178, -178), (252, 0), (178, 178), (0, 252), (-178, 178), (-252, 0), (-178, -178)]",[],36,even,4,NA,205464,256107,256107,124634,123623,2260,137946,137946,2260,2260,129718,415093,2258,256107,414191,413263,413263,NA,919,study_X,0,5084,1,yes,1680
undefined,undefined,NA,NA,NA,5084,5084,black,no,legacy,legacy,legacy,0,red,"(177, 0, 0)",shape,present,highProb,rectangular,same,swap,same,swap,red,"(177, 0, 0)",highProbColor,highProbColor,circular,uniform,1,undefined,0,0.317708333,1,1,376.609375,1,61,72309,0,0,0,0,0,0,0,0,87,0,1,0.317708333,376.609375,61,72309,86,86,86,11/27/2018 10:34,Default description,yes,<openexp._canvas.legacy.Legacy object at 0x054EC8D0>,<openexp._canvas.legacy.Legacy object at 0x0550DFB0>,<openexp._canvas.legacy.Legacy object at 0x054C9BD0>,<openexp._canvas.legacy.Legacy object at 0x0538A930>,<openexp._canvas.legacy.Legacy object at 0x0537A190>,<openexp._canvas.legacy.Legacy object at 0x054DF2B0>,<openexp._canvas.legacy.Legacy object at 0x054ECFF0>,<openexp._canvas.legacy.Legacy object at 0x053C5C30>,75,SpatProbMultiple3.osexp,C:/Userdata/Michel/SpatProbMultiple3,no,mono,no,18,no,white,no,yes,0.09,98,1050,legacy,315,61,61,1,C:/Userdata/Michel/SpatProbMultiple3/beh/subject-12.csv,legacy,9,192,25,Kafkaesque Koffka,3.2.5,yes,598477b2b83f69022949e7e9,47,red,rectangular,red,circular,0,/,1313,space,5084,5084,"(80, 80, 80)","(0, 123, 0)","(177, 0, 0)","(155, 155, 155)",2,legacy,experiment,"[3, 4, 5, 6, 7, 0, 1, 2]",/,2500,3000,0,8,252.7587515,1024,2,48000,-16,main,"[(0, -252), (178, -178), (252, 0), (178, 178), (0, 252), (-178, 178), (-252, 0), (-178, -178)]",[],36,even,3,NA,205464,256107,256107,124634,123623,2260,137946,137946,2260,2260,129718,417765,2258,256107,416448,415520,415520,NA,919,study_X,0,5084,1,yes,1680
undefined,undefined,NA,NA,NA,5084,5084,black,no,legacy,legacy,legacy,0,red,"(177, 0, 0)",color,present,highProb,rectangular,same,same,swap,swap,green,"(0, 123, 0)",highProbShape,highProbShape,rectangular,uniform,1,undefined,0,0.322916667,1,1,381.3229167,1,62,73214,0,0,0,0,0,0,0,0,88,0,1,0.322916667,381.3229167,62,73214,87,87,87,11/27/2018 10:34,Default description,yes,<openexp._canvas.legacy.Legacy object at 0x054EC8D0>,<openexp._canvas.legacy.Legacy object at 0x0550DFB0>,<openexp._canvas.legacy.Legacy object at 0x054C9BD0>,<openexp._canvas.legacy.Legacy object at 0x0538A930>,<openexp._canvas.legacy.Legacy object at 0x0537A190>,<openexp._canvas.legacy.Legacy object at 0x054DF2B0>,<openexp._canvas.legacy.Legacy object at 0x0553D6B0>,<openexp._canvas.legacy.Legacy object at 0x053C5C30>,75,SpatProbMultiple3.osexp,C:/Userdata/Michel/SpatProbMultiple3,no,mono,no,18,no,white,no,yes,0.09,98,1050,legacy,45,62,62,1,C:/Userdata/Michel/SpatProbMultiple3/beh/subject-12.csv,legacy,9,192,25,Kafkaesque Koffka,3.2.5,yes,598477b2b83f69022949e7e9,47,red,rectangular,green,rectangular,0,\,905,space,5084,5084,"(80, 80, 80)","(0, 123, 0)","(177, 0, 0)","(155, 155, 155)",2,legacy,experiment,"[3, 4, 5, 6, 7, 0, 1, 2]",\,2500,3000,0,8,252.7587515,1024,2,48000,-16,main,"[(0, -252), (178, -178), (252, 0), (178, 178), (0, 252), (-178, 178), (-252, 0), (-178, -178)]",[],36,even,7,NA,205464,256107,256107,124634,123623,2260,137946,137946,2260,2260,129718,420020,2258,256107,419113,418185,418185,NA,919,study_X,0,5084,1,yes,1680
undefined,undefined,NA,NA,NA,5084,5084,black,no,legacy,legacy,legacy,0,red,"(177, 0, 0)",color,absent,lowProb4,rectangular,same,same,swap,same,red,"(177, 0, 0)",lowProb,lowProb4,rectangular,uniform,1,undefined,0,0.328125,1,1,387.1197917,1,63,74327,0,0,0,0,0,0,0,0,89,0,1,0.328125,387.1197917,63,74327,88,88,88,11/27/2018 10:34,Default description,yes,<openexp._canvas.legacy.Legacy object at 0x054EC8D0>,<openexp._canvas.legacy.Legacy object at 0x0550DFB0>,<openexp._canvas.legacy.Legacy object at 0x054C9BD0>,<openexp._canvas.legacy.Legacy object at 0x0538A930>,<openexp._canvas.legacy.Legacy object at 0x0537A190>,<openexp._canvas.legacy.Legacy object at 0x054DF2B0>,<openexp._canvas.legacy.Legacy object at 0x054EC9B0>,<openexp._canvas.legacy.Legacy object at 0x053C5C30>,75,SpatProbMultiple3.osexp,C:/Userdata/Michel/SpatProbMultiple3,no,mono,no,18,no,white,no,yes,0.09,98,1050,legacy,315,63,63,1,C:/Userdata/Michel/SpatProbMultiple3/beh/subject-12.csv,legacy,9,192,25,Kafkaesque Koffka,3.2.5,yes,598477b2b83f69022949e7e9,47,red,rectangular,red,rectangular,0,/,1113,space,5084,5084,"(80, 80, 80)","(0, 123, 0)","(177, 0, 0)","(155, 155, 155)",2,legacy,experiment,"[3, 4, 5, 6, 7, 0, 1, 2]",/,2500,3000,0,8,252.7587515,1024,2,48000,-16,main,"[(0, -252), (178, -178), (252, 0), (178, 178), (0, 252), (-178, 178), (-252, 0), (-178, -178)]",[],36,even,0,NA,205464,256107,256107,124634,123623,2260,137946,137946,2260,2260,129718,422484,2258,256107,421369,420440,420440,NA,919,study_X,0,5084,1,yes,1680
