"acc","accuracy","average_response_time","avg_rt","background","bidi","canvas_backend","clock_backend","color_backend","compensation","cond_disColor","cond_disColorRGB","cond_disFeature","cond_disPresent","cond_disProbability","cond_disShape","cond_primingDisColor","cond_primingDisShape","cond_primingTarColor","cond_primingTarShape","cond_tarColor","cond_tarColorRGB","cond_tarLocation","cond_tarLocationLong","cond_tarShape","coordinates","correct","correct_continuePress","count_blockAcc","count_blockFeed","count_blockLoop","count_blockRT","count_blockSeq","count_blockSumCorrect","count_blockSumRT","count_continuePress","count_example","count_expSettings","count_exp_mainLoop","count_experiment","count_instructions","count_instructions1","count_instructions2","count_log","count_main","count_prepCanvas","count_totalAcc","count_totalRT","count_totalSumCorrect","count_totalSumRT","count_trialResp","count_trialSeq","count_trialTask","datetime","description","disable_garbage_collection","dispBlank","dispBlockStart","dispFeedBlock","dispFix","dispInstructions","dispSearch","dispStartScreen","distance2screen","experiment_file","experiment_path","font_bold","font_family","font_italic","font_size","font_underline","foreground","form_clicks","fullscreen","gaborFreq","gaborSize","height","keyboard_backend","lineOriTar","live_row","live_row_blockLoop","live_row_exp_mainLoop","logfile","mouse_backend","noExpBlocks","noExpTrials","noPracTrials","opensesame_codename","opensesame_version","osf_always_upload_experiment","osf_id","physical_screensize","previousDisColor","previousDisShape","previousTarColor","previousTarShape","repeat_cycle","response","responseTime","response_continuePress","response_time","response_time_continuePress","rgb_gray","rgb_green","rgb_red","rgb_white","round_decimals","sampler_backend","set_blockType","set_counterPositions","set_respCorrect","set_respTimeoutExp","set_respTimeoutPrac","set_rotation","set_setSize","sizeImaginary","sound_buf_size","sound_channels","sound_freq","sound_sample_size","start","stimPositions","stimuli","subject_nr","subject_parity","tarIdx","time_blockFeed","time_blockLoop","time_blockSeq","time_continuePress","time_example","time_expSettings","time_exp_mainLoop","time_experiment","time_instructions","time_instructions1","time_instructions2","time_log","time_main","time_prepCanvas","time_trialResp","time_trialSeq","time_trialTask","timing_EEGwait","timing_fix","title","total_correct","total_response_time","total_responses","uniform_coordinates","width"
"undefined","undefined","9902","9902","black","no","legacy","legacy","legacy","0","green","(0, 122, 0)","color","present","highProb","circular","same","swap","swap","same","red","(179, 0, 0)","lowProb","lowProb1","circular","uniform","1","undefined","0.00520833333333","1","1","4.72395833333","1","1","907","0","0","0","0","0","0","0","0","25","0","1","0.00520833333333","4.72395833333","1","907","25","25","25","08/22/17 11:27:52","Default description","yes","<openexp._canvas.legacy.legacy object at 0x048227F0>","<openexp._canvas.legacy.legacy object at 0x0482E7B0>","<openexp._canvas.legacy.legacy object at 0x04817F70>","<openexp._canvas.legacy.legacy object at 0x0490F9D0>","<openexp._canvas.legacy.legacy object at 0x048E14B0>","<openexp._canvas.legacy.legacy object at 0x0481E550>","<openexp._canvas.legacy.legacy object at 0x048E2A50>","75","IndividualPriorityWithDis_v1.osexp","C:/Userdata/Michel/SpatialProb/IndividualPriorityMaps/Experiment2","no","mono","no","18","no","white","no","yes","0.09","98","1050","legacy","315","0","0","1","C:/Userdata/Michel/SpatialProb/IndividualPriorityMaps/Experiment2/data/subject-14.csv","legacy","9","192","25","Jazzy James","3.1.3","yes","598477b2b83f69022949e7e9","47","green","circular","red","circular","0","/","907","space","9902","9902","(80, 80, 80)","(0, 122, 0)","(179, 0, 0)","(155, 155, 155)","2","legacy","experiment","[5, 6, 7, 0, 1, 2, 3, 4]","/","2500","3000","0","8","252.758751519","1024","2","48000","-16","main","[(0, -252), (178, -178), (252, 0), (178, 178), (0, 252), (-178, 178), (-252, 0), (-178, -178)]","[]","14","even","6","178717","206413","206413","94076","93070","1559","113914","113914","1559","1559","103978","213730","1558","206413","212820","206811","206811","NA","933","study_X","0","9902","1","yes","1680"
"undefined","undefined","9902","9902","black","no","legacy","legacy","legacy","0","green","(0, 122, 0)","shape","absent","lowProb3","circular","same","same","swap","same","green","(0, 122, 0)","lowProb","lowProb5","circular","uniform","1","undefined","0.0104166666667","1","1","10.1770833333","1","2","1954","0","0","0","0","0","0","0","0","26","0","1","0.0104166666667","10.1770833333","2","1954","26","26","26","08/22/17 11:27:52","Default description","yes","<openexp._canvas.legacy.legacy object at 0x048227F0>","<openexp._canvas.legacy.legacy object at 0x0482E7B0>","<openexp._canvas.legacy.legacy object at 0x04817F70>","<openexp._canvas.legacy.legacy object at 0x0490F9D0>","<openexp._canvas.legacy.legacy object at 0x048E14B0>","<openexp._canvas.legacy.legacy object at 0x0482EFB0>","<openexp._canvas.legacy.legacy object at 0x048E2A50>","75","IndividualPriorityWithDis_v1.osexp","C:/Userdata/Michel/SpatialProb/IndividualPriorityMaps/Experiment2","no","mono","no","18","no","white","no","yes","0.09","98","1050","legacy","315","1","1","1","C:/Userdata/Michel/SpatialProb/IndividualPriorityMaps/Experiment2/data/subject-14.csv","legacy","9","192","25","Jazzy James","3.1.3","yes","598477b2b83f69022949e7e9","47","green","circular","green","circular","0","/","1047","space","9902","9902","(80, 80, 80)","(0, 122, 0)","(179, 0, 0)","(155, 155, 155)","2","legacy","experiment","[5, 6, 7, 0, 1, 2, 3, 4]","/","2500","3000","0","8","252.758751519","1024","2","48000","-16","main","[(0, -252), (178, -178), (252, 0), (178, 178), (0, 252), (-178, 178), (-252, 0), (-178, -178)]","[]","14","even","3","178717","206413","206413","94076","93070","1559","113914","113914","1559","1559","103978","216178","1558","206413","215127","214188","214188","NA","933","study_X","0","9902","1","yes","1680"
"undefined","undefined","9902","9902","black","no","legacy","legacy","legacy","0","green","(0, 122, 0)","color","absent","lowProb6","rectangular","same","swap","same","swap","green","(0, 122, 0)","highProbColor","highProbColor","rectangular","uniform","1","undefined","0.015625","1","1","12.890625","1","3","2475","0","0","0","0","0","0","0","0","27","0","1","0.015625","12.890625","3","2475","27","27","27","08/22/17 11:27:52","Default description","yes","<openexp._canvas.legacy.legacy object at 0x048227F0>","<openexp._canvas.legacy.legacy object at 0x0482E7B0>","<openexp._canvas.legacy.legacy object at 0x04817F70>","<openexp._canvas.legacy.legacy object at 0x0490F9D0>","<openexp._canvas.legacy.legacy object at 0x048E14B0>","<openexp._canvas.legacy.legacy object at 0x0481F950>","<openexp._canvas.legacy.legacy object at 0x048E2A50>","75","IndividualPriorityWithDis_v1.osexp","C:/Userdata/Michel/SpatialProb/IndividualPriorityMaps/Experiment2","no","mono","no","18","no","white","no","yes","0.09","98","1050","legacy","45","2","2","1","C:/Userdata/Michel/SpatialProb/IndividualPriorityMaps/Experiment2/data/subject-14.csv","legacy","9","192","25","Jazzy James","3.1.3","yes","598477b2b83f69022949e7e9","47","green","rectangular","green","rectangular","0","\","521","space","9902","9902","(80, 80, 80)","(0, 122, 0)","(179, 0, 0)","(155, 155, 155)","2","legacy","experiment","[5, 6, 7, 0, 1, 2, 3, 4]","\","2500","3000","0","8","252.758751519","1024","2","48000","-16","main","[(0, -252), (178, -178), (252, 0), (178, 178), (0, 252), (-178, 178), (-252, 0), (-178, -178)]","[]","14","even","5","178717","206413","206413","94076","93070","1559","113914","113914","1559","1559","103978","218074","1558","206413","217549","216610","216610","NA","933","study_X","0","9902","1","yes","1680"
"undefined","undefined","9902","9902","black","no","legacy","legacy","legacy","0","red","(179, 0, 0)","shape","present","highProbOther","rectangular","swap","same","swap","swap","red","(179, 0, 0)","lowProb","lowProb5","circular","uniform","1","undefined","0.0208333333333","1","1","18.6614583333","1","4","3583","0","0","0","0","0","0","0","0","28","0","1","0.0208333333333","18.6614583333","4","3583","28","28","28","08/22/17 11:27:52","Default description","yes","<openexp._canvas.legacy.legacy object at 0x048227F0>","<openexp._canvas.legacy.legacy object at 0x0482E7B0>","<openexp._canvas.legacy.legacy object at 0x04817F70>","<openexp._canvas.legacy.legacy object at 0x0490F9D0>","<openexp._canvas.legacy.legacy object at 0x048E14B0>","<openexp._canvas.legacy.legacy object at 0x04817FD0>","<openexp._canvas.legacy.legacy object at 0x048E2A50>","75","IndividualPriorityWithDis_v1.osexp","C:/Userdata/Michel/SpatialProb/IndividualPriorityMaps/Experiment2","no","mono","no","18","no","white","no","yes","0.09","98","1050","legacy","45","3","3","1","C:/Userdata/Michel/SpatialProb/IndividualPriorityMaps/Experiment2/data/subject-14.csv","legacy","9","192","25","Jazzy James","3.1.3","yes","598477b2b83f69022949e7e9","47","red","rectangular","red","circular","0","\","1108","space","9902","9902","(80, 80, 80)","(0, 122, 0)","(179, 0, 0)","(155, 155, 155)","2","legacy","experiment","[5, 6, 7, 0, 1, 2, 3, 4]","\","2500","3000","0","8","252.758751519","1024","2","48000","-16","main","[(0, -252), (178, -178), (252, 0), (178, 178), (0, 252), (-178, 178), (-252, 0), (-178, -178)]","[]","14","even","3","178717","206413","206413","94076","93070","1559","113914","113914","1559","1559","103978","220546","1558","206413","219434","218495","218495","NA","933","study_X","0","9902","1","yes","1680"
"undefined","undefined","9902","9902","black","no","legacy","legacy","legacy","0","red","(179, 0, 0)","shape","present","highProb","circular","same","swap","same","swap","red","(179, 0, 0)","lowProb","lowProb6","rectangular","uniform","1","undefined","0.0260416666667","1","1","22.7447916667","1","5","4367","0","0","0","0","0","0","0","0","29","0","1","0.0260416666667","22.7447916667","5","4367","29","29","29","08/22/17 11:27:52","Default description","yes","<openexp._canvas.legacy.legacy object at 0x048227F0>","<openexp._canvas.legacy.legacy object at 0x0482E7B0>","<openexp._canvas.legacy.legacy object at 0x04817F70>","<openexp._canvas.legacy.legacy object at 0x0490F9D0>","<openexp._canvas.legacy.legacy object at 0x048E14B0>","<openexp._canvas.legacy.legacy object at 0x0490FF70>","<openexp._canvas.legacy.legacy object at 0x048E2A50>","75","IndividualPriorityWithDis_v1.osexp","C:/Userdata/Michel/SpatialProb/IndividualPriorityMaps/Experiment2","no","mono","no","18","no","white","no","yes","0.09","98","1050","legacy","45","4","4","1","C:/Userdata/Michel/SpatialProb/IndividualPriorityMaps/Experiment2/data/subject-14.csv","legacy","9","192","25","Jazzy James","3.1.3","yes","598477b2b83f69022949e7e9","47","red","circular","red","rectangular","0","\","784","space","9902","9902","(80, 80, 80)","(0, 122, 0)","(179, 0, 0)","(155, 155, 155)","2","legacy","experiment","[5, 6, 7, 0, 1, 2, 3, 4]","\","2500","3000","0","8","252.758751519","1024","2","48000","-16","main","[(0, -252), (178, -178), (252, 0), (178, 178), (0, 252), (-178, 178), (-252, 0), (-178, -178)]","[]","14","even","4","178717","206413","206413","94076","93070","1559","113914","113914","1559","1559","103978","222689","1558","206413","221902","220963","220963","NA","933","study_X","0","9902","1","yes","1680"
"undefined","undefined","9902","9902","black","no","legacy","legacy","legacy","0","green","(0, 122, 0)","shape","present","highProb","rectangular","swap","swap","swap","swap","green","(0, 122, 0)","lowProb","lowProb1","circular","uniform","1","undefined","0.03125","1","1","26.2395833333","1","6","5038","0","0","0","0","0","0","0","0","30","0","1","0.03125","26.2395833333","6","5038","30","30","30","08/22/17 11:27:52","Default description","yes","<openexp._canvas.legacy.legacy object at 0x048227F0>","<openexp._canvas.legacy.legacy object at 0x0482E7B0>","<openexp._canvas.legacy.legacy object at 0x04817F70>","<openexp._canvas.legacy.legacy object at 0x0490F9D0>","<openexp._canvas.legacy.legacy object at 0x048E14B0>","<openexp._canvas.legacy.legacy object at 0x0481E610>","<openexp._canvas.legacy.legacy object at 0x048E2A50>","75","IndividualPriorityWithDis_v1.osexp","C:/Userdata/Michel/SpatialProb/IndividualPriorityMaps/Experiment2","no","mono","no","18","no","white","no","yes","0.09","98","1050","legacy","45","5","5","1","C:/Userdata/Michel/SpatialProb/IndividualPriorityMaps/Experiment2/data/subject-14.csv","legacy","9","192","25","Jazzy James","3.1.3","yes","598477b2b83f69022949e7e9","47","green","rectangular","green","circular","0","\","671","space","9902","9902","(80, 80, 80)","(0, 122, 0)","(179, 0, 0)","(155, 155, 155)","2","legacy","experiment","[5, 6, 7, 0, 1, 2, 3, 4]","\","2500","3000","0","8","252.758751519","1024","2","48000","-16","main","[(0, -252), (178, -178), (252, 0), (178, 178), (0, 252), (-178, 178), (-252, 0), (-178, -178)]","[]","14","even","6","178717","206413","206413","94076","93070","1559","113914","113914","1559","1559","103978","224721","1558","206413","224047","223108","223108","NA","933","study_X","0","9902","1","yes","1680"
"undefined","undefined","9902","9902","black","no","legacy","legacy","legacy","0","green","(0, 122, 0)","shape","present","highProb","circular","same","swap","same","swap","green","(0, 122, 0)","lowProb","lowProb3","rectangular","uniform","1","undefined","0.0364583333333","1","1","31.609375","1","7","6069","0","0","0","0","0","0","0","0","31","0","1","0.0364583333333","31.609375","7","6069","31","31","31","08/22/17 11:27:52","Default description","yes","<openexp._canvas.legacy.legacy object at 0x048227F0>","<openexp._canvas.legacy.legacy object at 0x0482E7B0>","<openexp._canvas.legacy.legacy object at 0x04817F70>","<openexp._canvas.legacy.legacy object at 0x0490F9D0>","<openexp._canvas.legacy.legacy object at 0x048E14B0>","<openexp._canvas.legacy.legacy object at 0x0481F930>","<openexp._canvas.legacy.legacy object at 0x048E2A50>","75","IndividualPriorityWithDis_v1.osexp","C:/Userdata/Michel/SpatialProb/IndividualPriorityMaps/Experiment2","no","mono","no","18","no","white","no","yes","0.09","98","1050","legacy","45","6","6","1","C:/Userdata/Michel/SpatialProb/IndividualPriorityMaps/Experiment2/data/subject-14.csv","legacy","9","192","25","Jazzy James","3.1.3","yes","598477b2b83f69022949e7e9","47","green","circular","green","rectangular","0","\","1031","space","9902","9902","(80, 80, 80)","(0, 122, 0)","(179, 0, 0)","(155, 155, 155)","2","legacy","experiment","[5, 6, 7, 0, 1, 2, 3, 4]","\","2500","3000","0","8","252.758751519","1024","2","48000","-16","main","[(0, -252), (178, -178), (252, 0), (178, 178), (0, 252), (-178, 178), (-252, 0), (-178, -178)]","[]","14","even","0","178717","206413","206413","94076","93070","1559","113914","113914","1559","1559","103978","227137","1558","206413","226103","225164","225164","NA","933","study_X","0","9902","1","yes","1680"
"undefined","undefined","9902","9902","black","no","legacy","legacy","legacy","0","red","(179, 0, 0)","shape","present","lowProb4","circular","swap","same","swap","same","red","(179, 0, 0)","lowProb","lowProb6","rectangular","uniform","1","undefined","0.0416666666667","1","1","34.9166666667","1","8","6704","0","0","0","0","0","0","0","0","32","0","1","0.0416666666667","34.9166666667","8","6704","32","32","32","08/22/17 11:27:52","Default description","yes","<openexp._canvas.legacy.legacy object at 0x048227F0>","<openexp._canvas.legacy.legacy object at 0x0482E7B0>","<openexp._canvas.legacy.legacy object at 0x04817F70>","<openexp._canvas.legacy.legacy object at 0x0490F9D0>","<openexp._canvas.legacy.legacy object at 0x048E14B0>","<openexp._canvas.legacy.legacy object at 0x0481E390>","<openexp._canvas.legacy.legacy object at 0x048E2A50>","75","IndividualPriorityWithDis_v1.osexp","C:/Userdata/Michel/SpatialProb/IndividualPriorityMaps/Experiment2","no","mono","no","18","no","white","no","yes","0.09","98","1050","legacy","45","7","7","1","C:/Userdata/Michel/SpatialProb/IndividualPriorityMaps/Experiment2/data/subject-14.csv","legacy","9","192","25","Jazzy James","3.1.3","yes","598477b2b83f69022949e7e9","47","red","circular","red","rectangular","0","\","635","space","9902","9902","(80, 80, 80)","(0, 122, 0)","(179, 0, 0)","(155, 155, 155)","2","legacy","experiment","[5, 6, 7, 0, 1, 2, 3, 4]","\","2500","3000","0","8","252.758751519","1024","2","48000","-16","main","[(0, -252), (178, -178), (252, 0), (178, 178), (0, 252), (-178, 178), (-252, 0), (-178, -178)]","[]","14","even","4","178717","206413","206413","94076","93070","1559","113914","113914","1559","1559","103978","229137","1558","206413","228499","227560","227560","NA","933","study_X","0","9902","1","yes","1680"
"undefined","undefined","9902","9902","black","no","legacy","legacy","legacy","0","red","(179, 0, 0)","shape","absent","lowProb5","rectangular","same","swap","same","same","red","(179, 0, 0)","lowProb","lowProb2","rectangular","uniform","1","undefined","0.046875","1","1","39.8072916667","1","9","7643","0","0","0","0","0","0","0","0","33","0","1","0.046875","39.8072916667","9","7643","33","33","33","08/22/17 11:27:52","Default description","yes","<openexp._canvas.legacy.legacy object at 0x048227F0>","<openexp._canvas.legacy.legacy object at 0x0482E7B0>","<openexp._canvas.legacy.legacy object at 0x04817F70>","<openexp._canvas.legacy.legacy object at 0x0490F9D0>","<openexp._canvas.legacy.legacy object at 0x048E14B0>","<openexp._canvas.legacy.legacy object at 0x0481F3B0>","<openexp._canvas.legacy.legacy object at 0x048E2A50>","75","IndividualPriorityWithDis_v1.osexp","C:/Userdata/Michel/SpatialProb/IndividualPriorityMaps/Experiment2","no","mono","no","18","no","white","no","yes","0.09","98","1050","legacy","45","8","8","1","C:/Userdata/Michel/SpatialProb/IndividualPriorityMaps/Experiment2/data/subject-14.csv","legacy","9","192","25","Jazzy James","3.1.3","yes","598477b2b83f69022949e7e9","47","red","rectangular","red","rectangular","0","\","939","space","9902","9902","(80, 80, 80)","(0, 122, 0)","(179, 0, 0)","(155, 155, 155)","2","legacy","experiment","[5, 6, 7, 0, 1, 2, 3, 4]","\","2500","3000","0","8","252.758751519","1024","2","48000","-16","main","[(0, -252), (178, -178), (252, 0), (178, 178), (0, 252), (-178, 178), (-252, 0), (-178, -178)]","[]","14","even","7","178717","206413","206413","94076","93070","1559","113914","113914","1559","1559","103978","231434","1558","206413","230491","229553","229553","NA","933","study_X","0","9902","1","yes","1680"
"undefined","undefined","9902","9902","black","no","legacy","legacy","legacy","0","green","(0, 122, 0)","shape","present","highProb","circular","swap","swap","swap","same","green","(0, 122, 0)","lowProb","lowProb5","rectangular","uniform","1","undefined","0.0520833333333","1","1","43.3229166667","1","10","8318","0","0","0","0","0","0","0","0","34","0","1","0.0520833333333","43.3229166667","10","8318","34","34","34","08/22/17 11:27:52","Default description","yes","<openexp._canvas.legacy.legacy object at 0x048227F0>","<openexp._canvas.legacy.legacy object at 0x0482E7B0>","<openexp._canvas.legacy.legacy object at 0x04817F70>","<openexp._canvas.legacy.legacy object at 0x0490F9D0>","<openexp._canvas.legacy.legacy object at 0x048E14B0>","<openexp._canvas.legacy.legacy object at 0x0490F0F0>","<openexp._canvas.legacy.legacy object at 0x048E2A50>","75","IndividualPriorityWithDis_v1.osexp","C:/Userdata/Michel/SpatialProb/IndividualPriorityMaps/Experiment2","no","mono","no","18","no","white","no","yes","0.09","98","1050","legacy","315","9","9","1","C:/Userdata/Michel/SpatialProb/IndividualPriorityMaps/Experiment2/data/subject-14.csv","legacy","9","192","25","Jazzy James","3.1.3","yes","598477b2b83f69022949e7e9","47","green","circular","green","rectangular","0","/","675","space","9902","9902","(80, 80, 80)","(0, 122, 0)","(179, 0, 0)","(155, 155, 155)","2","legacy","experiment","[5, 6, 7, 0, 1, 2, 3, 4]","/","2500","3000","0","8","252.758751519","1024","2","48000","-16","main","[(0, -252), (178, -178), (252, 0), (178, 178), (0, 252), (-178, 178), (-252, 0), (-178, -178)]","[]","14","even","3","178717","206413","206413","94076","93070","1559","113914","113914","1559","1559","103978","233466","1558","206413","232787","231849","231849","NA","933","study_X","0","9902","1","yes","1680"
"undefined","undefined","9902","9902","black","no","legacy","legacy","legacy","0","red","(179, 0, 0)","color","present","highProb","circular","swap","same","same","swap","green","(0, 122, 0)","lowProb","lowProb3","circular","uniform","1","undefined","0.0572916666667","1","1","47.8177083333","1","11","9181","0","0","0","0","0","0","0","0","35","0","1","0.0572916666667","47.8177083333","11","9181","35","35","35","08/22/17 11:27:52","Default description","yes","<openexp._canvas.legacy.legacy object at 0x048227F0>","<openexp._canvas.legacy.legacy object at 0x0482E7B0>","<openexp._canvas.legacy.legacy object at 0x04817F70>","<openexp._canvas.legacy.legacy object at 0x0490F9D0>","<openexp._canvas.legacy.legacy object at 0x048E14B0>","<openexp._canvas.legacy.legacy object at 0x04829110>","<openexp._canvas.legacy.legacy object at 0x048E2A50>","75","IndividualPriorityWithDis_v1.osexp","C:/Userdata/Michel/SpatialProb/IndividualPriorityMaps/Experiment2","no","mono","no","18","no","white","no","yes","0.09","98","1050","legacy","45","10","10","1","C:/Userdata/Michel/SpatialProb/IndividualPriorityMaps/Experiment2/data/subject-14.csv","legacy","9","192","25","Jazzy James","3.1.3","yes","598477b2b83f69022949e7e9","47","red","circular","green","circular","0","\","863","space","9902","9902","(80, 80, 80)","(0, 122, 0)","(179, 0, 0)","(155, 155, 155)","2","legacy","experiment","[5, 6, 7, 0, 1, 2, 3, 4]","\","2500","3000","0","8","252.758751519","1024","2","48000","-16","main","[(0, -252), (178, -178), (252, 0), (178, 178), (0, 252), (-178, 178), (-252, 0), (-178, -178)]","[]","14","even","0","178717","206413","206413","94076","93070","1559","113914","113914","1559","1559","103978","235690","1558","206413","234823","233884","233884","NA","933","study_X","0","9902","1","yes","1680"
"undefined","undefined","9902","9902","black","no","legacy","legacy","legacy","0","green","(0, 122, 0)","color","present","highProb","rectangular","swap","swap","swap","swap","red","(179, 0, 0)","lowProb","lowProb3","rectangular","uniform","1","undefined","0.0625","1","1","55.0989583333","1","12","10579","0","0","0","0","0","0","0","0","36","0","1","0.0625","55.0989583333","12","10579","36","36","36","08/22/17 11:27:52","Default description","yes","<openexp._canvas.legacy.legacy object at 0x048227F0>","<openexp._canvas.legacy.legacy object at 0x0482E7B0>","<openexp._canvas.legacy.legacy object at 0x04817F70>","<openexp._canvas.legacy.legacy object at 0x0490F9D0>","<openexp._canvas.legacy.legacy object at 0x048E14B0>","<openexp._canvas.legacy.legacy object at 0x0481FEB0>","<openexp._canvas.legacy.legacy object at 0x048E2A50>","75","IndividualPriorityWithDis_v1.osexp","C:/Userdata/Michel/SpatialProb/IndividualPriorityMaps/Experiment2","no","mono","no","18","no","white","no","yes","0.09","98","1050","legacy","315","11","11","1","C:/Userdata/Michel/SpatialProb/IndividualPriorityMaps/Experiment2/data/subject-14.csv","legacy","9","192","25","Jazzy James","3.1.3","yes","598477b2b83f69022949e7e9","47","green","rectangular","red","rectangular","0","/","1398","space","9902","9902","(80, 80, 80)","(0, 122, 0)","(179, 0, 0)","(155, 155, 155)","2","legacy","experiment","[5, 6, 7, 0, 1, 2, 3, 4]","/","2500","3000","0","8","252.758751519","1024","2","48000","-16","main","[(0, -252), (178, -178), (252, 0), (178, 178), (0, 252), (-178, 178), (-252, 0), (-178, -178)]","[]","14","even","0","178717","206413","206413","94076","93070","1559","113914","113914","1559","1559","103978","238449","1558","206413","237048","236109","236109","NA","933","study_X","0","9902","1","yes","1680"
"undefined","undefined","9902","9902","black","no","legacy","legacy","legacy","0","green","(0, 122, 0)","color","absent","lowProb6","rectangular","same","same","swap","same","green","(0, 122, 0)","lowProb","lowProb1","rectangular","uniform","1","undefined","0.0677083333333","1","1","59.3020833333","1","13","11386","0","0","0","0","0","0","0","0","37","0","1","0.0677083333333","59.3020833333","13","11386","37","37","37","08/22/17 11:27:52","Default description","yes","<openexp._canvas.legacy.legacy object at 0x048227F0>","<openexp._canvas.legacy.legacy object at 0x0482E7B0>","<openexp._canvas.legacy.legacy object at 0x04817F70>","<openexp._canvas.legacy.legacy object at 0x0490F9D0>","<openexp._canvas.legacy.legacy object at 0x048E14B0>","<openexp._canvas.legacy.legacy object at 0x04832710>","<openexp._canvas.legacy.legacy object at 0x048E2A50>","75","IndividualPriorityWithDis_v1.osexp","C:/Userdata/Michel/SpatialProb/IndividualPriorityMaps/Experiment2","no","mono","no","18","no","white","no","yes","0.09","98","1050","legacy","45","12","12","1","C:/Userdata/Michel/SpatialProb/IndividualPriorityMaps/Experiment2/data/subject-14.csv","legacy","9","192","25","Jazzy James","3.1.3","yes","598477b2b83f69022949e7e9","47","green","rectangular","green","rectangular","0","\","807","space","9902","9902","(80, 80, 80)","(0, 122, 0)","(179, 0, 0)","(155, 155, 155)","2","legacy","experiment","[5, 6, 7, 0, 1, 2, 3, 4]","\","2500","3000","0","8","252.758751519","1024","2","48000","-16","main","[(0, -252), (178, -178), (252, 0), (178, 178), (0, 252), (-178, 178), (-252, 0), (-178, -178)]","[]","14","even","6","178717","206413","206413","94076","93070","1559","113914","113914","1559","1559","103978","240625","1558","206413","239816","238877","238877","NA","933","study_X","0","9902","1","yes","1680"
"undefined","undefined","9902","9902","black","no","legacy","legacy","legacy","0","green","(0, 122, 0)","color","absent","lowProb2","rectangular","same","same","same","same","green","(0, 122, 0)","lowProb","lowProb2","rectangular","uniform","1","undefined","0.0729166666667","1","1","64.75","1","14","12432","0","0","0","0","0","0","0","0","38","0","1","0.0729166666667","64.75","14","12432","38","38","38","08/22/17 11:27:52","Default description","yes","<openexp._canvas.legacy.legacy object at 0x048227F0>","<openexp._canvas.legacy.legacy object at 0x0482E7B0>","<openexp._canvas.legacy.legacy object at 0x04817F70>","<openexp._canvas.legacy.legacy object at 0x0490F9D0>","<openexp._canvas.legacy.legacy object at 0x048E14B0>","<openexp._canvas.legacy.legacy object at 0x0481F490>","<openexp._canvas.legacy.legacy object at 0x048E2A50>","75","IndividualPriorityWithDis_v1.osexp","C:/Userdata/Michel/SpatialProb/IndividualPriorityMaps/Experiment2","no","mono","no","18","no","white","no","yes","0.09","98","1050","legacy","315","13","13","1","C:/Userdata/Michel/SpatialProb/IndividualPriorityMaps/Experiment2/data/subject-14.csv","legacy","9","192","25","Jazzy James","3.1.3","yes","598477b2b83f69022949e7e9","47","green","rectangular","green","rectangular","0","/","1046","space","9902","9902","(80, 80, 80)","(0, 122, 0)","(179, 0, 0)","(155, 155, 155)","2","legacy","experiment","[5, 6, 7, 0, 1, 2, 3, 4]","/","2500","3000","0","8","252.758751519","1024","2","48000","-16","main","[(0, -252), (178, -178), (252, 0), (178, 178), (0, 252), (-178, 178), (-252, 0), (-178, -178)]","[]","14","even","7","178717","206413","206413","94076","93070","1559","113914","113914","1559","1559","103978","243025","1558","206413","241977","241038","241038","NA","933","study_X","0","9902","1","yes","1680"
"undefined","undefined","9902","9902","black","no","legacy","legacy","legacy","0","red","(179, 0, 0)","shape","present","highProb","circular","swap","swap","swap","same","red","(179, 0, 0)","lowProb","lowProb4","rectangular","uniform","1","undefined","0.078125","1","1","75.7239583333","1","15","14539","0","0","0","0","0","0","0","0","39","0","1","0.078125","75.7239583333","15","14539","39","39","39","08/22/17 11:27:52","Default description","yes","<openexp._canvas.legacy.legacy object at 0x048227F0>","<openexp._canvas.legacy.legacy object at 0x0482E7B0>","<openexp._canvas.legacy.legacy object at 0x04817F70>","<openexp._canvas.legacy.legacy object at 0x0490F9D0>","<openexp._canvas.legacy.legacy object at 0x048E14B0>","<openexp._canvas.legacy.legacy object at 0x0481F910>","<openexp._canvas.legacy.legacy object at 0x048E2A50>","75","IndividualPriorityWithDis_v1.osexp","C:/Userdata/Michel/SpatialProb/IndividualPriorityMaps/Experiment2","no","mono","no","18","no","white","no","yes","0.09","98","1050","legacy","45","14","14","1","C:/Userdata/Michel/SpatialProb/IndividualPriorityMaps/Experiment2/data/subject-14.csv","legacy","9","192","25","Jazzy James","3.1.3","yes","598477b2b83f69022949e7e9","47","red","circular","red","rectangular","0","\","2107","space","9902","9902","(80, 80, 80)","(0, 122, 0)","(179, 0, 0)","(155, 155, 155)","2","legacy","experiment","[5, 6, 7, 0, 1, 2, 3, 4]","\","2500","3000","0","8","252.758751519","1024","2","48000","-16","main","[(0, -252), (178, -178), (252, 0), (178, 178), (0, 252), (-178, 178), (-252, 0), (-178, -178)]","[]","14","even","2","178717","206413","206413","94076","93070","1559","113914","113914","1559","1559","103978","246481","1558","206413","244371","243432","243432","NA","933","study_X","0","9902","1","yes","1680"
"undefined","undefined","9902","9902","black","no","legacy","legacy","legacy","0","red","(179, 0, 0)","shape","absent","highProb","rectangular","same","swap","same","same","red","(179, 0, 0)","highProbShape","highProbShape","rectangular","uniform","1","undefined","0.0833333333333","1","1","81.6979166667","1","16","15686","0","0","0","0","0","0","0","0","40","0","1","0.0833333333333","81.6979166667","16","15686","40","40","40","08/22/17 11:27:52","Default description","yes","<openexp._canvas.legacy.legacy object at 0x048227F0>","<openexp._canvas.legacy.legacy object at 0x0482E7B0>","<openexp._canvas.legacy.legacy object at 0x04817F70>","<openexp._canvas.legacy.legacy object at 0x0490F9D0>","<openexp._canvas.legacy.legacy object at 0x048E14B0>","<openexp._canvas.legacy.legacy object at 0x0481E850>","<openexp._canvas.legacy.legacy object at 0x048E2A50>","75","IndividualPriorityWithDis_v1.osexp","C:/Userdata/Michel/SpatialProb/IndividualPriorityMaps/Experiment2","no","mono","no","18","no","white","no","yes","0.09","98","1050","legacy","315","15","15","1","C:/Userdata/Michel/SpatialProb/IndividualPriorityMaps/Experiment2/data/subject-14.csv","legacy","9","192","25","Jazzy James","3.1.3","yes","598477b2b83f69022949e7e9","47","red","rectangular","red","rectangular","0","/","1147","space","9902","9902","(80, 80, 80)","(0, 122, 0)","(179, 0, 0)","(155, 155, 155)","2","legacy","experiment","[5, 6, 7, 0, 1, 2, 3, 4]","/","2500","3000","0","8","252.758751519","1024","2","48000","-16","main","[(0, -252), (178, -178), (252, 0), (178, 178), (0, 252), (-178, 178), (-252, 0), (-178, -178)]","[]","14","even","1","178717","206413","206413","94076","93070","1559","113914","113914","1559","1559","103978","248978","1558","206413","247828","246890","246890","NA","933","study_X","0","9902","1","yes","1680"
"undefined","undefined","9902","9902","black","no","legacy","legacy","legacy","0","green","(0, 122, 0)","color","present","highProb","rectangular","swap","same","same","same","red","(179, 0, 0)","lowProb","lowProb6","rectangular","uniform","1","undefined","0.0885416666667","1","1","85.5416666667","1","17","16424","0","0","0","0","0","0","0","0","41","0","1","0.0885416666667","85.5416666667","17","16424","41","41","41","08/22/17 11:27:52","Default description","yes","<openexp._canvas.legacy.legacy object at 0x048227F0>","<openexp._canvas.legacy.legacy object at 0x0482E7B0>","<openexp._canvas.legacy.legacy object at 0x04817F70>","<openexp._canvas.legacy.legacy object at 0x0490F9D0>","<openexp._canvas.legacy.legacy object at 0x048E14B0>","<openexp._canvas.legacy.legacy object at 0x0482E950>","<openexp._canvas.legacy.legacy object at 0x048E2A50>","75","IndividualPriorityWithDis_v1.osexp","C:/Userdata/Michel/SpatialProb/IndividualPriorityMaps/Experiment2","no","mono","no","18","no","white","no","yes","0.09","98","1050","legacy","315","16","16","1","C:/Userdata/Michel/SpatialProb/IndividualPriorityMaps/Experiment2/data/subject-14.csv","legacy","9","192","25","Jazzy James","3.1.3","yes","598477b2b83f69022949e7e9","47","green","rectangular","red","rectangular","0","/","738","space","9902","9902","(80, 80, 80)","(0, 122, 0)","(179, 0, 0)","(155, 155, 155)","2","legacy","experiment","[5, 6, 7, 0, 1, 2, 3, 4]","/","2500","3000","0","8","252.758751519","1024","2","48000","-16","main","[(0, -252), (178, -178), (252, 0), (178, 178), (0, 252), (-178, 178), (-252, 0), (-178, -178)]","[]","14","even","4","178717","206413","206413","94076","93070","1559","113914","113914","1559","1559","103978","251074","1558","206413","250332","249393","249393","NA","933","study_X","0","9902","1","yes","1680"
"undefined","undefined","9902","9902","black","no","legacy","legacy","legacy","0","green","(0, 122, 0)","color","absent","lowProb5","circular","same","swap","swap","swap","green","(0, 122, 0)","lowProb","lowProb4","circular","uniform","1","undefined","0.09375","1","1","89.0625","1","18","17100","0","0","0","0","0","0","0","0","42","0","1","0.09375","89.0625","18","17100","42","42","42","08/22/17 11:27:52","Default description","yes","<openexp._canvas.legacy.legacy object at 0x048227F0>","<openexp._canvas.legacy.legacy object at 0x0482E7B0>","<openexp._canvas.legacy.legacy object at 0x04817F70>","<openexp._canvas.legacy.legacy object at 0x0490F9D0>","<openexp._canvas.legacy.legacy object at 0x048E14B0>","<openexp._canvas.legacy.legacy object at 0x0481FBB0>","<openexp._canvas.legacy.legacy object at 0x048E2A50>","75","IndividualPriorityWithDis_v1.osexp","C:/Userdata/Michel/SpatialProb/IndividualPriorityMaps/Experiment2","no","mono","no","18","no","white","no","yes","0.09","98","1050","legacy","45","17","17","1","C:/Userdata/Michel/SpatialProb/IndividualPriorityMaps/Experiment2/data/subject-14.csv","legacy","9","192","25","Jazzy James","3.1.3","yes","598477b2b83f69022949e7e9","47","green","circular","green","circular","0","\","676","space","9902","9902","(80, 80, 80)","(0, 122, 0)","(179, 0, 0)","(155, 155, 155)","2","legacy","experiment","[5, 6, 7, 0, 1, 2, 3, 4]","\","2500","3000","0","8","252.758751519","1024","2","48000","-16","main","[(0, -252), (178, -178), (252, 0), (178, 178), (0, 252), (-178, 178), (-252, 0), (-178, -178)]","[]","14","even","2","178717","206413","206413","94076","93070","1559","113914","113914","1559","1559","103978","253113","1558","206413","252434","251495","251495","NA","933","study_X","0","9902","1","yes","1680"
"undefined","undefined","9902","9902","black","no","legacy","legacy","legacy","0","red","(179, 0, 0)","shape","present","highProb","rectangular","swap","swap","swap","same","red","(179, 0, 0)","highProbColor","highProbColor","circular","uniform","1","undefined","0.0989583333333","1","1","94.15625","1","19","18078","0","0","0","0","0","0","0","0","43","0","1","0.0989583333333","94.15625","19","18078","43","43","43","08/22/17 11:27:52","Default description","yes","<openexp._canvas.legacy.legacy object at 0x048227F0>","<openexp._canvas.legacy.legacy object at 0x0482E7B0>","<openexp._canvas.legacy.legacy object at 0x04817F70>","<openexp._canvas.legacy.legacy object at 0x0490F9D0>","<openexp._canvas.legacy.legacy object at 0x048E14B0>","<openexp._canvas.legacy.legacy object at 0x0490F430>","<openexp._canvas.legacy.legacy object at 0x048E2A50>","75","IndividualPriorityWithDis_v1.osexp","C:/Userdata/Michel/SpatialProb/IndividualPriorityMaps/Experiment2","no","mono","no","18","no","white","no","yes","0.09","98","1050","legacy","315","18","18","1","C:/Userdata/Michel/SpatialProb/IndividualPriorityMaps/Experiment2/data/subject-14.csv","legacy","9","192","25","Jazzy James","3.1.3","yes","598477b2b83f69022949e7e9","47","red","rectangular","red","circular","0","/","978","space","9902","9902","(80, 80, 80)","(0, 122, 0)","(179, 0, 0)","(155, 155, 155)","2","legacy","experiment","[5, 6, 7, 0, 1, 2, 3, 4]","/","2500","3000","0","8","252.758751519","1024","2","48000","-16","main","[(0, -252), (178, -178), (252, 0), (178, 178), (0, 252), (-178, 178), (-252, 0), (-178, -178)]","[]","14","even","5","178717","206413","206413","94076","93070","1559","113914","113914","1559","1559","103978","255457","1558","206413","254476","253537","253537","NA","933","study_X","0","9902","1","yes","1680"
"undefined","undefined","9902","9902","black","no","legacy","legacy","legacy","0","red","(179, 0, 0)","shape","present","highProb","circular","same","swap","same","swap","red","(179, 0, 0)","lowProb","lowProb4","rectangular","uniform","1","undefined","0.104166666667","1","1","105.765625","1","20","20307","0","0","0","0","0","0","0","0","44","0","1","0.104166666667","105.765625","20","20307","44","44","44","08/22/17 11:27:52","Default description","yes","<openexp._canvas.legacy.legacy object at 0x048227F0>","<openexp._canvas.legacy.legacy object at 0x0482E7B0>","<openexp._canvas.legacy.legacy object at 0x04817F70>","<openexp._canvas.legacy.legacy object at 0x0490F9D0>","<openexp._canvas.legacy.legacy object at 0x048E14B0>","<openexp._canvas.legacy.legacy object at 0x0481E310>","<openexp._canvas.legacy.legacy object at 0x048E2A50>","75","IndividualPriorityWithDis_v1.osexp","C:/Userdata/Michel/SpatialProb/IndividualPriorityMaps/Experiment2","no","mono","no","18","no","white","no","yes","0.09","98","1050","legacy","315","19","19","1","C:/Userdata/Michel/SpatialProb/IndividualPriorityMaps/Experiment2/data/subject-14.csv","legacy","9","192","25","Jazzy James","3.1.3","yes","598477b2b83f69022949e7e9","47","red","circular","red","rectangular","0","/","2229","space","9902","9902","(80, 80, 80)","(0, 122, 0)","(179, 0, 0)","(155, 155, 155)","2","legacy","experiment","[5, 6, 7, 0, 1, 2, 3, 4]","/","2500","3000","0","8","252.758751519","1024","2","48000","-16","main","[(0, -252), (178, -178), (252, 0), (178, 178), (0, 252), (-178, 178), (-252, 0), (-178, -178)]","[]","14","even","2","178717","206413","206413","94076","93070","1559","113914","113914","1559","1559","103978","259081","1558","206413","256849","255910","255910","NA","933","study_X","0","9902","1","yes","1680"
"undefined","undefined","9902","9902","black","no","legacy","legacy","legacy","0","green","(0, 122, 0)","shape","present","highProb","circular","swap","same","swap","same","green","(0, 122, 0)","lowProb","lowProb4","rectangular","uniform","0","undefined","0.104166666667","1","1","118.786458333","1","20","22807","0","0","0","0","0","0","0","0","45","0","1","0.104166666667","118.786458333","20","22807","45","45","45","08/22/17 11:27:52","Default description","yes","<openexp._canvas.legacy.legacy object at 0x048227F0>","<openexp._canvas.legacy.legacy object at 0x0482E7B0>","<openexp._canvas.legacy.legacy object at 0x04817F70>","<openexp._canvas.legacy.legacy object at 0x0490F9D0>","<openexp._canvas.legacy.legacy object at 0x048E14B0>","<openexp._canvas.legacy.legacy object at 0x04829590>","<openexp._canvas.legacy.legacy object at 0x048E2A50>","75","IndividualPriorityWithDis_v1.osexp","C:/Userdata/Michel/SpatialProb/IndividualPriorityMaps/Experiment2","no","mono","no","18","no","white","no","yes","0.09","98","1050","legacy","45","20","20","1","C:/Userdata/Michel/SpatialProb/IndividualPriorityMaps/Experiment2/data/subject-14.csv","legacy","9","192","25","Jazzy James","3.1.3","yes","598477b2b83f69022949e7e9","47","green","circular","green","rectangular","0","None","2500","space","9902","9902","(80, 80, 80)","(0, 122, 0)","(179, 0, 0)","(155, 155, 155)","2","legacy","experiment","[5, 6, 7, 0, 1, 2, 3, 4]","\","2500","3000","0","8","252.758751519","1024","2","48000","-16","main","[(0, -252), (178, -178), (252, 0), (178, 178), (0, 252), (-178, 178), (-252, 0), (-178, -178)]","[]","14","even","2","178717","206413","206413","94076","93070","1559","113914","113914","1559","1559","103978","262941","1558","206413","260438","259499","259499","NA","933","study_X","0","9902","1","yes","1680"
"undefined","undefined","9902","9902","black","no","legacy","legacy","legacy","0","red","(179, 0, 0)","shape","present","highProb","circular","swap","same","swap","same","red","(179, 0, 0)","lowProb","lowProb1","rectangular","uniform","1","undefined","0.109375","1","1","123.895833333","1","21","23788","0","0","0","0","0","0","0","0","46","0","1","0.109375","123.895833333","21","23788","46","46","46","08/22/17 11:27:52","Default description","yes","<openexp._canvas.legacy.legacy object at 0x048227F0>","<openexp._canvas.legacy.legacy object at 0x0482E7B0>","<openexp._canvas.legacy.legacy object at 0x04817F70>","<openexp._canvas.legacy.legacy object at 0x0490F9D0>","<openexp._canvas.legacy.legacy object at 0x048E14B0>","<openexp._canvas.legacy.legacy object at 0x0481E770>","<openexp._canvas.legacy.legacy object at 0x048E2A50>","75","IndividualPriorityWithDis_v1.osexp","C:/Userdata/Michel/SpatialProb/IndividualPriorityMaps/Experiment2","no","mono","no","18","no","white","no","yes","0.09","98","1050","legacy","315","21","21","1","C:/Userdata/Michel/SpatialProb/IndividualPriorityMaps/Experiment2/data/subject-14.csv","legacy","9","192","25","Jazzy James","3.1.3","yes","598477b2b83f69022949e7e9","47","red","circular","red","rectangular","0","/","981","space","9902","9902","(80, 80, 80)","(0, 122, 0)","(179, 0, 0)","(155, 155, 155)","2","legacy","experiment","[5, 6, 7, 0, 1, 2, 3, 4]","/","2500","3000","0","8","252.758751519","1024","2","48000","-16","main","[(0, -252), (178, -178), (252, 0), (178, 178), (0, 252), (-178, 178), (-252, 0), (-178, -178)]","[]","14","even","6","178717","206413","206413","94076","93070","1559","113914","113914","1559","1559","103978","265281","1558","206413","264296","263357","263357","NA","933","study_X","0","9902","1","yes","1680"
"undefined","undefined","9902","9902","black","no","legacy","legacy","legacy","0","red","(179, 0, 0)","color","present","highProb","rectangular","same","swap","swap","same","green","(0, 122, 0)","lowProb","lowProb5","rectangular","uniform","1","undefined","0.114583333333","1","1","129.0625","1","22","24780","0","0","0","0","0","0","0","0","47","0","1","0.114583333333","129.0625","22","24780","47","47","47","08/22/17 11:27:52","Default description","yes","<openexp._canvas.legacy.legacy object at 0x048227F0>","<openexp._canvas.legacy.legacy object at 0x0482E7B0>","<openexp._canvas.legacy.legacy object at 0x04817F70>","<openexp._canvas.legacy.legacy object at 0x0490F9D0>","<openexp._canvas.legacy.legacy object at 0x048E14B0>","<openexp._canvas.legacy.legacy object at 0x04829970>","<openexp._canvas.legacy.legacy object at 0x048E2A50>","75","IndividualPriorityWithDis_v1.osexp","C:/Userdata/Michel/SpatialProb/IndividualPriorityMaps/Experiment2","no","mono","no","18","no","white","no","yes","0.09","98","1050","legacy","315","22","22","1","C:/Userdata/Michel/SpatialProb/IndividualPriorityMaps/Experiment2/data/subject-14.csv","legacy","9","192","25","Jazzy James","3.1.3","yes","598477b2b83f69022949e7e9","47","red","rectangular","green","rectangular","0","/","992","space","9902","9902","(80, 80, 80)","(0, 122, 0)","(179, 0, 0)","(155, 155, 155)","2","legacy","experiment","[5, 6, 7, 0, 1, 2, 3, 4]","/","2500","3000","0","8","252.758751519","1024","2","48000","-16","main","[(0, -252), (178, -178), (252, 0), (178, 178), (0, 252), (-178, 178), (-252, 0), (-178, -178)]","[]","14","even","3","178717","206413","206413","94076","93070","1559","113914","113914","1559","1559","103978","267626","1558","206413","266630","265691","265691","NA","933","study_X","0","9902","1","yes","1680"
"undefined","undefined","9902","9902","black","no","legacy","legacy","legacy","0","red","(179, 0, 0)","shape","present","highProb","rectangular","same","same","swap","swap","red","(179, 0, 0)","lowProb","lowProb6","circular","uniform","1","undefined","0.119791666667","1","1","133.880208333","1","23","25705","0","0","0","0","0","0","0","0","48","0","1","0.119791666667","133.880208333","23","25705","48","48","48","08/22/17 11:27:52","Default description","yes","<openexp._canvas.legacy.legacy object at 0x048227F0>","<openexp._canvas.legacy.legacy object at 0x0482E7B0>","<openexp._canvas.legacy.legacy object at 0x04817F70>","<openexp._canvas.legacy.legacy object at 0x0490F9D0>","<openexp._canvas.legacy.legacy object at 0x048E14B0>","<openexp._canvas.legacy.legacy object at 0x0481E410>","<openexp._canvas.legacy.legacy object at 0x048E2A50>","75","IndividualPriorityWithDis_v1.osexp","C:/Userdata/Michel/SpatialProb/IndividualPriorityMaps/Experiment2","no","mono","no","18","no","white","no","yes","0.09","98","1050","legacy","315","23","23","1","C:/Userdata/Michel/SpatialProb/IndividualPriorityMaps/Experiment2/data/subject-14.csv","legacy","9","192","25","Jazzy James","3.1.3","yes","598477b2b83f69022949e7e9","47","red","rectangular","red","circular","0","/","925","space","9902","9902","(80, 80, 80)","(0, 122, 0)","(179, 0, 0)","(155, 155, 155)","2","legacy","experiment","[5, 6, 7, 0, 1, 2, 3, 4]","/","2500","3000","0","8","252.758751519","1024","2","48000","-16","main","[(0, -252), (178, -178), (252, 0), (178, 178), (0, 252), (-178, 178), (-252, 0), (-178, -178)]","[]","14","even","4","178717","206413","206413","94076","93070","1559","113914","113914","1559","1559","103978","269937","1558","206413","269010","268072","268072","NA","933","study_X","0","9902","1","yes","1680"
"undefined","undefined","9902","9902","black","no","legacy","legacy","legacy","0","green","(0, 122, 0)","shape","present","highProbOther","circular","swap","swap","swap","swap","green","(0, 122, 0)","lowProb","lowProb4","rectangular","uniform","0","undefined","0.119791666667","1","1","146.901041667","1","23","28205","0","0","0","0","0","0","0","0","49","0","1","0.119791666667","146.901041667","23","28205","49","49","49","08/22/17 11:27:52","Default description","yes","<openexp._canvas.legacy.legacy object at 0x048227F0>","<openexp._canvas.legacy.legacy object at 0x0482E7B0>","<openexp._canvas.legacy.legacy object at 0x04817F70>","<openexp._canvas.legacy.legacy object at 0x0490F9D0>","<openexp._canvas.legacy.legacy object at 0x048E14B0>","<openexp._canvas.legacy.legacy object at 0x04832910>","<openexp._canvas.legacy.legacy object at 0x048E2A50>","75","IndividualPriorityWithDis_v1.osexp","C:/Userdata/Michel/SpatialProb/IndividualPriorityMaps/Experiment2","no","mono","no","18","no","white","no","yes","0.09","98","1050","legacy","315","24","24","1","C:/Userdata/Michel/SpatialProb/IndividualPriorityMaps/Experiment2/data/subject-14.csv","legacy","9","192","25","Jazzy James","3.1.3","yes","598477b2b83f69022949e7e9","47","green","circular","green","rectangular","0","None","2500","space","9902","9902","(80, 80, 80)","(0, 122, 0)","(179, 0, 0)","(155, 155, 155)","2","legacy","experiment","[5, 6, 7, 0, 1, 2, 3, 4]","/","2500","3000","0","8","252.758751519","1024","2","48000","-16","main","[(0, -252), (178, -178), (252, 0), (178, 178), (0, 252), (-178, 178), (-252, 0), (-178, -178)]","[]","14","even","2","178717","206413","206413","94076","93070","1559","113914","113914","1559","1559","103978","273798","1558","206413","271295","270356","270356","NA","933","study_X","0","9902","1","yes","1680"
"undefined","undefined","9902","9902","black","no","legacy","legacy","legacy","0","red","(179, 0, 0)","color","absent","lowProb3","circular","swap","same","swap","swap","red","(179, 0, 0)","lowProb","lowProb6","circular","uniform","1","undefined","0.125","1","1","151.380208333","1","24","29065","0","0","0","0","0","0","0","0","50","0","1","0.125","151.380208333","24","29065","50","50","50","08/22/17 11:27:52","Default description","yes","<openexp._canvas.legacy.legacy object at 0x048227F0>","<openexp._canvas.legacy.legacy object at 0x0482E7B0>","<openexp._canvas.legacy.legacy object at 0x04817F70>","<openexp._canvas.legacy.legacy object at 0x0490F9D0>","<openexp._canvas.legacy.legacy object at 0x048E14B0>","<openexp._canvas.legacy.legacy object at 0x0481E050>","<openexp._canvas.legacy.legacy object at 0x048E2A50>","75","IndividualPriorityWithDis_v1.osexp","C:/Userdata/Michel/SpatialProb/IndividualPriorityMaps/Experiment2","no","mono","no","18","no","white","no","yes","0.09","98","1050","legacy","315","25","25","1","C:/Userdata/Michel/SpatialProb/IndividualPriorityMaps/Experiment2/data/subject-14.csv","legacy","9","192","25","Jazzy James","3.1.3","yes","598477b2b83f69022949e7e9","47","red","circular","red","circular","0","/","860","space","9902","9902","(80, 80, 80)","(0, 122, 0)","(179, 0, 0)","(155, 155, 155)","2","legacy","experiment","[5, 6, 7, 0, 1, 2, 3, 4]","/","2500","3000","0","8","252.758751519","1024","2","48000","-16","main","[(0, -252), (178, -178), (252, 0), (178, 178), (0, 252), (-178, 178), (-252, 0), (-178, -178)]","[]","14","even","4","178717","206413","206413","94076","93070","1559","113914","113914","1559","1559","103978","276017","1558","206413","275154","274216","274216","NA","933","study_X","0","9902","1","yes","1680"
"undefined","undefined","9902","9902","black","no","legacy","legacy","legacy","0","red","(179, 0, 0)","shape","present","lowProb5","rectangular","same","swap","same","same","red","(179, 0, 0)","lowProb","lowProb6","circular","uniform","1","undefined","0.130208333333","1","1","154.9375","1","25","29748","0","0","0","0","0","0","0","0","51","0","1","0.130208333333","154.9375","25","29748","51","51","51","08/22/17 11:27:52","Default description","yes","<openexp._canvas.legacy.legacy object at 0x048227F0>","<openexp._canvas.legacy.legacy object at 0x0482E7B0>","<openexp._canvas.legacy.legacy object at 0x04817F70>","<openexp._canvas.legacy.legacy object at 0x0490F9D0>","<openexp._canvas.legacy.legacy object at 0x048E14B0>","<openexp._canvas.legacy.legacy object at 0x04817030>","<openexp._canvas.legacy.legacy object at 0x048E2A50>","75","IndividualPriorityWithDis_v1.osexp","C:/Userdata/Michel/SpatialProb/IndividualPriorityMaps/Experiment2","no","mono","no","18","no","white","no","yes","0.09","98","1050","legacy","315","26","26","1","C:/Userdata/Michel/SpatialProb/IndividualPriorityMaps/Experiment2/data/subject-14.csv","legacy","9","192","25","Jazzy James","3.1.3","yes","598477b2b83f69022949e7e9","47","red","rectangular","red","circular","0","/","683","space","9902","9902","(80, 80, 80)","(0, 122, 0)","(179, 0, 0)","(155, 155, 155)","2","legacy","experiment","[5, 6, 7, 0, 1, 2, 3, 4]","/","2500","3000","0","8","252.758751519","1024","2","48000","-16","main","[(0, -252), (178, -178), (252, 0), (178, 178), (0, 252), (-178, 178), (-252, 0), (-178, -178)]","[]","14","even","4","178717","206413","206413","94076","93070","1559","113914","113914","1559","1559","103978","278073","1558","206413","277386","276447","276447","NA","933","study_X","0","9902","1","yes","1680"
"undefined","undefined","9902","9902","black","no","legacy","legacy","legacy","0","green","(0, 122, 0)","color","present","highProb","rectangular","swap","same","same","swap","red","(179, 0, 0)","lowProb","lowProb1","rectangular","uniform","1","undefined","0.135416666667","1","1","160.354166667","1","26","30788","0","0","0","0","0","0","0","0","52","0","1","0.135416666667","160.354166667","26","30788","52","52","52","08/22/17 11:27:52","Default description","yes","<openexp._canvas.legacy.legacy object at 0x048227F0>","<openexp._canvas.legacy.legacy object at 0x0482E7B0>","<openexp._canvas.legacy.legacy object at 0x04817F70>","<openexp._canvas.legacy.legacy object at 0x0490F9D0>","<openexp._canvas.legacy.legacy object at 0x048E14B0>","<openexp._canvas.legacy.legacy object at 0x0481E0B0>","<openexp._canvas.legacy.legacy object at 0x048E2A50>","75","IndividualPriorityWithDis_v1.osexp","C:/Userdata/Michel/SpatialProb/IndividualPriorityMaps/Experiment2","no","mono","no","18","no","white","no","yes","0.09","98","1050","legacy","315","27","27","1","C:/Userdata/Michel/SpatialProb/IndividualPriorityMaps/Experiment2/data/subject-14.csv","legacy","9","192","25","Jazzy James","3.1.3","yes","598477b2b83f69022949e7e9","47","green","rectangular","red","rectangular","0","/","1040","space","9902","9902","(80, 80, 80)","(0, 122, 0)","(179, 0, 0)","(155, 155, 155)","2","legacy","experiment","[5, 6, 7, 0, 1, 2, 3, 4]","/","2500","3000","0","8","252.758751519","1024","2","48000","-16","main","[(0, -252), (178, -178), (252, 0), (178, 178), (0, 252), (-178, 178), (-252, 0), (-178, -178)]","[]","14","even","6","178717","206413","206413","94076","93070","1559","113914","113914","1559","1559","103978","280465","1558","206413","279422","278483","278483","NA","933","study_X","0","9902","1","yes","1680"
"undefined","undefined","9902","9902","black","no","legacy","legacy","legacy","0","red","(179, 0, 0)","color","absent","highProbOther","circular","swap","swap","same","swap","red","(179, 0, 0)","lowProb","lowProb1","circular","uniform","1","undefined","0.140625","1","1","164.463541667","1","27","31577","0","0","0","0","0","0","0","0","53","0","1","0.140625","164.463541667","27","31577","53","53","53","08/22/17 11:27:52","Default description","yes","<openexp._canvas.legacy.legacy object at 0x048227F0>","<openexp._canvas.legacy.legacy object at 0x0482E7B0>","<openexp._canvas.legacy.legacy object at 0x04817F70>","<openexp._canvas.legacy.legacy object at 0x0490F9D0>","<openexp._canvas.legacy.legacy object at 0x048E14B0>","<openexp._canvas.legacy.legacy object at 0x048290D0>","<openexp._canvas.legacy.legacy object at 0x048E2A50>","75","IndividualPriorityWithDis_v1.osexp","C:/Userdata/Michel/SpatialProb/IndividualPriorityMaps/Experiment2","no","mono","no","18","no","white","no","yes","0.09","98","1050","legacy","315","28","28","1","C:/Userdata/Michel/SpatialProb/IndividualPriorityMaps/Experiment2/data/subject-14.csv","legacy","9","192","25","Jazzy James","3.1.3","yes","598477b2b83f69022949e7e9","47","red","circular","red","circular","0","/","789","space","9902","9902","(80, 80, 80)","(0, 122, 0)","(179, 0, 0)","(155, 155, 155)","2","legacy","experiment","[5, 6, 7, 0, 1, 2, 3, 4]","/","2500","3000","0","8","252.758751519","1024","2","48000","-16","main","[(0, -252), (178, -178), (252, 0), (178, 178), (0, 252), (-178, 178), (-252, 0), (-178, -178)]","[]","14","even","6","178717","206413","206413","94076","93070","1559","113914","113914","1559","1559","103978","282617","1558","206413","281824","280885","280885","NA","933","study_X","0","9902","1","yes","1680"
"undefined","undefined","9902","9902","black","no","legacy","legacy","legacy","0","green","(0, 122, 0)","shape","present","highProb","circular","swap","same","swap","swap","green","(0, 122, 0)","lowProb","lowProb4","rectangular","uniform","1","undefined","0.145833333333","1","1","172.911458333","1","28","33199","0","0","0","0","0","0","0","0","54","0","1","0.145833333333","172.911458333","28","33199","54","54","54","08/22/17 11:27:52","Default description","yes","<openexp._canvas.legacy.legacy object at 0x048227F0>","<openexp._canvas.legacy.legacy object at 0x0482E7B0>","<openexp._canvas.legacy.legacy object at 0x04817F70>","<openexp._canvas.legacy.legacy object at 0x0490F9D0>","<openexp._canvas.legacy.legacy object at 0x048E14B0>","<openexp._canvas.legacy.legacy object at 0x04915D90>","<openexp._canvas.legacy.legacy object at 0x048E2A50>","75","IndividualPriorityWithDis_v1.osexp","C:/Userdata/Michel/SpatialProb/IndividualPriorityMaps/Experiment2","no","mono","no","18","no","white","no","yes","0.09","98","1050","legacy","45","29","29","1","C:/Userdata/Michel/SpatialProb/IndividualPriorityMaps/Experiment2/data/subject-14.csv","legacy","9","192","25","Jazzy James","3.1.3","yes","598477b2b83f69022949e7e9","47","green","circular","green","rectangular","0","\","1622","space","9902","9902","(80, 80, 80)","(0, 122, 0)","(179, 0, 0)","(155, 155, 155)","2","legacy","experiment","[5, 6, 7, 0, 1, 2, 3, 4]","\","2500","3000","0","8","252.758751519","1024","2","48000","-16","main","[(0, -252), (178, -178), (252, 0), (178, 178), (0, 252), (-178, 178), (-252, 0), (-178, -178)]","[]","14","even","2","178717","206413","206413","94076","93070","1559","113914","113914","1559","1559","103978","285593","1558","206413","283968","283029","283029","NA","933","study_X","0","9902","1","yes","1680"
"undefined","undefined","9902","9902","black","no","legacy","legacy","legacy","0","green","(0, 122, 0)","color","present","highProb","rectangular","same","swap","swap","same","red","(179, 0, 0)","lowProb","lowProb6","rectangular","uniform","1","undefined","0.151041666667","1","1","177.197916667","1","29","34022","0","0","0","0","0","0","0","0","55","0","1","0.151041666667","177.197916667","29","34022","55","55","55","08/22/17 11:27:52","Default description","yes","<openexp._canvas.legacy.legacy object at 0x048227F0>","<openexp._canvas.legacy.legacy object at 0x0482E7B0>","<openexp._canvas.legacy.legacy object at 0x04817F70>","<openexp._canvas.legacy.legacy object at 0x0490F9D0>","<openexp._canvas.legacy.legacy object at 0x048E14B0>","<openexp._canvas.legacy.legacy object at 0x0490BC10>","<openexp._canvas.legacy.legacy object at 0x048E2A50>","75","IndividualPriorityWithDis_v1.osexp","C:/Userdata/Michel/SpatialProb/IndividualPriorityMaps/Experiment2","no","mono","no","18","no","white","no","yes","0.09","98","1050","legacy","45","30","30","1","C:/Userdata/Michel/SpatialProb/IndividualPriorityMaps/Experiment2/data/subject-14.csv","legacy","9","192","25","Jazzy James","3.1.3","yes","598477b2b83f69022949e7e9","47","green","rectangular","red","rectangular","0","\","823","space","9902","9902","(80, 80, 80)","(0, 122, 0)","(179, 0, 0)","(155, 155, 155)","2","legacy","experiment","[5, 6, 7, 0, 1, 2, 3, 4]","\","2500","3000","0","8","252.758751519","1024","2","48000","-16","main","[(0, -252), (178, -178), (252, 0), (178, 178), (0, 252), (-178, 178), (-252, 0), (-178, -178)]","[]","14","even","4","178717","206413","206413","94076","93070","1559","113914","113914","1559","1559","103978","287769","1558","206413","286943","286004","286004","NA","933","study_X","0","9902","1","yes","1680"
"undefined","undefined","9902","9902","black","no","legacy","legacy","legacy","0","red","(179, 0, 0)","color","present","highProb","rectangular","swap","same","swap","same","green","(0, 122, 0)","lowProb","lowProb2","rectangular","uniform","0","undefined","0.151041666667","1","1","184.432291667","1","29","35411","0","0","0","0","0","0","0","0","56","0","1","0.151041666667","184.432291667","29","35411","56","56","56","08/22/17 11:27:52","Default description","yes","<openexp._canvas.legacy.legacy object at 0x048227F0>","<openexp._canvas.legacy.legacy object at 0x0482E7B0>","<openexp._canvas.legacy.legacy object at 0x04817F70>","<openexp._canvas.legacy.legacy object at 0x0490F9D0>","<openexp._canvas.legacy.legacy object at 0x048E14B0>","<openexp._canvas.legacy.legacy object at 0x04824D70>","<openexp._canvas.legacy.legacy object at 0x048E2A50>","75","IndividualPriorityWithDis_v1.osexp","C:/Userdata/Michel/SpatialProb/IndividualPriorityMaps/Experiment2","no","mono","no","18","no","white","no","yes","0.09","98","1050","legacy","45","31","31","1","C:/Userdata/Michel/SpatialProb/IndividualPriorityMaps/Experiment2/data/subject-14.csv","legacy","9","192","25","Jazzy James","3.1.3","yes","598477b2b83f69022949e7e9","47","red","rectangular","green","rectangular","0","/","1389","space","9902","9902","(80, 80, 80)","(0, 122, 0)","(179, 0, 0)","(155, 155, 155)","2","legacy","experiment","[5, 6, 7, 0, 1, 2, 3, 4]","\","2500","3000","0","8","252.758751519","1024","2","48000","-16","main","[(0, -252), (178, -178), (252, 0), (178, 178), (0, 252), (-178, 178), (-252, 0), (-178, -178)]","[]","14","even","7","178717","206413","206413","94076","93070","1559","113914","113914","1559","1559","103978","290521","1558","206413","289129","288190","288190","NA","933","study_X","0","9902","1","yes","1680"
"undefined","undefined","9902","9902","black","no","legacy","legacy","legacy","0","green","(0, 122, 0)","shape","present","highProb","rectangular","swap","same","same","swap","green","(0, 122, 0)","highProbColor","highProbColor","circular","uniform","1","undefined","0.15625","1","1","188.046875","1","30","36105","0","0","0","0","0","0","0","0","57","0","1","0.15625","188.046875","30","36105","57","57","57","08/22/17 11:27:52","Default description","yes","<openexp._canvas.legacy.legacy object at 0x048227F0>","<openexp._canvas.legacy.legacy object at 0x0482E7B0>","<openexp._canvas.legacy.legacy object at 0x04817F70>","<openexp._canvas.legacy.legacy object at 0x0490F9D0>","<openexp._canvas.legacy.legacy object at 0x048E14B0>","<openexp._canvas.legacy.legacy object at 0x04824B90>","<openexp._canvas.legacy.legacy object at 0x048E2A50>","75","IndividualPriorityWithDis_v1.osexp","C:/Userdata/Michel/SpatialProb/IndividualPriorityMaps/Experiment2","no","mono","no","18","no","white","no","yes","0.09","98","1050","legacy","315","32","32","1","C:/Userdata/Michel/SpatialProb/IndividualPriorityMaps/Experiment2/data/subject-14.csv","legacy","9","192","25","Jazzy James","3.1.3","yes","598477b2b83f69022949e7e9","47","green","rectangular","green","circular","0","/","694","space","9902","9902","(80, 80, 80)","(0, 122, 0)","(179, 0, 0)","(155, 155, 155)","2","legacy","experiment","[5, 6, 7, 0, 1, 2, 3, 4]","/","2500","3000","0","8","252.758751519","1024","2","48000","-16","main","[(0, -252), (178, -178), (252, 0), (178, 178), (0, 252), (-178, 178), (-252, 0), (-178, -178)]","[]","14","even","5","178717","206413","206413","94076","93070","1559","113914","113914","1559","1559","103978","292577","1558","206413","291880","290941","290941","NA","933","study_X","0","9902","1","yes","1680"
"undefined","undefined","9902","9902","black","no","legacy","legacy","legacy","0","red","(179, 0, 0)","color","present","highProb","rectangular","swap","same","same","swap","green","(0, 122, 0)","lowProb","lowProb3","rectangular","uniform","1","undefined","0.161458333333","1","1","197.84375","1","31","37986","0","0","0","0","0","0","0","0","58","0","1","0.161458333333","197.84375","31","37986","58","58","58","08/22/17 11:27:52","Default description","yes","<openexp._canvas.legacy.legacy object at 0x048227F0>","<openexp._canvas.legacy.legacy object at 0x0482E7B0>","<openexp._canvas.legacy.legacy object at 0x04817F70>","<openexp._canvas.legacy.legacy object at 0x0490F9D0>","<openexp._canvas.legacy.legacy object at 0x048E14B0>","<openexp._canvas.legacy.legacy object at 0x04839C50>","<openexp._canvas.legacy.legacy object at 0x048E2A50>","75","IndividualPriorityWithDis_v1.osexp","C:/Userdata/Michel/SpatialProb/IndividualPriorityMaps/Experiment2","no","mono","no","18","no","white","no","yes","0.09","98","1050","legacy","45","33","33","1","C:/Userdata/Michel/SpatialProb/IndividualPriorityMaps/Experiment2/data/subject-14.csv","legacy","9","192","25","Jazzy James","3.1.3","yes","598477b2b83f69022949e7e9","47","red","rectangular","green","rectangular","0","\","1881","space","9902","9902","(80, 80, 80)","(0, 122, 0)","(179, 0, 0)","(155, 155, 155)","2","legacy","experiment","[5, 6, 7, 0, 1, 2, 3, 4]","\","2500","3000","0","8","252.758751519","1024","2","48000","-16","main","[(0, -252), (178, -178), (252, 0), (178, 178), (0, 252), (-178, 178), (-252, 0), (-178, -178)]","[]","14","even","0","178717","206413","206413","94076","93070","1559","113914","113914","1559","1559","103978","295841","1558","206413","293956","293017","293017","NA","933","study_X","0","9902","1","yes","1680"
"undefined","undefined","9902","9902","black","no","legacy","legacy","legacy","0","red","(179, 0, 0)","color","present","highProb","circular","same","swap","same","swap","green","(0, 122, 0)","lowProb","lowProb4","circular","uniform","1","undefined","0.166666666667","1","1","204.817708333","1","32","39325","0","0","0","0","0","0","0","0","59","0","1","0.166666666667","204.817708333","32","39325","59","59","59","08/22/17 11:27:52","Default description","yes","<openexp._canvas.legacy.legacy object at 0x048227F0>","<openexp._canvas.legacy.legacy object at 0x0482E7B0>","<openexp._canvas.legacy.legacy object at 0x04817F70>","<openexp._canvas.legacy.legacy object at 0x0490F9D0>","<openexp._canvas.legacy.legacy object at 0x048E14B0>","<openexp._canvas.legacy.legacy object at 0x04822630>","<openexp._canvas.legacy.legacy object at 0x048E2A50>","75","IndividualPriorityWithDis_v1.osexp","C:/Userdata/Michel/SpatialProb/IndividualPriorityMaps/Experiment2","no","mono","no","18","no","white","no","yes","0.09","98","1050","legacy","45","34","34","1","C:/Userdata/Michel/SpatialProb/IndividualPriorityMaps/Experiment2/data/subject-14.csv","legacy","9","192","25","Jazzy James","3.1.3","yes","598477b2b83f69022949e7e9","47","red","circular","green","circular","0","\","1339","space","9902","9902","(80, 80, 80)","(0, 122, 0)","(179, 0, 0)","(155, 155, 155)","2","legacy","experiment","[5, 6, 7, 0, 1, 2, 3, 4]","\","2500","3000","0","8","252.758751519","1024","2","48000","-16","main","[(0, -252), (178, -178), (252, 0), (178, 178), (0, 252), (-178, 178), (-252, 0), (-178, -178)]","[]","14","even","2","178717","206413","206413","94076","93070","1559","113914","113914","1559","1559","103978","298545","1558","206413","297202","296263","296263","NA","933","study_X","0","9902","1","yes","1680"
"undefined","undefined","9902","9902","black","no","legacy","legacy","legacy","0","green","(0, 122, 0)","color","present","highProb","rectangular","swap","swap","swap","swap","red","(179, 0, 0)","lowProb","lowProb5","rectangular","uniform","1","undefined","0.171875","1","1","210.541666667","1","33","40424","0","0","0","0","0","0","0","0","60","0","1","0.171875","210.541666667","33","40424","60","60","60","08/22/17 11:27:52","Default description","yes","<openexp._canvas.legacy.legacy object at 0x048227F0>","<openexp._canvas.legacy.legacy object at 0x0482E7B0>","<openexp._canvas.legacy.legacy object at 0x04817F70>","<openexp._canvas.legacy.legacy object at 0x0490F9D0>","<openexp._canvas.legacy.legacy object at 0x048E14B0>","<openexp._canvas.legacy.legacy object at 0x0490BD50>","<openexp._canvas.legacy.legacy object at 0x048E2A50>","75","IndividualPriorityWithDis_v1.osexp","C:/Userdata/Michel/SpatialProb/IndividualPriorityMaps/Experiment2","no","mono","no","18","no","white","no","yes","0.09","98","1050","legacy","315","35","35","1","C:/Userdata/Michel/SpatialProb/IndividualPriorityMaps/Experiment2/data/subject-14.csv","legacy","9","192","25","Jazzy James","3.1.3","yes","598477b2b83f69022949e7e9","47","green","rectangular","red","rectangular","0","/","1099","space","9902","9902","(80, 80, 80)","(0, 122, 0)","(179, 0, 0)","(155, 155, 155)","2","legacy","experiment","[5, 6, 7, 0, 1, 2, 3, 4]","/","2500","3000","0","8","252.758751519","1024","2","48000","-16","main","[(0, -252), (178, -178), (252, 0), (178, 178), (0, 252), (-178, 178), (-252, 0), (-178, -178)]","[]","14","even","3","178717","206413","206413","94076","93070","1559","113914","113914","1559","1559","103978","301001","1558","206413","299899","298961","298961","NA","933","study_X","0","9902","1","yes","1680"
"undefined","undefined","9902","9902","black","no","legacy","legacy","legacy","0","red","(179, 0, 0)","shape","absent","highProbOther","rectangular","swap","same","same","same","red","(179, 0, 0)","highProbShape","highProbShape","rectangular","uniform","0","undefined","0.171875","1","1","215.354166667","1","33","41348","0","0","0","0","0","0","0","0","61","0","1","0.171875","215.354166667","33","41348","61","61","61","08/22/17 11:27:52","Default description","yes","<openexp._canvas.legacy.legacy object at 0x048227F0>","<openexp._canvas.legacy.legacy object at 0x0482E7B0>","<openexp._canvas.legacy.legacy object at 0x04817F70>","<openexp._canvas.legacy.legacy object at 0x0490F9D0>","<openexp._canvas.legacy.legacy object at 0x048E14B0>","<openexp._canvas.legacy.legacy object at 0x048395F0>","<openexp._canvas.legacy.legacy object at 0x048E2A50>","75","IndividualPriorityWithDis_v1.osexp","C:/Userdata/Michel/SpatialProb/IndividualPriorityMaps/Experiment2","no","mono","no","18","no","white","no","yes","0.09","98","1050","legacy","45","36","36","1","C:/Userdata/Michel/SpatialProb/IndividualPriorityMaps/Experiment2/data/subject-14.csv","legacy","9","192","25","Jazzy James","3.1.3","yes","598477b2b83f69022949e7e9","47","red","rectangular","red","rectangular","0","/","924","space","9902","9902","(80, 80, 80)","(0, 122, 0)","(179, 0, 0)","(155, 155, 155)","2","legacy","experiment","[5, 6, 7, 0, 1, 2, 3, 4]","\","2500","3000","0","8","252.758751519","1024","2","48000","-16","main","[(0, -252), (178, -178), (252, 0), (178, 178), (0, 252), (-178, 178), (-252, 0), (-178, -178)]","[]","14","even","1","178717","206413","206413","94076","93070","1559","113914","113914","1559","1559","103978","303281","1558","206413","302354","301415","301415","NA","933","study_X","0","9902","1","yes","1680"
"undefined","undefined","9902","9902","black","no","legacy","legacy","legacy","0","green","(0, 122, 0)","shape","present","highProbOther","rectangular","swap","same","swap","swap","green","(0, 122, 0)","lowProb","lowProb5","circular","uniform","1","undefined","0.177083333333","1","1","223.057291667","1","34","42827","0","0","0","0","0","0","0","0","62","0","1","0.177083333333","223.057291667","34","42827","62","62","62","08/22/17 11:27:52","Default description","yes","<openexp._canvas.legacy.legacy object at 0x048227F0>","<openexp._canvas.legacy.legacy object at 0x0482E7B0>","<openexp._canvas.legacy.legacy object at 0x04817F70>","<openexp._canvas.legacy.legacy object at 0x0490F9D0>","<openexp._canvas.legacy.legacy object at 0x048E14B0>","<openexp._canvas.legacy.legacy object at 0x0490F650>","<openexp._canvas.legacy.legacy object at 0x048E2A50>","75","IndividualPriorityWithDis_v1.osexp","C:/Userdata/Michel/SpatialProb/IndividualPriorityMaps/Experiment2","no","mono","no","18","no","white","no","yes","0.09","98","1050","legacy","45","37","37","1","C:/Userdata/Michel/SpatialProb/IndividualPriorityMaps/Experiment2/data/subject-14.csv","legacy","9","192","25","Jazzy James","3.1.3","yes","598477b2b83f69022949e7e9","47","green","rectangular","green","circular","0","\","1479","space","9902","9902","(80, 80, 80)","(0, 122, 0)","(179, 0, 0)","(155, 155, 155)","2","legacy","experiment","[5, 6, 7, 0, 1, 2, 3, 4]","\","2500","3000","0","8","252.758751519","1024","2","48000","-16","main","[(0, -252), (178, -178), (252, 0), (178, 178), (0, 252), (-178, 178), (-252, 0), (-178, -178)]","[]","14","even","3","178717","206413","206413","94076","93070","1559","113914","113914","1559","1559","103978","306121","1558","206413","304639","303700","303700","NA","933","study_X","0","9902","1","yes","1680"
"undefined","undefined","9902","9902","black","no","legacy","legacy","legacy","0","red","(179, 0, 0)","color","present","lowProb1","circular","swap","swap","same","same","green","(0, 122, 0)","lowProb","lowProb4","circular","uniform","1","undefined","0.182291666667","1","1","227.583333333","1","35","43696","0","0","0","0","0","0","0","0","63","0","1","0.182291666667","227.583333333","35","43696","63","63","63","08/22/17 11:27:52","Default description","yes","<openexp._canvas.legacy.legacy object at 0x048227F0>","<openexp._canvas.legacy.legacy object at 0x0482E7B0>","<openexp._canvas.legacy.legacy object at 0x04817F70>","<openexp._canvas.legacy.legacy object at 0x0490F9D0>","<openexp._canvas.legacy.legacy object at 0x048E14B0>","<openexp._canvas.legacy.legacy object at 0x04822150>","<openexp._canvas.legacy.legacy object at 0x048E2A50>","75","IndividualPriorityWithDis_v1.osexp","C:/Userdata/Michel/SpatialProb/IndividualPriorityMaps/Experiment2","no","mono","no","18","no","white","no","yes","0.09","98","1050","legacy","45","38","38","1","C:/Userdata/Michel/SpatialProb/IndividualPriorityMaps/Experiment2/data/subject-14.csv","legacy","9","192","25","Jazzy James","3.1.3","yes","598477b2b83f69022949e7e9","47","red","circular","green","circular","0","\","869","space","9902","9902","(80, 80, 80)","(0, 122, 0)","(179, 0, 0)","(155, 155, 155)","2","legacy","experiment","[5, 6, 7, 0, 1, 2, 3, 4]","\","2500","3000","0","8","252.758751519","1024","2","48000","-16","main","[(0, -252), (178, -178), (252, 0), (178, 178), (0, 252), (-178, 178), (-252, 0), (-178, -178)]","[]","14","even","2","178717","206413","206413","94076","93070","1559","113914","113914","1559","1559","103978","308353","1558","206413","307481","306543","306543","NA","933","study_X","0","9902","1","yes","1680"
"undefined","undefined","9902","9902","black","no","legacy","legacy","legacy","0","green","(0, 122, 0)","shape","present","highProb","rectangular","swap","swap","same","same","green","(0, 122, 0)","lowProb","lowProb3","circular","uniform","1","undefined","0.1875","1","1","232.911458333","1","36","44719","0","0","0","0","0","0","0","0","64","0","1","0.1875","232.911458333","36","44719","64","64","64","08/22/17 11:27:52","Default description","yes","<openexp._canvas.legacy.legacy object at 0x048227F0>","<openexp._canvas.legacy.legacy object at 0x0482E7B0>","<openexp._canvas.legacy.legacy object at 0x04817F70>","<openexp._canvas.legacy.legacy object at 0x0490F9D0>","<openexp._canvas.legacy.legacy object at 0x048E14B0>","<openexp._canvas.legacy.legacy object at 0x0490FA90>","<openexp._canvas.legacy.legacy object at 0x048E2A50>","75","IndividualPriorityWithDis_v1.osexp","C:/Userdata/Michel/SpatialProb/IndividualPriorityMaps/Experiment2","no","mono","no","18","no","white","no","yes","0.09","98","1050","legacy","315","39","39","1","C:/Userdata/Michel/SpatialProb/IndividualPriorityMaps/Experiment2/data/subject-14.csv","legacy","9","192","25","Jazzy James","3.1.3","yes","598477b2b83f69022949e7e9","47","green","rectangular","green","circular","0","/","1023","space","9902","9902","(80, 80, 80)","(0, 122, 0)","(179, 0, 0)","(155, 155, 155)","2","legacy","experiment","[5, 6, 7, 0, 1, 2, 3, 4]","/","2500","3000","0","8","252.758751519","1024","2","48000","-16","main","[(0, -252), (178, -178), (252, 0), (178, 178), (0, 252), (-178, 178), (-252, 0), (-178, -178)]","[]","14","even","0","178717","206413","206413","94076","93070","1559","113914","113914","1559","1559","103978","310753","1558","206413","309726","308787","308787","NA","933","study_X","0","9902","1","yes","1680"
"undefined","undefined","9902","9902","black","no","legacy","legacy","legacy","0","green","(0, 122, 0)","color","present","lowProb1","rectangular","same","same","swap","swap","red","(179, 0, 0)","lowProb","lowProb5","rectangular","uniform","1","undefined","0.192708333333","1","1","236.703125","1","37","45447","0","0","0","0","0","0","0","0","65","0","1","0.192708333333","236.703125","37","45447","65","65","65","08/22/17 11:27:52","Default description","yes","<openexp._canvas.legacy.legacy object at 0x048227F0>","<openexp._canvas.legacy.legacy object at 0x0482E7B0>","<openexp._canvas.legacy.legacy object at 0x04817F70>","<openexp._canvas.legacy.legacy object at 0x0490F9D0>","<openexp._canvas.legacy.legacy object at 0x048E14B0>","<openexp._canvas.legacy.legacy object at 0x04839F90>","<openexp._canvas.legacy.legacy object at 0x048E2A50>","75","IndividualPriorityWithDis_v1.osexp","C:/Userdata/Michel/SpatialProb/IndividualPriorityMaps/Experiment2","no","mono","no","18","no","white","no","yes","0.09","98","1050","legacy","315","40","40","1","C:/Userdata/Michel/SpatialProb/IndividualPriorityMaps/Experiment2/data/subject-14.csv","legacy","9","192","25","Jazzy James","3.1.3","yes","598477b2b83f69022949e7e9","47","green","rectangular","red","rectangular","0","/","728","space","9902","9902","(80, 80, 80)","(0, 122, 0)","(179, 0, 0)","(155, 155, 155)","2","legacy","experiment","[5, 6, 7, 0, 1, 2, 3, 4]","/","2500","3000","0","8","252.758751519","1024","2","48000","-16","main","[(0, -252), (178, -178), (252, 0), (178, 178), (0, 252), (-178, 178), (-252, 0), (-178, -178)]","[]","14","even","3","178717","206413","206413","94076","93070","1559","113914","113914","1559","1559","103978","312833","1558","206413","312101","311162","311162","NA","933","study_X","0","9902","1","yes","1680"
"undefined","undefined","9902","9902","black","no","legacy","legacy","legacy","0","green","(0, 122, 0)","shape","present","highProb","rectangular","same","same","swap","swap","green","(0, 122, 0)","lowProb","lowProb2","circular","uniform","0","undefined","0.192708333333","1","1","243.203125","1","37","46695","0","0","0","0","0","0","0","0","66","0","1","0.192708333333","243.203125","37","46695","66","66","66","08/22/17 11:27:52","Default description","yes","<openexp._canvas.legacy.legacy object at 0x048227F0>","<openexp._canvas.legacy.legacy object at 0x0482E7B0>","<openexp._canvas.legacy.legacy object at 0x04817F70>","<openexp._canvas.legacy.legacy object at 0x0490F9D0>","<openexp._canvas.legacy.legacy object at 0x048E14B0>","<openexp._canvas.legacy.legacy object at 0x0490FF70>","<openexp._canvas.legacy.legacy object at 0x048E2A50>","75","IndividualPriorityWithDis_v1.osexp","C:/Userdata/Michel/SpatialProb/IndividualPriorityMaps/Experiment2","no","mono","no","18","no","white","no","yes","0.09","98","1050","legacy","315","41","41","1","C:/Userdata/Michel/SpatialProb/IndividualPriorityMaps/Experiment2/data/subject-14.csv","legacy","9","192","25","Jazzy James","3.1.3","yes","598477b2b83f69022949e7e9","47","green","rectangular","green","circular","0","\","1248","space","9902","9902","(80, 80, 80)","(0, 122, 0)","(179, 0, 0)","(155, 155, 155)","2","legacy","experiment","[5, 6, 7, 0, 1, 2, 3, 4]","/","2500","3000","0","8","252.758751519","1024","2","48000","-16","main","[(0, -252), (178, -178), (252, 0), (178, 178), (0, 252), (-178, 178), (-252, 0), (-178, -178)]","[]","14","even","7","178717","206413","206413","94076","93070","1559","113914","113914","1559","1559","103978","315448","1558","206413","314197","313258","313258","NA","933","study_X","0","9902","1","yes","1680"
"undefined","undefined","9902","9902","black","no","legacy","legacy","legacy","0","green","(0, 122, 0)","shape","present","lowProb1","rectangular","same","same","same","same","green","(0, 122, 0)","lowProb","lowProb3","circular","uniform","1","undefined","0.197916666667","1","1","247.541666667","1","38","47528","0","0","0","0","0","0","0","0","67","0","1","0.197916666667","247.541666667","38","47528","67","67","67","08/22/17 11:27:52","Default description","yes","<openexp._canvas.legacy.legacy object at 0x048227F0>","<openexp._canvas.legacy.legacy object at 0x0482E7B0>","<openexp._canvas.legacy.legacy object at 0x04817F70>","<openexp._canvas.legacy.legacy object at 0x0490F9D0>","<openexp._canvas.legacy.legacy object at 0x048E14B0>","<openexp._canvas.legacy.legacy object at 0x04817990>","<openexp._canvas.legacy.legacy object at 0x048E2A50>","75","IndividualPriorityWithDis_v1.osexp","C:/Userdata/Michel/SpatialProb/IndividualPriorityMaps/Experiment2","no","mono","no","18","no","white","no","yes","0.09","98","1050","legacy","315","42","42","1","C:/Userdata/Michel/SpatialProb/IndividualPriorityMaps/Experiment2/data/subject-14.csv","legacy","9","192","25","Jazzy James","3.1.3","yes","598477b2b83f69022949e7e9","47","green","rectangular","green","circular","0","/","833","space","9902","9902","(80, 80, 80)","(0, 122, 0)","(179, 0, 0)","(155, 155, 155)","2","legacy","experiment","[5, 6, 7, 0, 1, 2, 3, 4]","/","2500","3000","0","8","252.758751519","1024","2","48000","-16","main","[(0, -252), (178, -178), (252, 0), (178, 178), (0, 252), (-178, 178), (-252, 0), (-178, -178)]","[]","14","even","0","178717","206413","206413","94076","93070","1559","113914","113914","1559","1559","103978","317640","1558","206413","316805","315867","315867","NA","933","study_X","0","9902","1","yes","1680"
"undefined","undefined","9902","9902","black","no","legacy","legacy","legacy","0","green","(0, 122, 0)","color","present","lowProb2","circular","same","swap","swap","same","red","(179, 0, 0)","lowProb","lowProb1","circular","uniform","1","undefined","0.203125","1","1","252.90625","1","39","48558","0","0","0","0","0","0","0","0","68","0","1","0.203125","252.90625","39","48558","68","68","68","08/22/17 11:27:52","Default description","yes","<openexp._canvas.legacy.legacy object at 0x048227F0>","<openexp._canvas.legacy.legacy object at 0x0482E7B0>","<openexp._canvas.legacy.legacy object at 0x04817F70>","<openexp._canvas.legacy.legacy object at 0x0490F9D0>","<openexp._canvas.legacy.legacy object at 0x048E14B0>","<openexp._canvas.legacy.legacy object at 0x04839470>","<openexp._canvas.legacy.legacy object at 0x048E2A50>","75","IndividualPriorityWithDis_v1.osexp","C:/Userdata/Michel/SpatialProb/IndividualPriorityMaps/Experiment2","no","mono","no","18","no","white","no","yes","0.09","98","1050","legacy","315","43","43","1","C:/Userdata/Michel/SpatialProb/IndividualPriorityMaps/Experiment2/data/subject-14.csv","legacy","9","192","25","Jazzy James","3.1.3","yes","598477b2b83f69022949e7e9","47","green","circular","red","circular","0","/","1030","space","9902","9902","(80, 80, 80)","(0, 122, 0)","(179, 0, 0)","(155, 155, 155)","2","legacy","experiment","[5, 6, 7, 0, 1, 2, 3, 4]","/","2500","3000","0","8","252.758751519","1024","2","48000","-16","main","[(0, -252), (178, -178), (252, 0), (178, 178), (0, 252), (-178, 178), (-252, 0), (-178, -178)]","[]","14","even","6","178717","206413","206413","94076","93070","1559","113914","113914","1559","1559","103978","320049","1558","206413","319016","318077","318078","NA","933","study_X","0","9902","1","yes","1680"
"undefined","undefined","9902","9902","black","no","legacy","legacy","legacy","0","red","(179, 0, 0)","shape","present","lowProb2","rectangular","swap","swap","same","same","red","(179, 0, 0)","highProbColor","highProbColor","circular","uniform","1","undefined","0.208333333333","1","1","256.5625","1","40","49260","0","0","0","0","0","0","0","0","69","0","1","0.208333333333","256.5625","40","49260","69","69","69","08/22/17 11:27:52","Default description","yes","<openexp._canvas.legacy.legacy object at 0x048227F0>","<openexp._canvas.legacy.legacy object at 0x0482E7B0>","<openexp._canvas.legacy.legacy object at 0x04817F70>","<openexp._canvas.legacy.legacy object at 0x0490F9D0>","<openexp._canvas.legacy.legacy object at 0x048E14B0>","<openexp._canvas.legacy.legacy object at 0x0490FA90>","<openexp._canvas.legacy.legacy object at 0x048E2A50>","75","IndividualPriorityWithDis_v1.osexp","C:/Userdata/Michel/SpatialProb/IndividualPriorityMaps/Experiment2","no","mono","no","18","no","white","no","yes","0.09","98","1050","legacy","315","44","44","1","C:/Userdata/Michel/SpatialProb/IndividualPriorityMaps/Experiment2/data/subject-14.csv","legacy","9","192","25","Jazzy James","3.1.3","yes","598477b2b83f69022949e7e9","47","red","rectangular","red","circular","0","/","702","space","9902","9902","(80, 80, 80)","(0, 122, 0)","(179, 0, 0)","(155, 155, 155)","2","legacy","experiment","[5, 6, 7, 0, 1, 2, 3, 4]","/","2500","3000","0","8","252.758751519","1024","2","48000","-16","main","[(0, -252), (178, -178), (252, 0), (178, 178), (0, 252), (-178, 178), (-252, 0), (-178, -178)]","[]","14","even","5","178717","206413","206413","94076","93070","1559","113914","113914","1559","1559","103978","322121","1558","206413","321416","320477","320477","NA","933","study_X","0","9902","1","yes","1680"
"undefined","undefined","9902","9902","black","no","legacy","legacy","legacy","0","green","(0, 122, 0)","shape","present","lowProb6","rectangular","swap","same","swap","same","green","(0, 122, 0)","lowProb","lowProb3","circular","uniform","1","undefined","0.213541666667","1","1","265.182291667","1","41","50915","0","0","0","0","0","0","0","0","70","0","1","0.213541666667","265.182291667","41","50915","70","70","70","08/22/17 11:27:52","Default description","yes","<openexp._canvas.legacy.legacy object at 0x048227F0>","<openexp._canvas.legacy.legacy object at 0x0482E7B0>","<openexp._canvas.legacy.legacy object at 0x04817F70>","<openexp._canvas.legacy.legacy object at 0x0490F9D0>","<openexp._canvas.legacy.legacy object at 0x048E14B0>","<openexp._canvas.legacy.legacy object at 0x04822150>","<openexp._canvas.legacy.legacy object at 0x048E2A50>","75","IndividualPriorityWithDis_v1.osexp","C:/Userdata/Michel/SpatialProb/IndividualPriorityMaps/Experiment2","no","mono","no","18","no","white","no","yes","0.09","98","1050","legacy","315","45","45","1","C:/Userdata/Michel/SpatialProb/IndividualPriorityMaps/Experiment2/data/subject-14.csv","legacy","9","192","25","Jazzy James","3.1.3","yes","598477b2b83f69022949e7e9","47","green","rectangular","green","circular","0","/","1655","space","9902","9902","(80, 80, 80)","(0, 122, 0)","(179, 0, 0)","(155, 155, 155)","2","legacy","experiment","[5, 6, 7, 0, 1, 2, 3, 4]","/","2500","3000","0","8","252.758751519","1024","2","48000","-16","main","[(0, -252), (178, -178), (252, 0), (178, 178), (0, 252), (-178, 178), (-252, 0), (-178, -178)]","[]","14","even","0","178717","206413","206413","94076","93070","1559","113914","113914","1559","1559","103978","325153","1558","206413","323494","322556","322556","NA","933","study_X","0","9902","1","yes","1680"
"undefined","undefined","9902","9902","black","no","legacy","legacy","legacy","0","green","(0, 122, 0)","color","absent","lowProb1","circular","same","swap","same","same","green","(0, 122, 0)","lowProb","lowProb1","circular","uniform","1","undefined","0.21875","1","1","272.583333333","1","42","52336","0","0","0","0","0","0","0","0","71","0","1","0.21875","272.583333333","42","52336","71","71","71","08/22/17 11:27:52","Default description","yes","<openexp._canvas.legacy.legacy object at 0x048227F0>","<openexp._canvas.legacy.legacy object at 0x0482E7B0>","<openexp._canvas.legacy.legacy object at 0x04817F70>","<openexp._canvas.legacy.legacy object at 0x0490F9D0>","<openexp._canvas.legacy.legacy object at 0x048E14B0>","<openexp._canvas.legacy.legacy object at 0x04915AF0>","<openexp._canvas.legacy.legacy object at 0x048E2A50>","75","IndividualPriorityWithDis_v1.osexp","C:/Userdata/Michel/SpatialProb/IndividualPriorityMaps/Experiment2","no","mono","no","18","no","white","no","yes","0.09","98","1050","legacy","45","46","46","1","C:/Userdata/Michel/SpatialProb/IndividualPriorityMaps/Experiment2/data/subject-14.csv","legacy","9","192","25","Jazzy James","3.1.3","yes","598477b2b83f69022949e7e9","47","green","circular","green","circular","0","\","1421","space","9902","9902","(80, 80, 80)","(0, 122, 0)","(179, 0, 0)","(155, 155, 155)","2","legacy","experiment","[5, 6, 7, 0, 1, 2, 3, 4]","\","2500","3000","0","8","252.758751519","1024","2","48000","-16","main","[(0, -252), (178, -178), (252, 0), (178, 178), (0, 252), (-178, 178), (-252, 0), (-178, -178)]","[]","14","even","6","178717","206413","206413","94076","93070","1559","113914","113914","1559","1559","103978","327929","1558","206413","326504","325566","325566","NA","933","study_X","0","9902","1","yes","1680"
"undefined","undefined","9902","9902","black","no","legacy","legacy","legacy","0","red","(179, 0, 0)","color","absent","lowProb4","circular","swap","same","swap","same","red","(179, 0, 0)","lowProb","lowProb4","circular","uniform","1","undefined","0.223958333333","1","1","278.140625","1","43","53403","0","0","0","0","0","0","0","0","72","0","1","0.223958333333","278.140625","43","53403","72","72","72","08/22/17 11:27:52","Default description","yes","<openexp._canvas.legacy.legacy object at 0x048227F0>","<openexp._canvas.legacy.legacy object at 0x0482E7B0>","<openexp._canvas.legacy.legacy object at 0x04817F70>","<openexp._canvas.legacy.legacy object at 0x0490F9D0>","<openexp._canvas.legacy.legacy object at 0x048E14B0>","<openexp._canvas.legacy.legacy object at 0x0481E4B0>","<openexp._canvas.legacy.legacy object at 0x048E2A50>","75","IndividualPriorityWithDis_v1.osexp","C:/Userdata/Michel/SpatialProb/IndividualPriorityMaps/Experiment2","no","mono","no","18","no","white","no","yes","0.09","98","1050","legacy","315","47","47","1","C:/Userdata/Michel/SpatialProb/IndividualPriorityMaps/Experiment2/data/subject-14.csv","legacy","9","192","25","Jazzy James","3.1.3","yes","598477b2b83f69022949e7e9","47","red","circular","red","circular","0","/","1067","space","9902","9902","(80, 80, 80)","(0, 122, 0)","(179, 0, 0)","(155, 155, 155)","2","legacy","experiment","[5, 6, 7, 0, 1, 2, 3, 4]","/","2500","3000","0","8","252.758751519","1024","2","48000","-16","main","[(0, -252), (178, -178), (252, 0), (178, 178), (0, 252), (-178, 178), (-252, 0), (-178, -178)]","[]","14","even","2","178717","206413","206413","94076","93070","1559","113914","113914","1559","1559","103978","330361","1558","206413","329290","328351","328351","NA","933","study_X","0","9902","1","yes","1680"
"undefined","undefined","9902","9902","black","no","legacy","legacy","legacy","0","green","(0, 122, 0)","color","present","highProb","circular","swap","same","same","same","red","(179, 0, 0)","lowProb","lowProb3","circular","uniform","1","undefined","0.229166666667","1","1","283.229166667","1","44","54380","0","0","0","0","0","0","0","0","73","0","1","0.229166666667","283.229166667","44","54380","73","73","73","08/22/17 11:27:52","Default description","yes","<openexp._canvas.legacy.legacy object at 0x048227F0>","<openexp._canvas.legacy.legacy object at 0x0482E7B0>","<openexp._canvas.legacy.legacy object at 0x04817F70>","<openexp._canvas.legacy.legacy object at 0x0490F9D0>","<openexp._canvas.legacy.legacy object at 0x048E14B0>","<openexp._canvas.legacy.legacy object at 0x048390B0>","<openexp._canvas.legacy.legacy object at 0x048E2A50>","75","IndividualPriorityWithDis_v1.osexp","C:/Userdata/Michel/SpatialProb/IndividualPriorityMaps/Experiment2","no","mono","no","18","no","white","no","yes","0.09","98","1050","legacy","315","48","48","1","C:/Userdata/Michel/SpatialProb/IndividualPriorityMaps/Experiment2/data/subject-14.csv","legacy","9","192","25","Jazzy James","3.1.3","yes","598477b2b83f69022949e7e9","47","green","circular","red","circular","0","/","977","space","9902","9902","(80, 80, 80)","(0, 122, 0)","(179, 0, 0)","(155, 155, 155)","2","legacy","experiment","[5, 6, 7, 0, 1, 2, 3, 4]","/","2500","3000","0","8","252.758751519","1024","2","48000","-16","main","[(0, -252), (178, -178), (252, 0), (178, 178), (0, 252), (-178, 178), (-252, 0), (-178, -178)]","[]","14","even","0","178717","206413","206413","94076","93070","1559","113914","113914","1559","1559","103978","332696","1558","206413","331716","330777","330777","NA","933","study_X","0","9902","1","yes","1680"
"undefined","undefined","9902","9902","black","no","legacy","legacy","legacy","0","red","(179, 0, 0)","shape","present","highProb","circular","swap","same","same","swap","red","(179, 0, 0)","lowProb","lowProb2","rectangular","uniform","1","undefined","0.234375","1","1","291.286458333","1","45","55927","0","0","0","0","0","0","0","0","74","0","1","0.234375","291.286458333","45","55927","74","74","74","08/22/17 11:27:52","Default description","yes","<openexp._canvas.legacy.legacy object at 0x048227F0>","<openexp._canvas.legacy.legacy object at 0x0482E7B0>","<openexp._canvas.legacy.legacy object at 0x04817F70>","<openexp._canvas.legacy.legacy object at 0x0490F9D0>","<openexp._canvas.legacy.legacy object at 0x048E14B0>","<openexp._canvas.legacy.legacy object at 0x049151B0>","<openexp._canvas.legacy.legacy object at 0x048E2A50>","75","IndividualPriorityWithDis_v1.osexp","C:/Userdata/Michel/SpatialProb/IndividualPriorityMaps/Experiment2","no","mono","no","18","no","white","no","yes","0.09","98","1050","legacy","315","49","49","1","C:/Userdata/Michel/SpatialProb/IndividualPriorityMaps/Experiment2/data/subject-14.csv","legacy","9","192","25","Jazzy James","3.1.3","yes","598477b2b83f69022949e7e9","47","red","circular","red","rectangular","0","/","1547","space","9902","9902","(80, 80, 80)","(0, 122, 0)","(179, 0, 0)","(155, 155, 155)","2","legacy","experiment","[5, 6, 7, 0, 1, 2, 3, 4]","/","2500","3000","0","8","252.758751519","1024","2","48000","-16","main","[(0, -252), (178, -178), (252, 0), (178, 178), (0, 252), (-178, 178), (-252, 0), (-178, -178)]","[]","14","even","7","178717","206413","206413","94076","93070","1559","113914","113914","1559","1559","103978","335600","1558","206413","334050","333111","333112","NA","933","study_X","0","9902","1","yes","1680"
"undefined","undefined","9902","9902","black","no","legacy","legacy","legacy","0","green","(0, 122, 0)","shape","present","highProb","circular","swap","same","swap","same","green","(0, 122, 0)","lowProb","lowProb6","rectangular","uniform","1","undefined","0.239583333333","1","1","296.1875","1","46","56868","0","0","0","0","0","0","0","0","75","0","1","0.239583333333","296.1875","46","56868","75","75","75","08/22/17 11:27:52","Default description","yes","<openexp._canvas.legacy.legacy object at 0x048227F0>","<openexp._canvas.legacy.legacy object at 0x0482E7B0>","<openexp._canvas.legacy.legacy object at 0x04817F70>","<openexp._canvas.legacy.legacy object at 0x0490F9D0>","<openexp._canvas.legacy.legacy object at 0x048E14B0>","<openexp._canvas.legacy.legacy object at 0x0482E1F0>","<openexp._canvas.legacy.legacy object at 0x048E2A50>","75","IndividualPriorityWithDis_v1.osexp","C:/Userdata/Michel/SpatialProb/IndividualPriorityMaps/Experiment2","no","mono","no","18","no","white","no","yes","0.09","98","1050","legacy","45","50","50","1","C:/Userdata/Michel/SpatialProb/IndividualPriorityMaps/Experiment2/data/subject-14.csv","legacy","9","192","25","Jazzy James","3.1.3","yes","598477b2b83f69022949e7e9","47","green","circular","green","rectangular","0","\","941","space","9902","9902","(80, 80, 80)","(0, 122, 0)","(179, 0, 0)","(155, 155, 155)","2","legacy","experiment","[5, 6, 7, 0, 1, 2, 3, 4]","\","2500","3000","0","8","252.758751519","1024","2","48000","-16","main","[(0, -252), (178, -178), (252, 0), (178, 178), (0, 252), (-178, 178), (-252, 0), (-178, -178)]","[]","14","even","4","178717","206413","206413","94076","93070","1559","113914","113914","1559","1559","103978","337897","1558","206413","336953","336015","336015","NA","933","study_X","0","9902","1","yes","1680"
"undefined","undefined","9902","9902","black","no","legacy","legacy","legacy","0","green","(0, 122, 0)","shape","present","highProb","rectangular","same","swap","same","swap","green","(0, 122, 0)","lowProb","lowProb2","circular","uniform","1","undefined","0.244791666667","1","1","304.885416667","1","47","58538","0","0","0","0","0","0","0","0","76","0","1","0.244791666667","304.885416667","47","58538","76","76","76","08/22/17 11:27:52","Default description","yes","<openexp._canvas.legacy.legacy object at 0x048227F0>","<openexp._canvas.legacy.legacy object at 0x0482E7B0>","<openexp._canvas.legacy.legacy object at 0x04817F70>","<openexp._canvas.legacy.legacy object at 0x0490F9D0>","<openexp._canvas.legacy.legacy object at 0x048E14B0>","<openexp._canvas.legacy.legacy object at 0x04829F70>","<openexp._canvas.legacy.legacy object at 0x048E2A50>","75","IndividualPriorityWithDis_v1.osexp","C:/Userdata/Michel/SpatialProb/IndividualPriorityMaps/Experiment2","no","mono","no","18","no","white","no","yes","0.09","98","1050","legacy","315","51","51","1","C:/Userdata/Michel/SpatialProb/IndividualPriorityMaps/Experiment2/data/subject-14.csv","legacy","9","192","25","Jazzy James","3.1.3","yes","598477b2b83f69022949e7e9","47","green","rectangular","green","circular","0","/","1670","space","9902","9902","(80, 80, 80)","(0, 122, 0)","(179, 0, 0)","(155, 155, 155)","2","legacy","experiment","[5, 6, 7, 0, 1, 2, 3, 4]","/","2500","3000","0","8","252.758751519","1024","2","48000","-16","main","[(0, -252), (178, -178), (252, 0), (178, 178), (0, 252), (-178, 178), (-252, 0), (-178, -178)]","[]","14","even","7","178717","206413","206413","94076","93070","1559","113914","113914","1559","1559","103978","340945","1558","206413","339271","338332","338332","NA","933","study_X","0","9902","1","yes","1680"
"undefined","undefined","9902","9902","black","no","legacy","legacy","legacy","0","green","(0, 122, 0)","color","absent","lowProb5","rectangular","same","same","same","swap","green","(0, 122, 0)","highProbShape","highProbShape","rectangular","uniform","1","undefined","0.25","1","1","310.578125","1","48","59631","0","0","0","0","0","0","0","0","77","0","1","0.25","310.578125","48","59631","77","77","77","08/22/17 11:27:52","Default description","yes","<openexp._canvas.legacy.legacy object at 0x048227F0>","<openexp._canvas.legacy.legacy object at 0x0482E7B0>","<openexp._canvas.legacy.legacy object at 0x04817F70>","<openexp._canvas.legacy.legacy object at 0x0490F9D0>","<openexp._canvas.legacy.legacy object at 0x048E14B0>","<openexp._canvas.legacy.legacy object at 0x0482E170>","<openexp._canvas.legacy.legacy object at 0x048E2A50>","75","IndividualPriorityWithDis_v1.osexp","C:/Userdata/Michel/SpatialProb/IndividualPriorityMaps/Experiment2","no","mono","no","18","no","white","no","yes","0.09","98","1050","legacy","45","52","52","1","C:/Userdata/Michel/SpatialProb/IndividualPriorityMaps/Experiment2/data/subject-14.csv","legacy","9","192","25","Jazzy James","3.1.3","yes","598477b2b83f69022949e7e9","47","green","rectangular","green","rectangular","0","\","1093","space","9902","9902","(80, 80, 80)","(0, 122, 0)","(179, 0, 0)","(155, 155, 155)","2","legacy","experiment","[5, 6, 7, 0, 1, 2, 3, 4]","\","2500","3000","0","8","252.758751519","1024","2","48000","-16","main","[(0, -252), (178, -178), (252, 0), (178, 178), (0, 252), (-178, 178), (-252, 0), (-178, -178)]","[]","14","even","1","178717","206413","206413","94076","93070","1559","113914","113914","1559","1559","103978","343393","1558","206413","342297","341358","341359","NA","933","study_X","0","9902","1","yes","1680"
"undefined","undefined","9902","9902","black","no","legacy","legacy","legacy","0","red","(179, 0, 0)","color","present","highProb","rectangular","swap","same","same","same","green","(0, 122, 0)","lowProb","lowProb1","rectangular","uniform","1","undefined","0.255208333333","1","1","314.635416667","1","49","60410","0","0","0","0","0","0","0","0","78","0","1","0.255208333333","314.635416667","49","60410","78","78","78","08/22/17 11:27:52","Default description","yes","<openexp._canvas.legacy.legacy object at 0x048227F0>","<openexp._canvas.legacy.legacy object at 0x0482E7B0>","<openexp._canvas.legacy.legacy object at 0x04817F70>","<openexp._canvas.legacy.legacy object at 0x0490F9D0>","<openexp._canvas.legacy.legacy object at 0x048E14B0>","<openexp._canvas.legacy.legacy object at 0x04817ED0>","<openexp._canvas.legacy.legacy object at 0x048E2A50>","75","IndividualPriorityWithDis_v1.osexp","C:/Userdata/Michel/SpatialProb/IndividualPriorityMaps/Experiment2","no","mono","no","18","no","white","no","yes","0.09","98","1050","legacy","315","53","53","1","C:/Userdata/Michel/SpatialProb/IndividualPriorityMaps/Experiment2/data/subject-14.csv","legacy","9","192","25","Jazzy James","3.1.3","yes","598477b2b83f69022949e7e9","47","red","rectangular","green","rectangular","0","/","779","space","9902","9902","(80, 80, 80)","(0, 122, 0)","(179, 0, 0)","(155, 155, 155)","2","legacy","experiment","[5, 6, 7, 0, 1, 2, 3, 4]","/","2500","3000","0","8","252.758751519","1024","2","48000","-16","main","[(0, -252), (178, -178), (252, 0), (178, 178), (0, 252), (-178, 178), (-252, 0), (-178, -178)]","[]","14","even","6","178717","206413","206413","94076","93070","1559","113914","113914","1559","1559","103978","345521","1558","206413","344738","343800","343800","NA","933","study_X","0","9902","1","yes","1680"
