acc,accuracy,answerQ1,answerQ2,answerQ3,average_response_time,avg_rt,background,bidi,canvas_backend,clock_backend,color_backend,compensation,cond_disColor,cond_disColorRGB,cond_disFeature,cond_disPresent,cond_disProbability,cond_disShape,cond_primingDisColor,cond_primingDisShape,cond_primingTarColor,cond_primingTarShape,cond_tarColor,cond_tarColorRGB,cond_tarLocation,cond_tarLocationLong,cond_tarShape,coordinates,correct,correct_continuePress,count_Questions,count_blockAcc,count_blockFeed,count_blockLoop,count_blockRT,count_blockSeq,count_blockSumCorrect,count_blockSumRT,count_continuePress,count_example,count_expSettings,count_exp_mainLoop,count_experiment,count_instructions,count_instructions1,count_instructions2,count_log,count_main,count_prepCanvas,count_totalAcc,count_totalRT,count_totalSumCorrect,count_totalSumRT,count_trialResp,count_trialSeq,count_trialTask,datetime,description,disable_garbage_collection,dispBlank,dispBlockStart,dispFeedBlock,dispFix,dispInstructions,dispQuestions,dispSearch,dispStartScreen,distance2screen,experiment_file,experiment_path,font_bold,font_family,font_italic,font_size,font_underline,foreground,form_clicks,fullscreen,gaborFreq,gaborSize,height,keyboard_backend,lineOriTar,live_row,live_row_blockLoop,live_row_exp_mainLoop,logfile,mouse_backend,noExpBlocks,noExpTrials,noPracTrials,opensesame_codename,opensesame_version,osf_always_upload_experiment,osf_id,physical_screensize,previousDisColor,previousDisShape,previousTarColor,previousTarShape,repeat_cycle,response,responseTime,response_continuePress,response_time,response_time_continuePress,rgb_gray,rgb_green,rgb_red,rgb_white,round_decimals,sampler_backend,set_blockType,set_counterPositions,set_respCorrect,set_respTimeoutExp,set_respTimeoutPrac,set_rotation,set_setSize,sizeImaginary,sound_buf_size,sound_channels,sound_freq,sound_sample_size,start,stimPositions,stimuli,subject_nr,subject_parity,tarIdx,time_Questions,time_blockFeed,time_blockLoop,time_blockSeq,time_continuePress,time_example,time_expSettings,time_exp_mainLoop,time_experiment,time_instructions,time_instructions1,time_instructions2,time_log,time_main,time_prepCanvas,time_trialResp,time_trialSeq,time_trialTask,timing_EEGwait,timing_fix,title,total_correct,total_response_time,total_responses,uniform_coordinates,width
undefined,undefined,NA,NA,NA,9330,9330,black,no,legacy,legacy,legacy,0,green,"(0, 123, 0)",color,present,highProb,rectangular,same,same,swap,swap,red,"(177, 0, 0)",lowProb,lowProb4,rectangular,uniform,1,undefined,0,0.005208333,1,1,7.786458333,1,1,1495,0,0,0,0,0,0,0,0,26,0,1,0.005208333,7.786458333,1,1495,25,25,25,11/22/2018 15:31,Default description,yes,<openexp._canvas.legacy.Legacy object at 0x046865F0>,<openexp._canvas.legacy.Legacy object at 0x04826E30>,<openexp._canvas.legacy.Legacy object at 0x0481FA50>,<openexp._canvas.legacy.Legacy object at 0x045DFE70>,<openexp._canvas.legacy.Legacy object at 0x045CB8D0>,<openexp._canvas.legacy.Legacy object at 0x046761F0>,<openexp._canvas.legacy.Legacy object at 0x04826510>,<openexp._canvas.legacy.Legacy object at 0x0481F710>,75,SpatProbMultiple3.osexp,C:/Userdata/Michel/SpatProbMultiple3,no,mono,no,18,no,white,no,yes,0.09,98,1050,legacy,45,0,0,1,C:/Userdata/Michel/SpatProbMultiple3/beh/subject-6.csv,legacy,9,192,25,Kafkaesque Koffka,3.2.5,yes,598477b2b83f69022949e7e9,47,green,rectangular,red,rectangular,0,\,1495,space,9330,9330,"(80, 80, 80)","(0, 123, 0)","(177, 0, 0)","(155, 155, 155)",2,legacy,experiment,"[5, 6, 7, 0, 1, 2, 3, 4]",\,2500,3000,0,8,252.7587515,1024,2,48000,-16,main,"[(0, -252), (178, -178), (252, 0), (178, 178), (0, 252), (-178, 178), (-252, 0), (-178, -178)]",[],30,even,2,NA,226999,349282,349282,132170,131158,2333,146889,146889,2333,2333,141501,357340,2331,349282,355842,349677,349677,NA,1000,study_X,0,9330,1,yes,1680
undefined,undefined,NA,NA,NA,9330,9330,black,no,legacy,legacy,legacy,0,red,"(177, 0, 0)",color,absent,lowProb3,circular,swap,swap,same,swap,red,"(177, 0, 0)",lowProb,lowProb1,circular,uniform,1,undefined,0,0.010416667,1,1,14.16145833,1,2,2719,0,0,0,0,0,0,0,0,27,0,1,0.010416667,14.16145833,2,2719,26,26,26,11/22/2018 15:31,Default description,yes,<openexp._canvas.legacy.Legacy object at 0x046865F0>,<openexp._canvas.legacy.Legacy object at 0x04826E30>,<openexp._canvas.legacy.Legacy object at 0x0481FA50>,<openexp._canvas.legacy.Legacy object at 0x045DFE70>,<openexp._canvas.legacy.Legacy object at 0x045CB8D0>,<openexp._canvas.legacy.Legacy object at 0x046761F0>,<openexp._canvas.legacy.Legacy object at 0x0481C690>,<openexp._canvas.legacy.Legacy object at 0x0481F710>,75,SpatProbMultiple3.osexp,C:/Userdata/Michel/SpatProbMultiple3,no,mono,no,18,no,white,no,yes,0.09,98,1050,legacy,315,1,1,1,C:/Userdata/Michel/SpatProbMultiple3/beh/subject-6.csv,legacy,9,192,25,Kafkaesque Koffka,3.2.5,yes,598477b2b83f69022949e7e9,47,red,circular,red,circular,0,/,1224,space,9330,9330,"(80, 80, 80)","(0, 123, 0)","(177, 0, 0)","(155, 155, 155)",2,legacy,experiment,"[5, 6, 7, 0, 1, 2, 3, 4]",/,2500,3000,0,8,252.7587515,1024,2,48000,-16,main,"[(0, -252), (178, -178), (252, 0), (178, 178), (0, 252), (-178, 178), (-252, 0), (-178, -178)]",[],30,even,6,NA,226999,349282,349282,132170,131158,2333,146889,146889,2333,2333,141501,360028,2331,349282,358800,357790,357790,NA,1000,study_X,0,9330,1,yes,1680
undefined,undefined,NA,NA,NA,9330,9330,black,no,legacy,legacy,legacy,0,red,"(177, 0, 0)",shape,present,lowProb4,circular,same,same,same,swap,red,"(177, 0, 0)",highProbShape,highProbShape,rectangular,uniform,1,undefined,0,0.015625,1,1,18.38541667,1,3,3530,0,0,0,0,0,0,0,0,28,0,1,0.015625,18.38541667,3,3530,27,27,27,11/22/2018 15:31,Default description,yes,<openexp._canvas.legacy.Legacy object at 0x046865F0>,<openexp._canvas.legacy.Legacy object at 0x04826E30>,<openexp._canvas.legacy.Legacy object at 0x0481FA50>,<openexp._canvas.legacy.Legacy object at 0x045DFE70>,<openexp._canvas.legacy.Legacy object at 0x045CB8D0>,<openexp._canvas.legacy.Legacy object at 0x046761F0>,<openexp._canvas.legacy.Legacy object at 0x0412AFD0>,<openexp._canvas.legacy.Legacy object at 0x0481F710>,75,SpatProbMultiple3.osexp,C:/Userdata/Michel/SpatProbMultiple3,no,mono,no,18,no,white,no,yes,0.09,98,1050,legacy,315,2,2,1,C:/Userdata/Michel/SpatProbMultiple3/beh/subject-6.csv,legacy,9,192,25,Kafkaesque Koffka,3.2.5,yes,598477b2b83f69022949e7e9,47,red,circular,red,rectangular,0,/,811,space,9330,9330,"(80, 80, 80)","(0, 123, 0)","(177, 0, 0)","(155, 155, 155)",2,legacy,experiment,"[5, 6, 7, 0, 1, 2, 3, 4]",/,2500,3000,0,8,252.7587515,1024,2,48000,-16,main,"[(0, -252), (178, -178), (252, 0), (178, 178), (0, 252), (-178, 178), (-252, 0), (-178, -178)]",[],30,even,1,NA,226999,349282,349282,132170,131158,2333,146889,146889,2333,2333,141501,362276,2331,349282,361461,360452,360452,NA,1000,study_X,0,9330,1,yes,1680
undefined,undefined,NA,NA,NA,9330,9330,black,no,legacy,legacy,legacy,0,red,"(177, 0, 0)",shape,present,lowProb1,circular,same,same,same,same,red,"(177, 0, 0)",lowProb,lowProb6,rectangular,uniform,1,undefined,0,0.020833333,1,1,26.546875,1,4,5097,0,0,0,0,0,0,0,0,29,0,1,0.020833333,26.546875,4,5097,28,28,28,11/22/2018 15:31,Default description,yes,<openexp._canvas.legacy.Legacy object at 0x046865F0>,<openexp._canvas.legacy.Legacy object at 0x04826E30>,<openexp._canvas.legacy.Legacy object at 0x0481FA50>,<openexp._canvas.legacy.Legacy object at 0x045DFE70>,<openexp._canvas.legacy.Legacy object at 0x045CB8D0>,<openexp._canvas.legacy.Legacy object at 0x046761F0>,<openexp._canvas.legacy.Legacy object at 0x0481C470>,<openexp._canvas.legacy.Legacy object at 0x0481F710>,75,SpatProbMultiple3.osexp,C:/Userdata/Michel/SpatProbMultiple3,no,mono,no,18,no,white,no,yes,0.09,98,1050,legacy,315,3,3,1,C:/Userdata/Michel/SpatProbMultiple3/beh/subject-6.csv,legacy,9,192,25,Kafkaesque Koffka,3.2.5,yes,598477b2b83f69022949e7e9,47,red,circular,red,rectangular,0,/,1567,space,9330,9330,"(80, 80, 80)","(0, 123, 0)","(177, 0, 0)","(155, 155, 155)",2,legacy,experiment,"[5, 6, 7, 0, 1, 2, 3, 4]",/,2500,3000,0,8,252.7587515,1024,2,48000,-16,main,"[(0, -252), (178, -178), (252, 0), (178, 178), (0, 252), (-178, 178), (-252, 0), (-178, -178)]",[],30,even,4,NA,226999,349282,349282,132170,131158,2333,146889,146889,2333,2333,141501,365307,2331,349282,363737,362727,362727,NA,1000,study_X,0,9330,1,yes,1680
undefined,undefined,NA,NA,NA,9330,9330,black,no,legacy,legacy,legacy,0,red,"(177, 0, 0)",shape,present,highProb,circular,same,same,same,same,red,"(177, 0, 0)",lowProb,lowProb5,rectangular,uniform,1,undefined,0,0.026041667,1,1,31.203125,1,5,5991,0,0,0,0,0,0,0,0,30,0,1,0.026041667,31.203125,5,5991,29,29,29,11/22/2018 15:31,Default description,yes,<openexp._canvas.legacy.Legacy object at 0x046865F0>,<openexp._canvas.legacy.Legacy object at 0x04826E30>,<openexp._canvas.legacy.Legacy object at 0x0481FA50>,<openexp._canvas.legacy.Legacy object at 0x045DFE70>,<openexp._canvas.legacy.Legacy object at 0x045CB8D0>,<openexp._canvas.legacy.Legacy object at 0x046761F0>,<openexp._canvas.legacy.Legacy object at 0x048262B0>,<openexp._canvas.legacy.Legacy object at 0x0481F710>,75,SpatProbMultiple3.osexp,C:/Userdata/Michel/SpatProbMultiple3,no,mono,no,18,no,white,no,yes,0.09,98,1050,legacy,45,4,4,1,C:/Userdata/Michel/SpatProbMultiple3/beh/subject-6.csv,legacy,9,192,25,Kafkaesque Koffka,3.2.5,yes,598477b2b83f69022949e7e9,47,red,circular,red,rectangular,0,\,894,space,9330,9330,"(80, 80, 80)","(0, 123, 0)","(177, 0, 0)","(155, 155, 155)",2,legacy,experiment,"[5, 6, 7, 0, 1, 2, 3, 4]",\,2500,3000,0,8,252.7587515,1024,2,48000,-16,main,"[(0, -252), (178, -178), (252, 0), (178, 178), (0, 252), (-178, 178), (-252, 0), (-178, -178)]",[],30,even,3,NA,226999,349282,349282,132170,131158,2333,146889,146889,2333,2333,141501,367635,2331,349282,366738,365729,365729,NA,1000,study_X,0,9330,1,yes,1680
undefined,undefined,NA,NA,NA,9330,9330,black,no,legacy,legacy,legacy,0,red,"(177, 0, 0)",shape,absent,lowProb6,circular,same,same,same,swap,red,"(177, 0, 0)",lowProb,lowProb3,circular,uniform,1,undefined,0,0.03125,1,1,34.625,1,6,6648,0,0,0,0,0,0,0,0,31,0,1,0.03125,34.625,6,6648,30,30,30,11/22/2018 15:31,Default description,yes,<openexp._canvas.legacy.Legacy object at 0x046865F0>,<openexp._canvas.legacy.Legacy object at 0x04826E30>,<openexp._canvas.legacy.Legacy object at 0x0481FA50>,<openexp._canvas.legacy.Legacy object at 0x045DFE70>,<openexp._canvas.legacy.Legacy object at 0x045CB8D0>,<openexp._canvas.legacy.Legacy object at 0x046761F0>,<openexp._canvas.legacy.Legacy object at 0x04686E90>,<openexp._canvas.legacy.Legacy object at 0x0481F710>,75,SpatProbMultiple3.osexp,C:/Userdata/Michel/SpatProbMultiple3,no,mono,no,18,no,white,no,yes,0.09,98,1050,legacy,315,5,5,1,C:/Userdata/Michel/SpatProbMultiple3/beh/subject-6.csv,legacy,9,192,25,Kafkaesque Koffka,3.2.5,yes,598477b2b83f69022949e7e9,47,red,circular,red,circular,0,/,657,space,9330,9330,"(80, 80, 80)","(0, 123, 0)","(177, 0, 0)","(155, 155, 155)",2,legacy,experiment,"[5, 6, 7, 0, 1, 2, 3, 4]",/,2500,3000,0,8,252.7587515,1024,2,48000,-16,main,"[(0, -252), (178, -178), (252, 0), (178, 178), (0, 252), (-178, 178), (-252, 0), (-178, -178)]",[],30,even,0,NA,226999,349282,349282,132170,131158,2333,146889,146889,2333,2333,141501,369739,2331,349282,369079,368070,368070,NA,1000,study_X,0,9330,1,yes,1680
undefined,undefined,NA,NA,NA,9330,9330,black,no,legacy,legacy,legacy,0,green,"(0, 123, 0)",shape,present,lowProb4,rectangular,swap,swap,swap,same,green,"(0, 123, 0)",lowProb,lowProb6,circular,uniform,1,undefined,0,0.036458333,1,1,38.4375,1,7,7380,0,0,0,0,0,0,0,0,32,0,1,0.036458333,38.4375,7,7380,31,31,31,11/22/2018 15:31,Default description,yes,<openexp._canvas.legacy.Legacy object at 0x046865F0>,<openexp._canvas.legacy.Legacy object at 0x04826E30>,<openexp._canvas.legacy.Legacy object at 0x0481FA50>,<openexp._canvas.legacy.Legacy object at 0x045DFE70>,<openexp._canvas.legacy.Legacy object at 0x045CB8D0>,<openexp._canvas.legacy.Legacy object at 0x046761F0>,<openexp._canvas.legacy.Legacy object at 0x04826DF0>,<openexp._canvas.legacy.Legacy object at 0x0481F710>,75,SpatProbMultiple3.osexp,C:/Userdata/Michel/SpatProbMultiple3,no,mono,no,18,no,white,no,yes,0.09,98,1050,legacy,45,6,6,1,C:/Userdata/Michel/SpatProbMultiple3/beh/subject-6.csv,legacy,9,192,25,Kafkaesque Koffka,3.2.5,yes,598477b2b83f69022949e7e9,47,green,rectangular,green,circular,0,\,732,space,9330,9330,"(80, 80, 80)","(0, 123, 0)","(177, 0, 0)","(155, 155, 155)",2,legacy,experiment,"[5, 6, 7, 0, 1, 2, 3, 4]",\,2500,3000,0,8,252.7587515,1024,2,48000,-16,main,"[(0, -252), (178, -178), (252, 0), (178, 178), (0, 252), (-178, 178), (-252, 0), (-178, -178)]",[],30,even,4,NA,226999,349282,349282,132170,131158,2333,146889,146889,2333,2333,141501,371948,2331,349282,371213,370204,370204,NA,1000,study_X,0,9330,1,yes,1680
undefined,undefined,NA,NA,NA,9330,9330,black,no,legacy,legacy,legacy,0,green,"(0, 123, 0)",color,absent,lowProb1,rectangular,same,same,same,swap,green,"(0, 123, 0)",highProbShape,highProbShape,rectangular,uniform,1,undefined,0,0.041666667,1,1,44.00520833,1,8,8449,0,0,0,0,0,0,0,0,33,0,1,0.041666667,44.00520833,8,8449,32,32,32,11/22/2018 15:31,Default description,yes,<openexp._canvas.legacy.Legacy object at 0x046865F0>,<openexp._canvas.legacy.Legacy object at 0x04826E30>,<openexp._canvas.legacy.Legacy object at 0x0481FA50>,<openexp._canvas.legacy.Legacy object at 0x045DFE70>,<openexp._canvas.legacy.Legacy object at 0x045CB8D0>,<openexp._canvas.legacy.Legacy object at 0x046761F0>,<openexp._canvas.legacy.Legacy object at 0x0481F810>,<openexp._canvas.legacy.Legacy object at 0x0481F710>,75,SpatProbMultiple3.osexp,C:/Userdata/Michel/SpatProbMultiple3,no,mono,no,18,no,white,no,yes,0.09,98,1050,legacy,315,7,7,1,C:/Userdata/Michel/SpatProbMultiple3/beh/subject-6.csv,legacy,9,192,25,Kafkaesque Koffka,3.2.5,yes,598477b2b83f69022949e7e9,47,green,rectangular,green,rectangular,0,/,1069,space,9330,9330,"(80, 80, 80)","(0, 123, 0)","(177, 0, 0)","(155, 155, 155)",2,legacy,experiment,"[5, 6, 7, 0, 1, 2, 3, 4]",/,2500,3000,0,8,252.7587515,1024,2,48000,-16,main,"[(0, -252), (178, -178), (252, 0), (178, 178), (0, 252), (-178, 178), (-252, 0), (-178, -178)]",[],30,even,1,NA,226999,349282,349282,132170,131158,2333,146889,146889,2333,2333,141501,374452,2331,349282,373379,372370,372370,NA,1000,study_X,0,9330,1,yes,1680
undefined,undefined,NA,NA,NA,9330,9330,black,no,legacy,legacy,legacy,0,red,"(177, 0, 0)",shape,present,highProb,circular,swap,swap,swap,same,red,"(177, 0, 0)",lowProb,lowProb3,rectangular,uniform,1,undefined,0,0.046875,1,1,47.30729167,1,9,9083,0,0,0,0,0,0,0,0,34,0,1,0.046875,47.30729167,9,9083,33,33,33,11/22/2018 15:31,Default description,yes,<openexp._canvas.legacy.Legacy object at 0x046865F0>,<openexp._canvas.legacy.Legacy object at 0x04826E30>,<openexp._canvas.legacy.Legacy object at 0x0481FA50>,<openexp._canvas.legacy.Legacy object at 0x045DFE70>,<openexp._canvas.legacy.Legacy object at 0x045CB8D0>,<openexp._canvas.legacy.Legacy object at 0x046761F0>,<openexp._canvas.legacy.Legacy object at 0x04689E50>,<openexp._canvas.legacy.Legacy object at 0x0481F710>,75,SpatProbMultiple3.osexp,C:/Userdata/Michel/SpatProbMultiple3,no,mono,no,18,no,white,no,yes,0.09,98,1050,legacy,315,8,8,1,C:/Userdata/Michel/SpatProbMultiple3/beh/subject-6.csv,legacy,9,192,25,Kafkaesque Koffka,3.2.5,yes,598477b2b83f69022949e7e9,47,red,circular,red,rectangular,0,/,634,space,9330,9330,"(80, 80, 80)","(0, 123, 0)","(177, 0, 0)","(155, 155, 155)",2,legacy,experiment,"[5, 6, 7, 0, 1, 2, 3, 4]",/,2500,3000,0,8,252.7587515,1024,2,48000,-16,main,"[(0, -252), (178, -178), (252, 0), (178, 178), (0, 252), (-178, 178), (-252, 0), (-178, -178)]",[],30,even,0,NA,226999,349282,349282,132170,131158,2333,146889,146889,2333,2333,141501,376524,2331,349282,375886,374877,374877,NA,1000,study_X,0,9330,1,yes,1680
undefined,undefined,NA,NA,NA,9330,9330,black,no,legacy,legacy,legacy,0,red,"(177, 0, 0)",color,present,lowProb1,circular,same,same,swap,swap,green,"(0, 123, 0)",lowProb,lowProb6,circular,uniform,1,undefined,0,0.052083333,1,1,52.296875,1,10,10041,0,0,0,0,0,0,0,0,35,0,1,0.052083333,52.296875,10,10041,34,34,34,11/22/2018 15:31,Default description,yes,<openexp._canvas.legacy.Legacy object at 0x046865F0>,<openexp._canvas.legacy.Legacy object at 0x04826E30>,<openexp._canvas.legacy.Legacy object at 0x0481FA50>,<openexp._canvas.legacy.Legacy object at 0x045DFE70>,<openexp._canvas.legacy.Legacy object at 0x045CB8D0>,<openexp._canvas.legacy.Legacy object at 0x046761F0>,<openexp._canvas.legacy.Legacy object at 0x0412AFB0>,<openexp._canvas.legacy.Legacy object at 0x0481F710>,75,SpatProbMultiple3.osexp,C:/Userdata/Michel/SpatProbMultiple3,no,mono,no,18,no,white,no,yes,0.09,98,1050,legacy,315,9,9,1,C:/Userdata/Michel/SpatProbMultiple3/beh/subject-6.csv,legacy,9,192,25,Kafkaesque Koffka,3.2.5,yes,598477b2b83f69022949e7e9,47,red,circular,green,circular,0,/,958,space,9330,9330,"(80, 80, 80)","(0, 123, 0)","(177, 0, 0)","(155, 155, 155)",2,legacy,experiment,"[5, 6, 7, 0, 1, 2, 3, 4]",/,2500,3000,0,8,252.7587515,1024,2,48000,-16,main,"[(0, -252), (178, -178), (252, 0), (178, 178), (0, 252), (-178, 178), (-252, 0), (-178, -178)]",[],30,even,4,NA,226999,349282,349282,132170,131158,2333,146889,146889,2333,2333,141501,378987,2331,349282,378026,377017,377017,NA,1000,study_X,0,9330,1,yes,1680
undefined,undefined,NA,NA,NA,9330,9330,black,no,legacy,legacy,legacy,0,red,"(177, 0, 0)",color,present,highProbOther,rectangular,same,swap,same,swap,green,"(0, 123, 0)",lowProb,lowProb5,rectangular,uniform,1,undefined,0,0.057291667,1,1,58.25520833,1,11,11185,0,0,0,0,0,0,0,0,36,0,1,0.057291667,58.25520833,11,11185,35,35,35,11/22/2018 15:31,Default description,yes,<openexp._canvas.legacy.Legacy object at 0x046865F0>,<openexp._canvas.legacy.Legacy object at 0x04826E30>,<openexp._canvas.legacy.Legacy object at 0x0481FA50>,<openexp._canvas.legacy.Legacy object at 0x045DFE70>,<openexp._canvas.legacy.Legacy object at 0x045CB8D0>,<openexp._canvas.legacy.Legacy object at 0x046761F0>,<openexp._canvas.legacy.Legacy object at 0x04678550>,<openexp._canvas.legacy.Legacy object at 0x0481F710>,75,SpatProbMultiple3.osexp,C:/Userdata/Michel/SpatProbMultiple3,no,mono,no,18,no,white,no,yes,0.09,98,1050,legacy,315,10,10,1,C:/Userdata/Michel/SpatProbMultiple3/beh/subject-6.csv,legacy,9,192,25,Kafkaesque Koffka,3.2.5,yes,598477b2b83f69022949e7e9,47,red,rectangular,green,rectangular,0,/,1144,space,9330,9330,"(80, 80, 80)","(0, 123, 0)","(177, 0, 0)","(155, 155, 155)",2,legacy,experiment,"[5, 6, 7, 0, 1, 2, 3, 4]",/,2500,3000,0,8,252.7587515,1024,2,48000,-16,main,"[(0, -252), (178, -178), (252, 0), (178, 178), (0, 252), (-178, 178), (-252, 0), (-178, -178)]",[],30,even,3,NA,226999,349282,349282,132170,131158,2333,146889,146889,2333,2333,141501,381571,2331,349282,380424,379415,379415,NA,1000,study_X,0,9330,1,yes,1680
undefined,undefined,NA,NA,NA,9330,9330,black,no,legacy,legacy,legacy,0,green,"(0, 123, 0)",color,absent,lowProb6,rectangular,swap,same,same,same,green,"(0, 123, 0)",lowProb,lowProb1,rectangular,uniform,1,undefined,0,0.0625,1,1,63.96354167,1,12,12281,0,0,0,0,0,0,0,0,37,0,1,0.0625,63.96354167,12,12281,36,36,36,11/22/2018 15:31,Default description,yes,<openexp._canvas.legacy.Legacy object at 0x046865F0>,<openexp._canvas.legacy.Legacy object at 0x04826E30>,<openexp._canvas.legacy.Legacy object at 0x0481FA50>,<openexp._canvas.legacy.Legacy object at 0x045DFE70>,<openexp._canvas.legacy.Legacy object at 0x045CB8D0>,<openexp._canvas.legacy.Legacy object at 0x046761F0>,<openexp._canvas.legacy.Legacy object at 0x0481C250>,<openexp._canvas.legacy.Legacy object at 0x0481F710>,75,SpatProbMultiple3.osexp,C:/Userdata/Michel/SpatProbMultiple3,no,mono,no,18,no,white,no,yes,0.09,98,1050,legacy,315,11,11,1,C:/Userdata/Michel/SpatProbMultiple3/beh/subject-6.csv,legacy,9,192,25,Kafkaesque Koffka,3.2.5,yes,598477b2b83f69022949e7e9,47,green,rectangular,green,rectangular,0,/,1096,space,9330,9330,"(80, 80, 80)","(0, 123, 0)","(177, 0, 0)","(155, 155, 155)",2,legacy,experiment,"[5, 6, 7, 0, 1, 2, 3, 4]",/,2500,3000,0,8,252.7587515,1024,2,48000,-16,main,"[(0, -252), (178, -178), (252, 0), (178, 178), (0, 252), (-178, 178), (-252, 0), (-178, -178)]",[],30,even,6,NA,226999,349282,349282,132170,131158,2333,146889,146889,2333,2333,141501,384107,2331,349282,383008,381998,381998,NA,1000,study_X,0,9330,1,yes,1680
undefined,undefined,NA,NA,NA,9330,9330,black,no,legacy,legacy,legacy,0,red,"(177, 0, 0)",color,present,lowProb6,rectangular,swap,same,same,same,green,"(0, 123, 0)",lowProb,lowProb4,rectangular,uniform,1,undefined,0,0.067708333,1,1,69.25520833,1,13,13297,0,0,0,0,0,0,0,0,38,0,1,0.067708333,69.25520833,13,13297,37,37,37,11/22/2018 15:31,Default description,yes,<openexp._canvas.legacy.Legacy object at 0x046865F0>,<openexp._canvas.legacy.Legacy object at 0x04826E30>,<openexp._canvas.legacy.Legacy object at 0x0481FA50>,<openexp._canvas.legacy.Legacy object at 0x045DFE70>,<openexp._canvas.legacy.Legacy object at 0x045CB8D0>,<openexp._canvas.legacy.Legacy object at 0x046761F0>,<openexp._canvas.legacy.Legacy object at 0x04831D90>,<openexp._canvas.legacy.Legacy object at 0x0481F710>,75,SpatProbMultiple3.osexp,C:/Userdata/Michel/SpatProbMultiple3,no,mono,no,18,no,white,no,yes,0.09,98,1050,legacy,315,12,12,1,C:/Userdata/Michel/SpatProbMultiple3/beh/subject-6.csv,legacy,9,192,25,Kafkaesque Koffka,3.2.5,yes,598477b2b83f69022949e7e9,47,red,rectangular,green,rectangular,0,/,1016,space,9330,9330,"(80, 80, 80)","(0, 123, 0)","(177, 0, 0)","(155, 155, 155)",2,legacy,experiment,"[5, 6, 7, 0, 1, 2, 3, 4]",/,2500,3000,0,8,252.7587515,1024,2,48000,-16,main,"[(0, -252), (178, -178), (252, 0), (178, 178), (0, 252), (-178, 178), (-252, 0), (-178, -178)]",[],30,even,2,NA,226999,349282,349282,132170,131158,2333,146889,146889,2333,2333,141501,386563,2331,349282,385544,384535,384535,NA,1000,study_X,0,9330,1,yes,1680
undefined,undefined,NA,NA,NA,9330,9330,black,no,legacy,legacy,legacy,0,red,"(177, 0, 0)",color,present,highProb,circular,same,swap,same,swap,green,"(0, 123, 0)",lowProb,lowProb2,circular,uniform,1,undefined,0,0.072916667,1,1,72.79166667,1,14,13976,0,0,0,0,0,0,0,0,39,0,1,0.072916667,72.79166667,14,13976,38,38,38,11/22/2018 15:31,Default description,yes,<openexp._canvas.legacy.Legacy object at 0x046865F0>,<openexp._canvas.legacy.Legacy object at 0x04826E30>,<openexp._canvas.legacy.Legacy object at 0x0481FA50>,<openexp._canvas.legacy.Legacy object at 0x045DFE70>,<openexp._canvas.legacy.Legacy object at 0x045CB8D0>,<openexp._canvas.legacy.Legacy object at 0x046761F0>,<openexp._canvas.legacy.Legacy object at 0x04826390>,<openexp._canvas.legacy.Legacy object at 0x0481F710>,75,SpatProbMultiple3.osexp,C:/Userdata/Michel/SpatProbMultiple3,no,mono,no,18,no,white,no,yes,0.09,98,1050,legacy,315,13,13,1,C:/Userdata/Michel/SpatProbMultiple3/beh/subject-6.csv,legacy,9,192,25,Kafkaesque Koffka,3.2.5,yes,598477b2b83f69022949e7e9,47,red,circular,green,circular,0,/,679,space,9330,9330,"(80, 80, 80)","(0, 123, 0)","(177, 0, 0)","(155, 155, 155)",2,legacy,experiment,"[5, 6, 7, 0, 1, 2, 3, 4]",/,2500,3000,0,8,252.7587515,1024,2,48000,-16,main,"[(0, -252), (178, -178), (252, 0), (178, 178), (0, 252), (-178, 178), (-252, 0), (-178, -178)]",[],30,even,7,NA,226999,349282,349282,132170,131158,2333,146889,146889,2333,2333,141501,388684,2331,349282,388001,386992,386992,NA,1000,study_X,0,9330,1,yes,1680
undefined,undefined,NA,NA,NA,9330,9330,black,no,legacy,legacy,legacy,0,green,"(0, 123, 0)",color,present,highProb,rectangular,swap,swap,swap,swap,red,"(177, 0, 0)",lowProb,lowProb4,rectangular,uniform,1,undefined,0,0.078125,1,1,79.265625,1,15,15219,0,0,0,0,0,0,0,0,40,0,1,0.078125,79.265625,15,15219,39,39,39,11/22/2018 15:31,Default description,yes,<openexp._canvas.legacy.Legacy object at 0x046865F0>,<openexp._canvas.legacy.Legacy object at 0x04826E30>,<openexp._canvas.legacy.Legacy object at 0x0481FA50>,<openexp._canvas.legacy.Legacy object at 0x045DFE70>,<openexp._canvas.legacy.Legacy object at 0x045CB8D0>,<openexp._canvas.legacy.Legacy object at 0x046761F0>,<openexp._canvas.legacy.Legacy object at 0x04689B70>,<openexp._canvas.legacy.Legacy object at 0x0481F710>,75,SpatProbMultiple3.osexp,C:/Userdata/Michel/SpatProbMultiple3,no,mono,no,18,no,white,no,yes,0.09,98,1050,legacy,45,14,14,1,C:/Userdata/Michel/SpatProbMultiple3/beh/subject-6.csv,legacy,9,192,25,Kafkaesque Koffka,3.2.5,yes,598477b2b83f69022949e7e9,47,green,rectangular,red,rectangular,0,\,1243,space,9330,9330,"(80, 80, 80)","(0, 123, 0)","(177, 0, 0)","(155, 155, 155)",2,legacy,experiment,"[5, 6, 7, 0, 1, 2, 3, 4]",\,2500,3000,0,8,252.7587515,1024,2,48000,-16,main,"[(0, -252), (178, -178), (252, 0), (178, 178), (0, 252), (-178, 178), (-252, 0), (-178, -178)]",[],30,even,2,NA,226999,349282,349282,132170,131158,2333,146889,146889,2333,2333,141501,391388,2331,349282,390141,389131,389131,NA,1000,study_X,0,9330,1,yes,1680
undefined,undefined,NA,NA,NA,9330,9330,black,no,legacy,legacy,legacy,0,green,"(0, 123, 0)",shape,absent,lowProb2,rectangular,same,same,swap,same,green,"(0, 123, 0)",lowProb,lowProb5,rectangular,uniform,1,undefined,0,0.083333333,1,1,82.859375,1,16,15909,0,0,0,0,0,0,0,0,41,0,1,0.083333333,82.859375,16,15909,40,40,40,11/22/2018 15:31,Default description,yes,<openexp._canvas.legacy.Legacy object at 0x046865F0>,<openexp._canvas.legacy.Legacy object at 0x04826E30>,<openexp._canvas.legacy.Legacy object at 0x0481FA50>,<openexp._canvas.legacy.Legacy object at 0x045DFE70>,<openexp._canvas.legacy.Legacy object at 0x045CB8D0>,<openexp._canvas.legacy.Legacy object at 0x046761F0>,<openexp._canvas.legacy.Legacy object at 0x046898D0>,<openexp._canvas.legacy.Legacy object at 0x0481F710>,75,SpatProbMultiple3.osexp,C:/Userdata/Michel/SpatProbMultiple3,no,mono,no,18,no,white,no,yes,0.09,98,1050,legacy,45,15,15,1,C:/Userdata/Michel/SpatProbMultiple3/beh/subject-6.csv,legacy,9,192,25,Kafkaesque Koffka,3.2.5,yes,598477b2b83f69022949e7e9,47,green,rectangular,green,rectangular,0,\,690,space,9330,9330,"(80, 80, 80)","(0, 123, 0)","(177, 0, 0)","(155, 155, 155)",2,legacy,experiment,"[5, 6, 7, 0, 1, 2, 3, 4]",\,2500,3000,0,8,252.7587515,1024,2,48000,-16,main,"[(0, -252), (178, -178), (252, 0), (178, 178), (0, 252), (-178, 178), (-252, 0), (-178, -178)]",[],30,even,3,NA,226999,349282,349282,132170,131158,2333,146889,146889,2333,2333,141501,393516,2331,349282,392823,391814,391814,NA,1000,study_X,0,9330,1,yes,1680
undefined,undefined,NA,NA,NA,9330,9330,black,no,legacy,legacy,legacy,0,red,"(177, 0, 0)",shape,absent,lowProb5,circular,swap,swap,swap,swap,red,"(177, 0, 0)",lowProb,lowProb6,circular,uniform,1,undefined,0,0.088541667,1,1,89.296875,1,17,17145,0,0,0,0,0,0,0,0,42,0,1,0.088541667,89.296875,17,17145,41,41,41,11/22/2018 15:31,Default description,yes,<openexp._canvas.legacy.Legacy object at 0x046865F0>,<openexp._canvas.legacy.Legacy object at 0x04826E30>,<openexp._canvas.legacy.Legacy object at 0x0481FA50>,<openexp._canvas.legacy.Legacy object at 0x045DFE70>,<openexp._canvas.legacy.Legacy object at 0x045CB8D0>,<openexp._canvas.legacy.Legacy object at 0x046761F0>,<openexp._canvas.legacy.Legacy object at 0x0468ACF0>,<openexp._canvas.legacy.Legacy object at 0x0481F710>,75,SpatProbMultiple3.osexp,C:/Userdata/Michel/SpatProbMultiple3,no,mono,no,18,no,white,no,yes,0.09,98,1050,legacy,315,16,16,1,C:/Userdata/Michel/SpatProbMultiple3/beh/subject-6.csv,legacy,9,192,25,Kafkaesque Koffka,3.2.5,yes,598477b2b83f69022949e7e9,47,red,circular,red,circular,0,/,1236,space,9330,9330,"(80, 80, 80)","(0, 123, 0)","(177, 0, 0)","(155, 155, 155)",2,legacy,experiment,"[5, 6, 7, 0, 1, 2, 3, 4]",/,2500,3000,0,8,252.7587515,1024,2,48000,-16,main,"[(0, -252), (178, -178), (252, 0), (178, 178), (0, 252), (-178, 178), (-252, 0), (-178, -178)]",[],30,even,4,NA,226999,349282,349282,132170,131158,2333,146889,146889,2333,2333,141501,396195,2331,349282,394956,393947,393947,NA,1000,study_X,0,9330,1,yes,1680
undefined,undefined,NA,NA,NA,9330,9330,black,no,legacy,legacy,legacy,0,red,"(177, 0, 0)",shape,present,highProb,circular,same,same,same,swap,red,"(177, 0, 0)",lowProb,lowProb1,rectangular,uniform,1,undefined,0,0.09375,1,1,98.30208333,1,18,18874,0,0,0,0,0,0,0,0,43,0,1,0.09375,98.30208333,18,18874,42,42,42,11/22/2018 15:31,Default description,yes,<openexp._canvas.legacy.Legacy object at 0x046865F0>,<openexp._canvas.legacy.Legacy object at 0x04826E30>,<openexp._canvas.legacy.Legacy object at 0x0481FA50>,<openexp._canvas.legacy.Legacy object at 0x045DFE70>,<openexp._canvas.legacy.Legacy object at 0x045CB8D0>,<openexp._canvas.legacy.Legacy object at 0x046761F0>,<openexp._canvas.legacy.Legacy object at 0x048341D0>,<openexp._canvas.legacy.Legacy object at 0x0481F710>,75,SpatProbMultiple3.osexp,C:/Userdata/Michel/SpatProbMultiple3,no,mono,no,18,no,white,no,yes,0.09,98,1050,legacy,45,17,17,1,C:/Userdata/Michel/SpatProbMultiple3/beh/subject-6.csv,legacy,9,192,25,Kafkaesque Koffka,3.2.5,yes,598477b2b83f69022949e7e9,47,red,circular,red,rectangular,0,\,1729,space,9330,9330,"(80, 80, 80)","(0, 123, 0)","(177, 0, 0)","(155, 155, 155)",2,legacy,experiment,"[5, 6, 7, 0, 1, 2, 3, 4]",\,2500,3000,0,8,252.7587515,1024,2,48000,-16,main,"[(0, -252), (178, -178), (252, 0), (178, 178), (0, 252), (-178, 178), (-252, 0), (-178, -178)]",[],30,even,6,NA,226999,349282,349282,132170,131158,2333,146889,146889,2333,2333,141501,399355,2331,349282,397624,396615,396615,NA,1000,study_X,0,9330,1,yes,1680
undefined,undefined,NA,NA,NA,9330,9330,black,no,legacy,legacy,legacy,0,green,"(0, 123, 0)",color,present,lowProb4,rectangular,swap,swap,same,same,red,"(177, 0, 0)",lowProb,lowProb1,rectangular,uniform,1,undefined,0,0.098958333,1,1,103.0104167,1,19,19778,0,0,0,0,0,0,0,0,44,0,1,0.098958333,103.0104167,19,19778,43,43,43,11/22/2018 15:31,Default description,yes,<openexp._canvas.legacy.Legacy object at 0x046865F0>,<openexp._canvas.legacy.Legacy object at 0x04826E30>,<openexp._canvas.legacy.Legacy object at 0x0481FA50>,<openexp._canvas.legacy.Legacy object at 0x045DFE70>,<openexp._canvas.legacy.Legacy object at 0x045CB8D0>,<openexp._canvas.legacy.Legacy object at 0x046761F0>,<openexp._canvas.legacy.Legacy object at 0x0412AFD0>,<openexp._canvas.legacy.Legacy object at 0x0481F710>,75,SpatProbMultiple3.osexp,C:/Userdata/Michel/SpatProbMultiple3,no,mono,no,18,no,white,no,yes,0.09,98,1050,legacy,45,18,18,1,C:/Userdata/Michel/SpatProbMultiple3/beh/subject-6.csv,legacy,9,192,25,Kafkaesque Koffka,3.2.5,yes,598477b2b83f69022949e7e9,47,green,rectangular,red,rectangular,0,\,904,space,9330,9330,"(80, 80, 80)","(0, 123, 0)","(177, 0, 0)","(155, 155, 155)",2,legacy,experiment,"[5, 6, 7, 0, 1, 2, 3, 4]",\,2500,3000,0,8,252.7587515,1024,2,48000,-16,main,"[(0, -252), (178, -178), (252, 0), (178, 178), (0, 252), (-178, 178), (-252, 0), (-178, -178)]",[],30,even,6,NA,226999,349282,349282,132170,131158,2333,146889,146889,2333,2333,141501,401699,2331,349282,400792,399782,399782,NA,1000,study_X,0,9330,1,yes,1680
undefined,undefined,NA,NA,NA,9330,9330,black,no,legacy,legacy,legacy,0,red,"(177, 0, 0)",color,present,highProbOther,circular,swap,swap,swap,swap,green,"(0, 123, 0)",lowProb,lowProb4,circular,uniform,1,undefined,0,0.104166667,1,1,108.3125,1,20,20796,0,0,0,0,0,0,0,0,45,0,1,0.104166667,108.3125,20,20796,44,44,44,11/22/2018 15:31,Default description,yes,<openexp._canvas.legacy.Legacy object at 0x046865F0>,<openexp._canvas.legacy.Legacy object at 0x04826E30>,<openexp._canvas.legacy.Legacy object at 0x0481FA50>,<openexp._canvas.legacy.Legacy object at 0x045DFE70>,<openexp._canvas.legacy.Legacy object at 0x045CB8D0>,<openexp._canvas.legacy.Legacy object at 0x046761F0>,<openexp._canvas.legacy.Legacy object at 0x0481FDB0>,<openexp._canvas.legacy.Legacy object at 0x0481F710>,75,SpatProbMultiple3.osexp,C:/Userdata/Michel/SpatProbMultiple3,no,mono,no,18,no,white,no,yes,0.09,98,1050,legacy,315,19,19,1,C:/Userdata/Michel/SpatProbMultiple3/beh/subject-6.csv,legacy,9,192,25,Kafkaesque Koffka,3.2.5,yes,598477b2b83f69022949e7e9,47,red,circular,green,circular,0,/,1018,space,9330,9330,"(80, 80, 80)","(0, 123, 0)","(177, 0, 0)","(155, 155, 155)",2,legacy,experiment,"[5, 6, 7, 0, 1, 2, 3, 4]",/,2500,3000,0,8,252.7587515,1024,2,48000,-16,main,"[(0, -252), (178, -178), (252, 0), (178, 178), (0, 252), (-178, 178), (-252, 0), (-178, -178)]",[],30,even,2,NA,226999,349282,349282,132170,131158,2333,146889,146889,2333,2333,141501,404187,2331,349282,403165,402156,402156,NA,1000,study_X,0,9330,1,yes,1680
undefined,undefined,NA,NA,NA,9330,9330,black,no,legacy,legacy,legacy,0,red,"(177, 0, 0)",shape,absent,lowProb2,rectangular,same,swap,swap,swap,red,"(177, 0, 0)",lowProb,lowProb5,rectangular,uniform,1,undefined,0,0.109375,1,1,113.921875,1,21,21873,0,0,0,0,0,0,0,0,46,0,1,0.109375,113.921875,21,21873,45,45,45,11/22/2018 15:31,Default description,yes,<openexp._canvas.legacy.Legacy object at 0x046865F0>,<openexp._canvas.legacy.Legacy object at 0x04826E30>,<openexp._canvas.legacy.Legacy object at 0x0481FA50>,<openexp._canvas.legacy.Legacy object at 0x045DFE70>,<openexp._canvas.legacy.Legacy object at 0x045CB8D0>,<openexp._canvas.legacy.Legacy object at 0x046761F0>,<openexp._canvas.legacy.Legacy object at 0x04826130>,<openexp._canvas.legacy.Legacy object at 0x0481F710>,75,SpatProbMultiple3.osexp,C:/Userdata/Michel/SpatProbMultiple3,no,mono,no,18,no,white,no,yes,0.09,98,1050,legacy,45,20,20,1,C:/Userdata/Michel/SpatProbMultiple3/beh/subject-6.csv,legacy,9,192,25,Kafkaesque Koffka,3.2.5,yes,598477b2b83f69022949e7e9,47,red,rectangular,red,rectangular,0,\,1077,space,9330,9330,"(80, 80, 80)","(0, 123, 0)","(177, 0, 0)","(155, 155, 155)",2,legacy,experiment,"[5, 6, 7, 0, 1, 2, 3, 4]",\,2500,3000,0,8,252.7587515,1024,2,48000,-16,main,"[(0, -252), (178, -178), (252, 0), (178, 178), (0, 252), (-178, 178), (-252, 0), (-178, -178)]",[],30,even,3,NA,226999,349282,349282,132170,131158,2333,146889,146889,2333,2333,141501,406700,2331,349282,405619,404609,404609,NA,1000,study_X,0,9330,1,yes,1680
undefined,undefined,NA,NA,NA,9330,9330,black,no,legacy,legacy,legacy,0,red,"(177, 0, 0)",shape,present,highProb,rectangular,same,same,same,swap,red,"(177, 0, 0)",lowProb,lowProb4,circular,uniform,1,undefined,0,0.114583333,1,1,119.6354167,1,22,22970,0,0,0,0,0,0,0,0,47,0,1,0.114583333,119.6354167,22,22970,46,46,46,11/22/2018 15:31,Default description,yes,<openexp._canvas.legacy.Legacy object at 0x046865F0>,<openexp._canvas.legacy.Legacy object at 0x04826E30>,<openexp._canvas.legacy.Legacy object at 0x0481FA50>,<openexp._canvas.legacy.Legacy object at 0x045DFE70>,<openexp._canvas.legacy.Legacy object at 0x045CB8D0>,<openexp._canvas.legacy.Legacy object at 0x046761F0>,<openexp._canvas.legacy.Legacy object at 0x0481C130>,<openexp._canvas.legacy.Legacy object at 0x0481F710>,75,SpatProbMultiple3.osexp,C:/Userdata/Michel/SpatProbMultiple3,no,mono,no,18,no,white,no,yes,0.09,98,1050,legacy,315,21,21,1,C:/Userdata/Michel/SpatProbMultiple3/beh/subject-6.csv,legacy,9,192,25,Kafkaesque Koffka,3.2.5,yes,598477b2b83f69022949e7e9,47,red,rectangular,red,circular,0,/,1097,space,9330,9330,"(80, 80, 80)","(0, 123, 0)","(177, 0, 0)","(155, 155, 155)",2,legacy,experiment,"[5, 6, 7, 0, 1, 2, 3, 4]",/,2500,3000,0,8,252.7587515,1024,2,48000,-16,main,"[(0, -252), (178, -178), (252, 0), (178, 178), (0, 252), (-178, 178), (-252, 0), (-178, -178)]",[],30,even,2,NA,226999,349282,349282,132170,131158,2333,146889,146889,2333,2333,141501,409236,2331,349282,408135,407126,407126,NA,1000,study_X,0,9330,1,yes,1680
undefined,undefined,NA,NA,NA,9330,9330,black,no,legacy,legacy,legacy,0,green,"(0, 123, 0)",color,present,highProb,circular,swap,swap,same,same,red,"(177, 0, 0)",highProbShape,highProbShape,circular,uniform,1,undefined,0,0.119791667,1,1,127.765625,1,23,24531,0,0,0,0,0,0,0,0,48,0,1,0.119791667,127.765625,23,24531,47,47,47,11/22/2018 15:31,Default description,yes,<openexp._canvas.legacy.Legacy object at 0x046865F0>,<openexp._canvas.legacy.Legacy object at 0x04826E30>,<openexp._canvas.legacy.Legacy object at 0x0481FA50>,<openexp._canvas.legacy.Legacy object at 0x045DFE70>,<openexp._canvas.legacy.Legacy object at 0x045CB8D0>,<openexp._canvas.legacy.Legacy object at 0x046761F0>,<openexp._canvas.legacy.Legacy object at 0x04689F10>,<openexp._canvas.legacy.Legacy object at 0x0481F710>,75,SpatProbMultiple3.osexp,C:/Userdata/Michel/SpatProbMultiple3,no,mono,no,18,no,white,no,yes,0.09,98,1050,legacy,315,22,22,1,C:/Userdata/Michel/SpatProbMultiple3/beh/subject-6.csv,legacy,9,192,25,Kafkaesque Koffka,3.2.5,yes,598477b2b83f69022949e7e9,47,green,circular,red,circular,0,/,1561,space,9330,9330,"(80, 80, 80)","(0, 123, 0)","(177, 0, 0)","(155, 155, 155)",2,legacy,experiment,"[5, 6, 7, 0, 1, 2, 3, 4]",/,2500,3000,0,8,252.7587515,1024,2,48000,-16,main,"[(0, -252), (178, -178), (252, 0), (178, 178), (0, 252), (-178, 178), (-252, 0), (-178, -178)]",[],30,even,1,NA,226999,349282,349282,132170,131158,2333,146889,146889,2333,2333,141501,412235,2331,349282,410671,409662,409662,NA,1000,study_X,0,9330,1,yes,1680
undefined,undefined,NA,NA,NA,9330,9330,black,no,legacy,legacy,legacy,0,red,"(177, 0, 0)",color,present,highProb,rectangular,swap,swap,swap,swap,green,"(0, 123, 0)",lowProb,lowProb4,rectangular,uniform,1,undefined,0,0.125,1,1,132.6770833,1,24,25474,0,0,0,0,0,0,0,0,49,0,1,0.125,132.6770833,24,25474,48,48,48,11/22/2018 15:31,Default description,yes,<openexp._canvas.legacy.Legacy object at 0x046865F0>,<openexp._canvas.legacy.Legacy object at 0x04826E30>,<openexp._canvas.legacy.Legacy object at 0x0481FA50>,<openexp._canvas.legacy.Legacy object at 0x045DFE70>,<openexp._canvas.legacy.Legacy object at 0x045CB8D0>,<openexp._canvas.legacy.Legacy object at 0x046761F0>,<openexp._canvas.legacy.Legacy object at 0x04831550>,<openexp._canvas.legacy.Legacy object at 0x0481F710>,75,SpatProbMultiple3.osexp,C:/Userdata/Michel/SpatProbMultiple3,no,mono,no,18,no,white,no,yes,0.09,98,1050,legacy,315,23,23,1,C:/Userdata/Michel/SpatProbMultiple3/beh/subject-6.csv,legacy,9,192,25,Kafkaesque Koffka,3.2.5,yes,598477b2b83f69022949e7e9,47,red,rectangular,green,rectangular,0,/,943,space,9330,9330,"(80, 80, 80)","(0, 123, 0)","(177, 0, 0)","(155, 155, 155)",2,legacy,experiment,"[5, 6, 7, 0, 1, 2, 3, 4]",/,2500,3000,0,8,252.7587515,1024,2,48000,-16,main,"[(0, -252), (178, -178), (252, 0), (178, 178), (0, 252), (-178, 178), (-252, 0), (-178, -178)]",[],30,even,2,NA,226999,349282,349282,132170,131158,2333,146889,146889,2333,2333,141501,414611,2331,349282,413665,412656,412656,NA,1000,study_X,0,9330,1,yes,1680
undefined,undefined,NA,NA,NA,9330,9330,black,no,legacy,legacy,legacy,0,green,"(0, 123, 0)",color,present,highProb,circular,swap,swap,swap,swap,red,"(177, 0, 0)",lowProb,lowProb1,circular,uniform,1,undefined,0,0.130208333,1,1,138.7135417,1,25,26633,0,0,0,0,0,0,0,0,50,0,1,0.130208333,138.7135417,25,26633,49,49,49,11/22/2018 15:31,Default description,yes,<openexp._canvas.legacy.Legacy object at 0x046865F0>,<openexp._canvas.legacy.Legacy object at 0x04826E30>,<openexp._canvas.legacy.Legacy object at 0x0481FA50>,<openexp._canvas.legacy.Legacy object at 0x045DFE70>,<openexp._canvas.legacy.Legacy object at 0x045CB8D0>,<openexp._canvas.legacy.Legacy object at 0x046761F0>,<openexp._canvas.legacy.Legacy object at 0x04678550>,<openexp._canvas.legacy.Legacy object at 0x0481F710>,75,SpatProbMultiple3.osexp,C:/Userdata/Michel/SpatProbMultiple3,no,mono,no,18,no,white,no,yes,0.09,98,1050,legacy,45,24,24,1,C:/Userdata/Michel/SpatProbMultiple3/beh/subject-6.csv,legacy,9,192,25,Kafkaesque Koffka,3.2.5,yes,598477b2b83f69022949e7e9,47,green,circular,red,circular,0,\,1159,space,9330,9330,"(80, 80, 80)","(0, 123, 0)","(177, 0, 0)","(155, 155, 155)",2,legacy,experiment,"[5, 6, 7, 0, 1, 2, 3, 4]",\,2500,3000,0,8,252.7587515,1024,2,48000,-16,main,"[(0, -252), (178, -178), (252, 0), (178, 178), (0, 252), (-178, 178), (-252, 0), (-178, -178)]",[],30,even,6,NA,226999,349282,349282,132170,131158,2333,146889,146889,2333,2333,141501,417219,2331,349282,416057,415047,415048,NA,1000,study_X,0,9330,1,yes,1680
undefined,undefined,NA,NA,NA,9330,9330,black,no,legacy,legacy,legacy,0,green,"(0, 123, 0)",shape,present,lowProb3,circular,same,same,swap,swap,green,"(0, 123, 0)",lowProb,lowProb1,rectangular,uniform,1,undefined,0,0.135416667,1,1,146.5625,1,26,28140,0,0,0,0,0,0,0,0,51,0,1,0.135416667,146.5625,26,28140,50,50,50,11/22/2018 15:31,Default description,yes,<openexp._canvas.legacy.Legacy object at 0x046865F0>,<openexp._canvas.legacy.Legacy object at 0x04826E30>,<openexp._canvas.legacy.Legacy object at 0x0481FA50>,<openexp._canvas.legacy.Legacy object at 0x045DFE70>,<openexp._canvas.legacy.Legacy object at 0x045CB8D0>,<openexp._canvas.legacy.Legacy object at 0x046761F0>,<openexp._canvas.legacy.Legacy object at 0x0481F3F0>,<openexp._canvas.legacy.Legacy object at 0x0481F710>,75,SpatProbMultiple3.osexp,C:/Userdata/Michel/SpatProbMultiple3,no,mono,no,18,no,white,no,yes,0.09,98,1050,legacy,315,25,25,1,C:/Userdata/Michel/SpatProbMultiple3/beh/subject-6.csv,legacy,9,192,25,Kafkaesque Koffka,3.2.5,yes,598477b2b83f69022949e7e9,47,green,circular,green,rectangular,0,/,1507,space,9330,9330,"(80, 80, 80)","(0, 123, 0)","(177, 0, 0)","(155, 155, 155)",2,legacy,experiment,"[5, 6, 7, 0, 1, 2, 3, 4]",/,2500,3000,0,8,252.7587515,1024,2,48000,-16,main,"[(0, -252), (178, -178), (252, 0), (178, 178), (0, 252), (-178, 178), (-252, 0), (-178, -178)]",[],30,even,6,NA,226999,349282,349282,132170,131158,2333,146889,146889,2333,2333,141501,420163,2331,349282,418653,417643,417643,NA,1000,study_X,0,9330,1,yes,1680
undefined,undefined,NA,NA,NA,9330,9330,black,no,legacy,legacy,legacy,0,green,"(0, 123, 0)",shape,present,highProb,circular,same,same,same,same,green,"(0, 123, 0)",lowProb,lowProb2,rectangular,uniform,1,undefined,0,0.140625,1,1,150.3385417,1,27,28865,0,0,0,0,0,0,0,0,52,0,1,0.140625,150.3385417,27,28865,51,51,51,11/22/2018 15:31,Default description,yes,<openexp._canvas.legacy.Legacy object at 0x046865F0>,<openexp._canvas.legacy.Legacy object at 0x04826E30>,<openexp._canvas.legacy.Legacy object at 0x0481FA50>,<openexp._canvas.legacy.Legacy object at 0x045DFE70>,<openexp._canvas.legacy.Legacy object at 0x045CB8D0>,<openexp._canvas.legacy.Legacy object at 0x046761F0>,<openexp._canvas.legacy.Legacy object at 0x0412AF50>,<openexp._canvas.legacy.Legacy object at 0x0481F710>,75,SpatProbMultiple3.osexp,C:/Userdata/Michel/SpatProbMultiple3,no,mono,no,18,no,white,no,yes,0.09,98,1050,legacy,315,26,26,1,C:/Userdata/Michel/SpatProbMultiple3/beh/subject-6.csv,legacy,9,192,25,Kafkaesque Koffka,3.2.5,yes,598477b2b83f69022949e7e9,47,green,circular,green,rectangular,0,/,725,space,9330,9330,"(80, 80, 80)","(0, 123, 0)","(177, 0, 0)","(155, 155, 155)",2,legacy,experiment,"[5, 6, 7, 0, 1, 2, 3, 4]",/,2500,3000,0,8,252.7587515,1024,2,48000,-16,main,"[(0, -252), (178, -178), (252, 0), (178, 178), (0, 252), (-178, 178), (-252, 0), (-178, -178)]",[],30,even,7,NA,226999,349282,349282,132170,131158,2333,146889,146889,2333,2333,141501,422323,2331,349282,421595,420586,420586,NA,1000,study_X,0,9330,1,yes,1680
undefined,undefined,NA,NA,NA,9330,9330,black,no,legacy,legacy,legacy,0,green,"(0, 123, 0)",color,present,highProb,rectangular,same,swap,swap,same,red,"(177, 0, 0)",lowProb,lowProb6,rectangular,uniform,1,undefined,0,0.145833333,1,1,154.5729167,1,28,29678,0,0,0,0,0,0,0,0,53,0,1,0.145833333,154.5729167,28,29678,52,52,52,11/22/2018 15:31,Default description,yes,<openexp._canvas.legacy.Legacy object at 0x046865F0>,<openexp._canvas.legacy.Legacy object at 0x04826E30>,<openexp._canvas.legacy.Legacy object at 0x0481FA50>,<openexp._canvas.legacy.Legacy object at 0x045DFE70>,<openexp._canvas.legacy.Legacy object at 0x045CB8D0>,<openexp._canvas.legacy.Legacy object at 0x046761F0>,<openexp._canvas.legacy.Legacy object at 0x0481C710>,<openexp._canvas.legacy.Legacy object at 0x0481F710>,75,SpatProbMultiple3.osexp,C:/Userdata/Michel/SpatProbMultiple3,no,mono,no,18,no,white,no,yes,0.09,98,1050,legacy,315,27,27,1,C:/Userdata/Michel/SpatProbMultiple3/beh/subject-6.csv,legacy,9,192,25,Kafkaesque Koffka,3.2.5,yes,598477b2b83f69022949e7e9,47,green,rectangular,red,rectangular,0,/,813,space,9330,9330,"(80, 80, 80)","(0, 123, 0)","(177, 0, 0)","(155, 155, 155)",2,legacy,experiment,"[5, 6, 7, 0, 1, 2, 3, 4]",/,2500,3000,0,8,252.7587515,1024,2,48000,-16,main,"[(0, -252), (178, -178), (252, 0), (178, 178), (0, 252), (-178, 178), (-252, 0), (-178, -178)]",[],30,even,4,NA,226999,349282,349282,132170,131158,2333,146889,146889,2333,2333,141501,424588,2331,349282,423772,422763,422763,NA,1000,study_X,0,9330,1,yes,1680
undefined,undefined,NA,NA,NA,9330,9330,black,no,legacy,legacy,legacy,0,red,"(177, 0, 0)",color,present,lowProb2,rectangular,swap,same,swap,same,green,"(0, 123, 0)",lowProb,lowProb5,rectangular,uniform,1,undefined,0,0.151041667,1,1,157.4427083,1,29,30229,0,0,0,0,0,0,0,0,54,0,1,0.151041667,157.4427083,29,30229,53,53,53,11/22/2018 15:31,Default description,yes,<openexp._canvas.legacy.Legacy object at 0x046865F0>,<openexp._canvas.legacy.Legacy object at 0x04826E30>,<openexp._canvas.legacy.Legacy object at 0x0481FA50>,<openexp._canvas.legacy.Legacy object at 0x045DFE70>,<openexp._canvas.legacy.Legacy object at 0x045CB8D0>,<openexp._canvas.legacy.Legacy object at 0x046761F0>,<openexp._canvas.legacy.Legacy object at 0x0413B150>,<openexp._canvas.legacy.Legacy object at 0x0481F710>,75,SpatProbMultiple3.osexp,C:/Userdata/Michel/SpatProbMultiple3,no,mono,no,18,no,white,no,yes,0.09,98,1050,legacy,315,28,28,1,C:/Userdata/Michel/SpatProbMultiple3/beh/subject-6.csv,legacy,9,192,25,Kafkaesque Koffka,3.2.5,yes,598477b2b83f69022949e7e9,47,red,rectangular,green,rectangular,0,/,551,space,9330,9330,"(80, 80, 80)","(0, 123, 0)","(177, 0, 0)","(155, 155, 155)",2,legacy,experiment,"[5, 6, 7, 0, 1, 2, 3, 4]",/,2500,3000,0,8,252.7587515,1024,2,48000,-16,main,"[(0, -252), (178, -178), (252, 0), (178, 178), (0, 252), (-178, 178), (-252, 0), (-178, -178)]",[],30,even,3,NA,226999,349282,349282,132170,131158,2333,146889,146889,2333,2333,141501,426579,2331,349282,426025,425016,425016,NA,1000,study_X,0,9330,1,yes,1680
undefined,undefined,NA,NA,NA,9330,9330,black,no,legacy,legacy,legacy,0,green,"(0, 123, 0)",shape,present,lowProb5,rectangular,swap,same,same,swap,green,"(0, 123, 0)",lowProb,lowProb6,circular,uniform,1,undefined,0,0.15625,1,1,163.703125,1,30,31431,0,0,0,0,0,0,0,0,55,0,1,0.15625,163.703125,30,31431,54,54,54,11/22/2018 15:31,Default description,yes,<openexp._canvas.legacy.Legacy object at 0x046865F0>,<openexp._canvas.legacy.Legacy object at 0x04826E30>,<openexp._canvas.legacy.Legacy object at 0x0481FA50>,<openexp._canvas.legacy.Legacy object at 0x045DFE70>,<openexp._canvas.legacy.Legacy object at 0x045CB8D0>,<openexp._canvas.legacy.Legacy object at 0x046761F0>,<openexp._canvas.legacy.Legacy object at 0x048290B0>,<openexp._canvas.legacy.Legacy object at 0x0481F710>,75,SpatProbMultiple3.osexp,C:/Userdata/Michel/SpatProbMultiple3,no,mono,no,18,no,white,no,yes,0.09,98,1050,legacy,315,29,29,1,C:/Userdata/Michel/SpatProbMultiple3/beh/subject-6.csv,legacy,9,192,25,Kafkaesque Koffka,3.2.5,yes,598477b2b83f69022949e7e9,47,green,rectangular,green,circular,0,/,1202,space,9330,9330,"(80, 80, 80)","(0, 123, 0)","(177, 0, 0)","(155, 155, 155)",2,legacy,experiment,"[5, 6, 7, 0, 1, 2, 3, 4]",/,2500,3000,0,8,252.7587515,1024,2,48000,-16,main,"[(0, -252), (178, -178), (252, 0), (178, 178), (0, 252), (-178, 178), (-252, 0), (-178, -178)]",[],30,even,4,NA,226999,349282,349282,132170,131158,2333,146889,146889,2333,2333,141501,429219,2331,349282,428015,427005,427005,NA,1000,study_X,0,9330,1,yes,1680
undefined,undefined,NA,NA,NA,9330,9330,black,no,legacy,legacy,legacy,0,green,"(0, 123, 0)",color,present,highProb,circular,same,swap,swap,same,red,"(177, 0, 0)",lowProb,lowProb3,circular,uniform,1,undefined,0,0.161458333,1,1,167.875,1,31,32232,0,0,0,0,0,0,0,0,56,0,1,0.161458333,167.875,31,32232,55,55,55,11/22/2018 15:31,Default description,yes,<openexp._canvas.legacy.Legacy object at 0x046865F0>,<openexp._canvas.legacy.Legacy object at 0x04826E30>,<openexp._canvas.legacy.Legacy object at 0x0481FA50>,<openexp._canvas.legacy.Legacy object at 0x045DFE70>,<openexp._canvas.legacy.Legacy object at 0x045CB8D0>,<openexp._canvas.legacy.Legacy object at 0x046761F0>,<openexp._canvas.legacy.Legacy object at 0x04689E30>,<openexp._canvas.legacy.Legacy object at 0x0481F710>,75,SpatProbMultiple3.osexp,C:/Userdata/Michel/SpatProbMultiple3,no,mono,no,18,no,white,no,yes,0.09,98,1050,legacy,315,30,30,1,C:/Userdata/Michel/SpatProbMultiple3/beh/subject-6.csv,legacy,9,192,25,Kafkaesque Koffka,3.2.5,yes,598477b2b83f69022949e7e9,47,green,circular,red,circular,0,/,801,space,9330,9330,"(80, 80, 80)","(0, 123, 0)","(177, 0, 0)","(155, 155, 155)",2,legacy,experiment,"[5, 6, 7, 0, 1, 2, 3, 4]",/,2500,3000,0,8,252.7587515,1024,2,48000,-16,main,"[(0, -252), (178, -178), (252, 0), (178, 178), (0, 252), (-178, 178), (-252, 0), (-178, -178)]",[],30,even,0,NA,226999,349282,349282,132170,131158,2333,146889,146889,2333,2333,141501,431459,2331,349282,430656,429647,429647,NA,1000,study_X,0,9330,1,yes,1680
undefined,undefined,NA,NA,NA,9330,9330,black,no,legacy,legacy,legacy,0,red,"(177, 0, 0)",shape,present,highProb,circular,swap,same,same,swap,red,"(177, 0, 0)",lowProb,lowProb2,rectangular,uniform,1,undefined,0,0.166666667,1,1,172.8489583,1,32,33187,0,0,0,0,0,0,0,0,57,0,1,0.166666667,172.8489583,32,33187,56,56,56,11/22/2018 15:31,Default description,yes,<openexp._canvas.legacy.Legacy object at 0x046865F0>,<openexp._canvas.legacy.Legacy object at 0x04826E30>,<openexp._canvas.legacy.Legacy object at 0x0481FA50>,<openexp._canvas.legacy.Legacy object at 0x045DFE70>,<openexp._canvas.legacy.Legacy object at 0x045CB8D0>,<openexp._canvas.legacy.Legacy object at 0x046761F0>,<openexp._canvas.legacy.Legacy object at 0x0481FC30>,<openexp._canvas.legacy.Legacy object at 0x0481F710>,75,SpatProbMultiple3.osexp,C:/Userdata/Michel/SpatProbMultiple3,no,mono,no,18,no,white,no,yes,0.09,98,1050,legacy,45,31,31,1,C:/Userdata/Michel/SpatProbMultiple3/beh/subject-6.csv,legacy,9,192,25,Kafkaesque Koffka,3.2.5,yes,598477b2b83f69022949e7e9,47,red,circular,red,rectangular,0,\,955,space,9330,9330,"(80, 80, 80)","(0, 123, 0)","(177, 0, 0)","(155, 155, 155)",2,legacy,experiment,"[5, 6, 7, 0, 1, 2, 3, 4]",\,2500,3000,0,8,252.7587515,1024,2,48000,-16,main,"[(0, -252), (178, -178), (252, 0), (178, 178), (0, 252), (-178, 178), (-252, 0), (-178, -178)]",[],30,even,7,NA,226999,349282,349282,132170,131158,2333,146889,146889,2333,2333,141501,433875,2331,349282,432917,431907,431908,NA,1000,study_X,0,9330,1,yes,1680
undefined,undefined,NA,NA,NA,9330,9330,black,no,legacy,legacy,legacy,0,green,"(0, 123, 0)",color,present,highProb,circular,swap,same,same,swap,red,"(177, 0, 0)",highProbShape,highProbShape,circular,uniform,1,undefined,0,0.171875,1,1,178.3958333,1,33,34252,0,0,0,0,0,0,0,0,58,0,1,0.171875,178.3958333,33,34252,57,57,57,11/22/2018 15:31,Default description,yes,<openexp._canvas.legacy.Legacy object at 0x046865F0>,<openexp._canvas.legacy.Legacy object at 0x04826E30>,<openexp._canvas.legacy.Legacy object at 0x0481FA50>,<openexp._canvas.legacy.Legacy object at 0x045DFE70>,<openexp._canvas.legacy.Legacy object at 0x045CB8D0>,<openexp._canvas.legacy.Legacy object at 0x046761F0>,<openexp._canvas.legacy.Legacy object at 0x04689B70>,<openexp._canvas.legacy.Legacy object at 0x0481F710>,75,SpatProbMultiple3.osexp,C:/Userdata/Michel/SpatProbMultiple3,no,mono,no,18,no,white,no,yes,0.09,98,1050,legacy,315,32,32,1,C:/Userdata/Michel/SpatProbMultiple3/beh/subject-6.csv,legacy,9,192,25,Kafkaesque Koffka,3.2.5,yes,598477b2b83f69022949e7e9,47,green,circular,red,circular,0,/,1065,space,9330,9330,"(80, 80, 80)","(0, 123, 0)","(177, 0, 0)","(155, 155, 155)",2,legacy,experiment,"[5, 6, 7, 0, 1, 2, 3, 4]",/,2500,3000,0,8,252.7587515,1024,2,48000,-16,main,"[(0, -252), (178, -178), (252, 0), (178, 178), (0, 252), (-178, 178), (-252, 0), (-178, -178)]",[],30,even,1,NA,226999,349282,349282,132170,131158,2333,146889,146889,2333,2333,141501,436395,2331,349282,435327,434317,434317,NA,1000,study_X,0,9330,1,yes,1680
undefined,undefined,NA,NA,NA,9330,9330,black,no,legacy,legacy,legacy,0,green,"(0, 123, 0)",color,present,lowProb6,circular,same,same,same,same,red,"(177, 0, 0)",lowProb,lowProb2,circular,uniform,1,undefined,0,0.177083333,1,1,185.1927083,1,34,35557,0,0,0,0,0,0,0,0,59,0,1,0.177083333,185.1927083,34,35557,58,58,58,11/22/2018 15:31,Default description,yes,<openexp._canvas.legacy.Legacy object at 0x046865F0>,<openexp._canvas.legacy.Legacy object at 0x04826E30>,<openexp._canvas.legacy.Legacy object at 0x0481FA50>,<openexp._canvas.legacy.Legacy object at 0x045DFE70>,<openexp._canvas.legacy.Legacy object at 0x045CB8D0>,<openexp._canvas.legacy.Legacy object at 0x046761F0>,<openexp._canvas.legacy.Legacy object at 0x0413B1D0>,<openexp._canvas.legacy.Legacy object at 0x0481F710>,75,SpatProbMultiple3.osexp,C:/Userdata/Michel/SpatProbMultiple3,no,mono,no,18,no,white,no,yes,0.09,98,1050,legacy,45,33,33,1,C:/Userdata/Michel/SpatProbMultiple3/beh/subject-6.csv,legacy,9,192,25,Kafkaesque Koffka,3.2.5,yes,598477b2b83f69022949e7e9,47,green,circular,red,circular,0,\,1305,space,9330,9330,"(80, 80, 80)","(0, 123, 0)","(177, 0, 0)","(155, 155, 155)",2,legacy,experiment,"[5, 6, 7, 0, 1, 2, 3, 4]",\,2500,3000,0,8,252.7587515,1024,2,48000,-16,main,"[(0, -252), (178, -178), (252, 0), (178, 178), (0, 252), (-178, 178), (-252, 0), (-178, -178)]",[],30,even,7,NA,226999,349282,349282,132170,131158,2333,146889,146889,2333,2333,141501,439147,2331,349282,437838,436829,436829,NA,1000,study_X,0,9330,1,yes,1680
undefined,undefined,NA,NA,NA,9330,9330,black,no,legacy,legacy,legacy,0,green,"(0, 123, 0)",shape,present,highProb,rectangular,same,swap,swap,same,green,"(0, 123, 0)",lowProb,lowProb3,circular,uniform,1,undefined,0,0.182291667,1,1,188.6302083,1,35,36217,0,0,0,0,0,0,0,0,60,0,1,0.182291667,188.6302083,35,36217,59,59,59,11/22/2018 15:31,Default description,yes,<openexp._canvas.legacy.Legacy object at 0x046865F0>,<openexp._canvas.legacy.Legacy object at 0x04826E30>,<openexp._canvas.legacy.Legacy object at 0x0481FA50>,<openexp._canvas.legacy.Legacy object at 0x045DFE70>,<openexp._canvas.legacy.Legacy object at 0x045CB8D0>,<openexp._canvas.legacy.Legacy object at 0x046761F0>,<openexp._canvas.legacy.Legacy object at 0x048266D0>,<openexp._canvas.legacy.Legacy object at 0x0481F710>,75,SpatProbMultiple3.osexp,C:/Userdata/Michel/SpatProbMultiple3,no,mono,no,18,no,white,no,yes,0.09,98,1050,legacy,315,34,34,1,C:/Userdata/Michel/SpatProbMultiple3/beh/subject-6.csv,legacy,9,192,25,Kafkaesque Koffka,3.2.5,yes,598477b2b83f69022949e7e9,47,green,rectangular,green,circular,0,/,660,space,9330,9330,"(80, 80, 80)","(0, 123, 0)","(177, 0, 0)","(155, 155, 155)",2,legacy,experiment,"[5, 6, 7, 0, 1, 2, 3, 4]",/,2500,3000,0,8,252.7587515,1024,2,48000,-16,main,"[(0, -252), (178, -178), (252, 0), (178, 178), (0, 252), (-178, 178), (-252, 0), (-178, -178)]",[],30,even,0,NA,226999,349282,349282,132170,131158,2333,146889,146889,2333,2333,141501,441259,2331,349282,440596,439586,439586,NA,1000,study_X,0,9330,1,yes,1680
undefined,undefined,NA,NA,NA,9330,9330,black,no,legacy,legacy,legacy,0,red,"(177, 0, 0)",color,present,lowProb3,rectangular,swap,same,same,swap,green,"(0, 123, 0)",lowProb,lowProb6,rectangular,uniform,1,undefined,0,0.1875,1,1,193.0104167,1,36,37058,0,0,0,0,0,0,0,0,61,0,1,0.1875,193.0104167,36,37058,60,60,60,11/22/2018 15:31,Default description,yes,<openexp._canvas.legacy.Legacy object at 0x046865F0>,<openexp._canvas.legacy.Legacy object at 0x04826E30>,<openexp._canvas.legacy.Legacy object at 0x0481FA50>,<openexp._canvas.legacy.Legacy object at 0x045DFE70>,<openexp._canvas.legacy.Legacy object at 0x045CB8D0>,<openexp._canvas.legacy.Legacy object at 0x046761F0>,<openexp._canvas.legacy.Legacy object at 0x04678710>,<openexp._canvas.legacy.Legacy object at 0x0481F710>,75,SpatProbMultiple3.osexp,C:/Userdata/Michel/SpatProbMultiple3,no,mono,no,18,no,white,no,yes,0.09,98,1050,legacy,315,35,35,1,C:/Userdata/Michel/SpatProbMultiple3/beh/subject-6.csv,legacy,9,192,25,Kafkaesque Koffka,3.2.5,yes,598477b2b83f69022949e7e9,47,red,rectangular,green,rectangular,0,/,841,space,9330,9330,"(80, 80, 80)","(0, 123, 0)","(177, 0, 0)","(155, 155, 155)",2,legacy,experiment,"[5, 6, 7, 0, 1, 2, 3, 4]",/,2500,3000,0,8,252.7587515,1024,2,48000,-16,main,"[(0, -252), (178, -178), (252, 0), (178, 178), (0, 252), (-178, 178), (-252, 0), (-178, -178)]",[],30,even,4,NA,226999,349282,349282,132170,131158,2333,146889,146889,2333,2333,141501,443555,2331,349282,442711,441701,441701,NA,1000,study_X,0,9330,1,yes,1680
undefined,undefined,NA,NA,NA,9330,9330,black,no,legacy,legacy,legacy,0,green,"(0, 123, 0)",shape,present,highProb,rectangular,swap,same,same,swap,green,"(0, 123, 0)",highProbColor,highProbColor,circular,uniform,1,undefined,0,0.192708333,1,1,199.0260417,1,37,38213,0,0,0,0,0,0,0,0,62,0,1,0.192708333,199.0260417,37,38213,61,61,61,11/22/2018 15:31,Default description,yes,<openexp._canvas.legacy.Legacy object at 0x046865F0>,<openexp._canvas.legacy.Legacy object at 0x04826E30>,<openexp._canvas.legacy.Legacy object at 0x0481FA50>,<openexp._canvas.legacy.Legacy object at 0x045DFE70>,<openexp._canvas.legacy.Legacy object at 0x045CB8D0>,<openexp._canvas.legacy.Legacy object at 0x046761F0>,<openexp._canvas.legacy.Legacy object at 0x04689C10>,<openexp._canvas.legacy.Legacy object at 0x0481F710>,75,SpatProbMultiple3.osexp,C:/Userdata/Michel/SpatProbMultiple3,no,mono,no,18,no,white,no,yes,0.09,98,1050,legacy,45,36,36,1,C:/Userdata/Michel/SpatProbMultiple3/beh/subject-6.csv,legacy,9,192,25,Kafkaesque Koffka,3.2.5,yes,598477b2b83f69022949e7e9,47,green,rectangular,green,circular,0,\,1155,space,9330,9330,"(80, 80, 80)","(0, 123, 0)","(177, 0, 0)","(155, 155, 155)",2,legacy,experiment,"[5, 6, 7, 0, 1, 2, 3, 4]",\,2500,3000,0,8,252.7587515,1024,2,48000,-16,main,"[(0, -252), (178, -178), (252, 0), (178, 178), (0, 252), (-178, 178), (-252, 0), (-178, -178)]",[],30,even,5,NA,226999,349282,349282,132170,131158,2333,146889,146889,2333,2333,141501,446179,2331,349282,445022,444013,444013,NA,1000,study_X,0,9330,1,yes,1680
undefined,undefined,NA,NA,NA,9330,9330,black,no,legacy,legacy,legacy,0,red,"(177, 0, 0)",shape,present,highProb,circular,swap,swap,swap,swap,red,"(177, 0, 0)",lowProb,lowProb5,rectangular,uniform,1,undefined,0,0.197916667,1,1,205.3072917,1,38,39419,0,0,0,0,0,0,0,0,63,0,1,0.197916667,205.3072917,38,39419,62,62,62,11/22/2018 15:31,Default description,yes,<openexp._canvas.legacy.Legacy object at 0x046865F0>,<openexp._canvas.legacy.Legacy object at 0x04826E30>,<openexp._canvas.legacy.Legacy object at 0x0481FA50>,<openexp._canvas.legacy.Legacy object at 0x045DFE70>,<openexp._canvas.legacy.Legacy object at 0x045CB8D0>,<openexp._canvas.legacy.Legacy object at 0x046761F0>,<openexp._canvas.legacy.Legacy object at 0x048348D0>,<openexp._canvas.legacy.Legacy object at 0x0481F710>,75,SpatProbMultiple3.osexp,C:/Userdata/Michel/SpatProbMultiple3,no,mono,no,18,no,white,no,yes,0.09,98,1050,legacy,45,37,37,1,C:/Userdata/Michel/SpatProbMultiple3/beh/subject-6.csv,legacy,9,192,25,Kafkaesque Koffka,3.2.5,yes,598477b2b83f69022949e7e9,47,red,circular,red,rectangular,0,\,1206,space,9330,9330,"(80, 80, 80)","(0, 123, 0)","(177, 0, 0)","(155, 155, 155)",2,legacy,experiment,"[5, 6, 7, 0, 1, 2, 3, 4]",\,2500,3000,0,8,252.7587515,1024,2,48000,-16,main,"[(0, -252), (178, -178), (252, 0), (178, 178), (0, 252), (-178, 178), (-252, 0), (-178, -178)]",[],30,even,3,NA,226999,349282,349282,132170,131158,2333,146889,146889,2333,2333,141501,448819,2331,349282,447610,446600,446600,NA,1000,study_X,0,9330,1,yes,1680
undefined,undefined,NA,NA,NA,9330,9330,black,no,legacy,legacy,legacy,0,green,"(0, 123, 0)",shape,present,highProb,rectangular,swap,swap,swap,swap,green,"(0, 123, 0)",lowProb,lowProb6,circular,uniform,1,undefined,0,0.203125,1,1,210.5677083,1,39,40429,0,0,0,0,0,0,0,0,64,0,1,0.203125,210.5677083,39,40429,63,63,63,11/22/2018 15:31,Default description,yes,<openexp._canvas.legacy.Legacy object at 0x046865F0>,<openexp._canvas.legacy.Legacy object at 0x04826E30>,<openexp._canvas.legacy.Legacy object at 0x0481FA50>,<openexp._canvas.legacy.Legacy object at 0x045DFE70>,<openexp._canvas.legacy.Legacy object at 0x045CB8D0>,<openexp._canvas.legacy.Legacy object at 0x046761F0>,<openexp._canvas.legacy.Legacy object at 0x04829CB0>,<openexp._canvas.legacy.Legacy object at 0x0481F710>,75,SpatProbMultiple3.osexp,C:/Userdata/Michel/SpatProbMultiple3,no,mono,no,18,no,white,no,yes,0.09,98,1050,legacy,45,38,38,1,C:/Userdata/Michel/SpatProbMultiple3/beh/subject-6.csv,legacy,9,192,25,Kafkaesque Koffka,3.2.5,yes,598477b2b83f69022949e7e9,47,green,rectangular,green,circular,0,\,1010,space,9330,9330,"(80, 80, 80)","(0, 123, 0)","(177, 0, 0)","(155, 155, 155)",2,legacy,experiment,"[5, 6, 7, 0, 1, 2, 3, 4]",\,2500,3000,0,8,252.7587515,1024,2,48000,-16,main,"[(0, -252), (178, -178), (252, 0), (178, 178), (0, 252), (-178, 178), (-252, 0), (-178, -178)]",[],30,even,4,NA,226999,349282,349282,132170,131158,2333,146889,146889,2333,2333,141501,451267,2331,349282,450253,449244,449244,NA,1000,study_X,0,9330,1,yes,1680
undefined,undefined,NA,NA,NA,9330,9330,black,no,legacy,legacy,legacy,0,green,"(0, 123, 0)",color,present,highProb,circular,same,swap,swap,same,red,"(177, 0, 0)",lowProb,lowProb6,circular,uniform,1,undefined,0,0.208333333,1,1,217.4947917,1,40,41759,0,0,0,0,0,0,0,0,65,0,1,0.208333333,217.4947917,40,41759,64,64,64,11/22/2018 15:31,Default description,yes,<openexp._canvas.legacy.Legacy object at 0x046865F0>,<openexp._canvas.legacy.Legacy object at 0x04826E30>,<openexp._canvas.legacy.Legacy object at 0x0481FA50>,<openexp._canvas.legacy.Legacy object at 0x045DFE70>,<openexp._canvas.legacy.Legacy object at 0x045CB8D0>,<openexp._canvas.legacy.Legacy object at 0x046761F0>,<openexp._canvas.legacy.Legacy object at 0x04689270>,<openexp._canvas.legacy.Legacy object at 0x0481F710>,75,SpatProbMultiple3.osexp,C:/Userdata/Michel/SpatProbMultiple3,no,mono,no,18,no,white,no,yes,0.09,98,1050,legacy,45,39,39,1,C:/Userdata/Michel/SpatProbMultiple3/beh/subject-6.csv,legacy,9,192,25,Kafkaesque Koffka,3.2.5,yes,598477b2b83f69022949e7e9,47,green,circular,red,circular,0,\,1330,space,9330,9330,"(80, 80, 80)","(0, 123, 0)","(177, 0, 0)","(155, 155, 155)",2,legacy,experiment,"[5, 6, 7, 0, 1, 2, 3, 4]",\,2500,3000,0,8,252.7587515,1024,2,48000,-16,main,"[(0, -252), (178, -178), (252, 0), (178, 178), (0, 252), (-178, 178), (-252, 0), (-178, -178)]",[],30,even,4,NA,226999,349282,349282,132170,131158,2333,146889,146889,2333,2333,141501,454051,2331,349282,452717,451708,451708,NA,1000,study_X,0,9330,1,yes,1680
undefined,undefined,NA,NA,NA,9330,9330,black,no,legacy,legacy,legacy,0,red,"(177, 0, 0)",color,present,highProb,rectangular,swap,swap,swap,swap,green,"(0, 123, 0)",highProbShape,highProbShape,rectangular,uniform,1,undefined,0,0.213541667,1,1,224.3125,1,41,43068,0,0,0,0,0,0,0,0,66,0,1,0.213541667,224.3125,41,43068,65,65,65,11/22/2018 15:31,Default description,yes,<openexp._canvas.legacy.Legacy object at 0x046865F0>,<openexp._canvas.legacy.Legacy object at 0x04826E30>,<openexp._canvas.legacy.Legacy object at 0x0481FA50>,<openexp._canvas.legacy.Legacy object at 0x045DFE70>,<openexp._canvas.legacy.Legacy object at 0x045CB8D0>,<openexp._canvas.legacy.Legacy object at 0x046761F0>,<openexp._canvas.legacy.Legacy object at 0x04826430>,<openexp._canvas.legacy.Legacy object at 0x0481F710>,75,SpatProbMultiple3.osexp,C:/Userdata/Michel/SpatProbMultiple3,no,mono,no,18,no,white,no,yes,0.09,98,1050,legacy,45,40,40,1,C:/Userdata/Michel/SpatProbMultiple3/beh/subject-6.csv,legacy,9,192,25,Kafkaesque Koffka,3.2.5,yes,598477b2b83f69022949e7e9,47,red,rectangular,green,rectangular,0,\,1309,space,9330,9330,"(80, 80, 80)","(0, 123, 0)","(177, 0, 0)","(155, 155, 155)",2,legacy,experiment,"[5, 6, 7, 0, 1, 2, 3, 4]",\,2500,3000,0,8,252.7587515,1024,2,48000,-16,main,"[(0, -252), (178, -178), (252, 0), (178, 178), (0, 252), (-178, 178), (-252, 0), (-178, -178)]",[],30,even,1,NA,226999,349282,349282,132170,131158,2333,146889,146889,2333,2333,141501,456794,2331,349282,455482,454472,454472,NA,1000,study_X,0,9330,1,yes,1680
undefined,undefined,NA,NA,NA,9330,9330,black,no,legacy,legacy,legacy,0,red,"(177, 0, 0)",shape,present,highProb,circular,same,swap,swap,same,red,"(177, 0, 0)",lowProb,lowProb2,rectangular,uniform,1,undefined,0,0.21875,1,1,228.296875,1,42,43833,0,0,0,0,0,0,0,0,67,0,1,0.21875,228.296875,42,43833,66,66,66,11/22/2018 15:31,Default description,yes,<openexp._canvas.legacy.Legacy object at 0x046865F0>,<openexp._canvas.legacy.Legacy object at 0x04826E30>,<openexp._canvas.legacy.Legacy object at 0x0481FA50>,<openexp._canvas.legacy.Legacy object at 0x045DFE70>,<openexp._canvas.legacy.Legacy object at 0x045CB8D0>,<openexp._canvas.legacy.Legacy object at 0x046761F0>,<openexp._canvas.legacy.Legacy object at 0x0413B1D0>,<openexp._canvas.legacy.Legacy object at 0x0481F710>,75,SpatProbMultiple3.osexp,C:/Userdata/Michel/SpatProbMultiple3,no,mono,no,18,no,white,no,yes,0.09,98,1050,legacy,45,41,41,1,C:/Userdata/Michel/SpatProbMultiple3/beh/subject-6.csv,legacy,9,192,25,Kafkaesque Koffka,3.2.5,yes,598477b2b83f69022949e7e9,47,red,circular,red,rectangular,0,\,765,space,9330,9330,"(80, 80, 80)","(0, 123, 0)","(177, 0, 0)","(155, 155, 155)",2,legacy,experiment,"[5, 6, 7, 0, 1, 2, 3, 4]",\,2500,3000,0,8,252.7587515,1024,2,48000,-16,main,"[(0, -252), (178, -178), (252, 0), (178, 178), (0, 252), (-178, 178), (-252, 0), (-178, -178)]",[],30,even,7,NA,226999,349282,349282,132170,131158,2333,146889,146889,2333,2333,141501,458987,2331,349282,458219,457209,457209,NA,1000,study_X,0,9330,1,yes,1680
undefined,undefined,NA,NA,NA,9330,9330,black,no,legacy,legacy,legacy,0,red,"(177, 0, 0)",color,present,highProbOther,circular,same,same,swap,swap,green,"(0, 123, 0)",lowProb,lowProb4,circular,uniform,1,undefined,0,0.223958333,1,1,233.1302083,1,43,44761,0,0,0,0,0,0,0,0,68,0,1,0.223958333,233.1302083,43,44761,67,67,67,11/22/2018 15:31,Default description,yes,<openexp._canvas.legacy.Legacy object at 0x046865F0>,<openexp._canvas.legacy.Legacy object at 0x04826E30>,<openexp._canvas.legacy.Legacy object at 0x0481FA50>,<openexp._canvas.legacy.Legacy object at 0x045DFE70>,<openexp._canvas.legacy.Legacy object at 0x045CB8D0>,<openexp._canvas.legacy.Legacy object at 0x046761F0>,<openexp._canvas.legacy.Legacy object at 0x04826710>,<openexp._canvas.legacy.Legacy object at 0x0481F710>,75,SpatProbMultiple3.osexp,C:/Userdata/Michel/SpatProbMultiple3,no,mono,no,18,no,white,no,yes,0.09,98,1050,legacy,315,42,42,1,C:/Userdata/Michel/SpatProbMultiple3/beh/subject-6.csv,legacy,9,192,25,Kafkaesque Koffka,3.2.5,yes,598477b2b83f69022949e7e9,47,red,circular,green,circular,0,/,928,space,9330,9330,"(80, 80, 80)","(0, 123, 0)","(177, 0, 0)","(155, 155, 155)",2,legacy,experiment,"[5, 6, 7, 0, 1, 2, 3, 4]",/,2500,3000,0,8,252.7587515,1024,2,48000,-16,main,"[(0, -252), (178, -178), (252, 0), (178, 178), (0, 252), (-178, 178), (-252, 0), (-178, -178)]",[],30,even,2,NA,226999,349282,349282,132170,131158,2333,146889,146889,2333,2333,141501,461355,2331,349282,460424,459415,459415,NA,1000,study_X,0,9330,1,yes,1680
undefined,undefined,NA,NA,NA,9330,9330,black,no,legacy,legacy,legacy,0,green,"(0, 123, 0)",shape,present,lowProb3,rectangular,swap,swap,same,same,green,"(0, 123, 0)",lowProb,lowProb5,circular,uniform,1,undefined,0,0.229166667,1,1,240.4166667,1,44,46160,0,0,0,0,0,0,0,0,69,0,1,0.229166667,240.4166667,44,46160,68,68,68,11/22/2018 15:31,Default description,yes,<openexp._canvas.legacy.Legacy object at 0x046865F0>,<openexp._canvas.legacy.Legacy object at 0x04826E30>,<openexp._canvas.legacy.Legacy object at 0x0481FA50>,<openexp._canvas.legacy.Legacy object at 0x045DFE70>,<openexp._canvas.legacy.Legacy object at 0x045CB8D0>,<openexp._canvas.legacy.Legacy object at 0x046761F0>,<openexp._canvas.legacy.Legacy object at 0x04834290>,<openexp._canvas.legacy.Legacy object at 0x0481F710>,75,SpatProbMultiple3.osexp,C:/Userdata/Michel/SpatProbMultiple3,no,mono,no,18,no,white,no,yes,0.09,98,1050,legacy,45,43,43,1,C:/Userdata/Michel/SpatProbMultiple3/beh/subject-6.csv,legacy,9,192,25,Kafkaesque Koffka,3.2.5,yes,598477b2b83f69022949e7e9,47,green,rectangular,green,circular,0,\,1399,space,9330,9330,"(80, 80, 80)","(0, 123, 0)","(177, 0, 0)","(155, 155, 155)",2,legacy,experiment,"[5, 6, 7, 0, 1, 2, 3, 4]",\,2500,3000,0,8,252.7587515,1024,2,48000,-16,main,"[(0, -252), (178, -178), (252, 0), (178, 178), (0, 252), (-178, 178), (-252, 0), (-178, -178)]",[],30,even,3,NA,226999,349282,349282,132170,131158,2333,146889,146889,2333,2333,141501,464211,2331,349282,462809,461799,461799,NA,1000,study_X,0,9330,1,yes,1680
undefined,undefined,NA,NA,NA,9330,9330,black,no,legacy,legacy,legacy,0,green,"(0, 123, 0)",shape,present,highProbOther,circular,same,swap,same,swap,green,"(0, 123, 0)",lowProb,lowProb6,rectangular,uniform,1,undefined,0,0.234375,1,1,245.0520833,1,45,47050,0,0,0,0,0,0,0,0,70,0,1,0.234375,245.0520833,45,47050,69,69,69,11/22/2018 15:31,Default description,yes,<openexp._canvas.legacy.Legacy object at 0x046865F0>,<openexp._canvas.legacy.Legacy object at 0x04826E30>,<openexp._canvas.legacy.Legacy object at 0x0481FA50>,<openexp._canvas.legacy.Legacy object at 0x045DFE70>,<openexp._canvas.legacy.Legacy object at 0x045CB8D0>,<openexp._canvas.legacy.Legacy object at 0x046761F0>,<openexp._canvas.legacy.Legacy object at 0x04686D90>,<openexp._canvas.legacy.Legacy object at 0x0481F710>,75,SpatProbMultiple3.osexp,C:/Userdata/Michel/SpatProbMultiple3,no,mono,no,18,no,white,no,yes,0.09,98,1050,legacy,315,44,44,1,C:/Userdata/Michel/SpatProbMultiple3/beh/subject-6.csv,legacy,9,192,25,Kafkaesque Koffka,3.2.5,yes,598477b2b83f69022949e7e9,47,green,circular,green,rectangular,0,/,890,space,9330,9330,"(80, 80, 80)","(0, 123, 0)","(177, 0, 0)","(155, 155, 155)",2,legacy,experiment,"[5, 6, 7, 0, 1, 2, 3, 4]",/,2500,3000,0,8,252.7587515,1024,2,48000,-16,main,"[(0, -252), (178, -178), (252, 0), (178, 178), (0, 252), (-178, 178), (-252, 0), (-178, -178)]",[],30,even,4,NA,226999,349282,349282,132170,131158,2333,146889,146889,2333,2333,141501,466531,2331,349282,465637,464627,464627,NA,1000,study_X,0,9330,1,yes,1680
undefined,undefined,NA,NA,NA,9330,9330,black,no,legacy,legacy,legacy,0,red,"(177, 0, 0)",shape,present,lowProb4,rectangular,swap,swap,swap,swap,red,"(177, 0, 0)",lowProb,lowProb1,circular,uniform,1,undefined,0,0.239583333,1,1,253.5104167,1,46,48674,0,0,0,0,0,0,0,0,71,0,1,0.239583333,253.5104167,46,48674,70,70,70,11/22/2018 15:31,Default description,yes,<openexp._canvas.legacy.Legacy object at 0x046865F0>,<openexp._canvas.legacy.Legacy object at 0x04826E30>,<openexp._canvas.legacy.Legacy object at 0x0481FA50>,<openexp._canvas.legacy.Legacy object at 0x045DFE70>,<openexp._canvas.legacy.Legacy object at 0x045CB8D0>,<openexp._canvas.legacy.Legacy object at 0x046761F0>,<openexp._canvas.legacy.Legacy object at 0x0412A810>,<openexp._canvas.legacy.Legacy object at 0x0481F710>,75,SpatProbMultiple3.osexp,C:/Userdata/Michel/SpatProbMultiple3,no,mono,no,18,no,white,no,yes,0.09,98,1050,legacy,315,45,45,1,C:/Userdata/Michel/SpatProbMultiple3/beh/subject-6.csv,legacy,9,192,25,Kafkaesque Koffka,3.2.5,yes,598477b2b83f69022949e7e9,47,red,rectangular,red,circular,0,/,1624,space,9330,9330,"(80, 80, 80)","(0, 123, 0)","(177, 0, 0)","(155, 155, 155)",2,legacy,experiment,"[5, 6, 7, 0, 1, 2, 3, 4]",/,2500,3000,0,8,252.7587515,1024,2,48000,-16,main,"[(0, -252), (178, -178), (252, 0), (178, 178), (0, 252), (-178, 178), (-252, 0), (-178, -178)]",[],30,even,6,NA,226999,349282,349282,132170,131158,2333,146889,146889,2333,2333,141501,469595,2331,349282,467967,466957,466957,NA,1000,study_X,0,9330,1,yes,1680
undefined,undefined,NA,NA,NA,9330,9330,black,no,legacy,legacy,legacy,0,green,"(0, 123, 0)",shape,present,highProb,rectangular,swap,same,swap,same,green,"(0, 123, 0)",highProbColor,highProbColor,circular,uniform,1,undefined,0,0.244791667,1,1,261.4375,1,47,50196,0,0,0,0,0,0,0,0,72,0,1,0.244791667,261.4375,47,50196,71,71,71,11/22/2018 15:31,Default description,yes,<openexp._canvas.legacy.Legacy object at 0x046865F0>,<openexp._canvas.legacy.Legacy object at 0x04826E30>,<openexp._canvas.legacy.Legacy object at 0x0481FA50>,<openexp._canvas.legacy.Legacy object at 0x045DFE70>,<openexp._canvas.legacy.Legacy object at 0x045CB8D0>,<openexp._canvas.legacy.Legacy object at 0x046761F0>,<openexp._canvas.legacy.Legacy object at 0x0481F5B0>,<openexp._canvas.legacy.Legacy object at 0x0481F710>,75,SpatProbMultiple3.osexp,C:/Userdata/Michel/SpatProbMultiple3,no,mono,no,18,no,white,no,yes,0.09,98,1050,legacy,315,46,46,1,C:/Userdata/Michel/SpatProbMultiple3/beh/subject-6.csv,legacy,9,192,25,Kafkaesque Koffka,3.2.5,yes,598477b2b83f69022949e7e9,47,green,rectangular,green,circular,0,/,1522,space,9330,9330,"(80, 80, 80)","(0, 123, 0)","(177, 0, 0)","(155, 155, 155)",2,legacy,experiment,"[5, 6, 7, 0, 1, 2, 3, 4]",/,2500,3000,0,8,252.7587515,1024,2,48000,-16,main,"[(0, -252), (178, -178), (252, 0), (178, 178), (0, 252), (-178, 178), (-252, 0), (-178, -178)]",[],30,even,5,NA,226999,349282,349282,132170,131158,2333,146889,146889,2333,2333,141501,472554,2331,349282,471029,470020,470020,NA,1000,study_X,0,9330,1,yes,1680
undefined,undefined,NA,NA,NA,9330,9330,black,no,legacy,legacy,legacy,0,green,"(0, 123, 0)",color,present,highProb,circular,same,swap,swap,same,red,"(177, 0, 0)",highProbShape,highProbShape,circular,uniform,1,undefined,0,0.25,1,1,273.0833333,1,48,52432,0,0,0,0,0,0,0,0,73,0,1,0.25,273.0833333,48,52432,72,72,72,11/22/2018 15:31,Default description,yes,<openexp._canvas.legacy.Legacy object at 0x046865F0>,<openexp._canvas.legacy.Legacy object at 0x04826E30>,<openexp._canvas.legacy.Legacy object at 0x0481FA50>,<openexp._canvas.legacy.Legacy object at 0x045DFE70>,<openexp._canvas.legacy.Legacy object at 0x045CB8D0>,<openexp._canvas.legacy.Legacy object at 0x046761F0>,<openexp._canvas.legacy.Legacy object at 0x04686E70>,<openexp._canvas.legacy.Legacy object at 0x0481F710>,75,SpatProbMultiple3.osexp,C:/Userdata/Michel/SpatProbMultiple3,no,mono,no,18,no,white,no,yes,0.09,98,1050,legacy,45,47,47,1,C:/Userdata/Michel/SpatProbMultiple3/beh/subject-6.csv,legacy,9,192,25,Kafkaesque Koffka,3.2.5,yes,598477b2b83f69022949e7e9,47,green,circular,red,circular,0,\,2236,space,9330,9330,"(80, 80, 80)","(0, 123, 0)","(177, 0, 0)","(155, 155, 155)",2,legacy,experiment,"[5, 6, 7, 0, 1, 2, 3, 4]",\,2500,3000,0,8,252.7587515,1024,2,48000,-16,main,"[(0, -252), (178, -178), (252, 0), (178, 178), (0, 252), (-178, 178), (-252, 0), (-178, -178)]",[],30,even,1,NA,226999,349282,349282,132170,131158,2333,146889,146889,2333,2333,141501,476235,2331,349282,473996,472986,472986,NA,1000,study_X,0,9330,1,yes,1680
undefined,undefined,NA,NA,NA,9330,9330,black,no,legacy,legacy,legacy,0,red,"(177, 0, 0)",shape,present,highProb,circular,swap,same,same,swap,red,"(177, 0, 0)",lowProb,lowProb4,rectangular,uniform,1,undefined,0,0.255208333,1,1,281.734375,1,49,54093,0,0,0,0,0,0,0,0,74,0,1,0.255208333,281.734375,49,54093,73,73,73,11/22/2018 15:31,Default description,yes,<openexp._canvas.legacy.Legacy object at 0x046865F0>,<openexp._canvas.legacy.Legacy object at 0x04826E30>,<openexp._canvas.legacy.Legacy object at 0x0481FA50>,<openexp._canvas.legacy.Legacy object at 0x045DFE70>,<openexp._canvas.legacy.Legacy object at 0x045CB8D0>,<openexp._canvas.legacy.Legacy object at 0x046761F0>,<openexp._canvas.legacy.Legacy object at 0x0481FA70>,<openexp._canvas.legacy.Legacy object at 0x0481F710>,75,SpatProbMultiple3.osexp,C:/Userdata/Michel/SpatProbMultiple3,no,mono,no,18,no,white,no,yes,0.09,98,1050,legacy,45,48,48,1,C:/Userdata/Michel/SpatProbMultiple3/beh/subject-6.csv,legacy,9,192,25,Kafkaesque Koffka,3.2.5,yes,598477b2b83f69022949e7e9,47,red,circular,red,rectangular,0,\,1661,space,9330,9330,"(80, 80, 80)","(0, 123, 0)","(177, 0, 0)","(155, 155, 155)",2,legacy,experiment,"[5, 6, 7, 0, 1, 2, 3, 4]",\,2500,3000,0,8,252.7587515,1024,2,48000,-16,main,"[(0, -252), (178, -178), (252, 0), (178, 178), (0, 252), (-178, 178), (-252, 0), (-178, -178)]",[],30,even,2,NA,226999,349282,349282,132170,131158,2333,146889,146889,2333,2333,141501,479331,2331,349282,477668,476659,476659,NA,1000,study_X,0,9330,1,yes,1680
undefined,undefined,NA,NA,NA,9330,9330,black,no,legacy,legacy,legacy,0,red,"(177, 0, 0)",shape,present,highProb,rectangular,same,swap,same,swap,red,"(177, 0, 0)",lowProb,lowProb5,circular,uniform,1,undefined,0,0.260416667,1,1,289.3854167,1,50,55562,0,0,0,0,0,0,0,0,75,0,1,0.260416667,289.3854167,50,55562,74,74,74,11/22/2018 15:31,Default description,yes,<openexp._canvas.legacy.Legacy object at 0x046865F0>,<openexp._canvas.legacy.Legacy object at 0x04826E30>,<openexp._canvas.legacy.Legacy object at 0x0481FA50>,<openexp._canvas.legacy.Legacy object at 0x045DFE70>,<openexp._canvas.legacy.Legacy object at 0x045CB8D0>,<openexp._canvas.legacy.Legacy object at 0x046761F0>,<openexp._canvas.legacy.Legacy object at 0x0412A5D0>,<openexp._canvas.legacy.Legacy object at 0x0481F710>,75,SpatProbMultiple3.osexp,C:/Userdata/Michel/SpatProbMultiple3,no,mono,no,18,no,white,no,yes,0.09,98,1050,legacy,315,49,49,1,C:/Userdata/Michel/SpatProbMultiple3/beh/subject-6.csv,legacy,9,192,25,Kafkaesque Koffka,3.2.5,yes,598477b2b83f69022949e7e9,47,red,rectangular,red,circular,0,/,1469,space,9330,9330,"(80, 80, 80)","(0, 123, 0)","(177, 0, 0)","(155, 155, 155)",2,legacy,experiment,"[5, 6, 7, 0, 1, 2, 3, 4]",/,2500,3000,0,8,252.7587515,1024,2,48000,-16,main,"[(0, -252), (178, -178), (252, 0), (178, 178), (0, 252), (-178, 178), (-252, 0), (-178, -178)]",[],30,even,3,NA,226999,349282,349282,132170,131158,2333,146889,146889,2333,2333,141501,482243,2331,349282,480770,479761,479761,NA,1000,study_X,0,9330,1,yes,1680
undefined,undefined,NA,NA,NA,9330,9330,black,no,legacy,legacy,legacy,0,green,"(0, 123, 0)",shape,present,lowProb1,circular,swap,swap,swap,swap,green,"(0, 123, 0)",highProbShape,highProbShape,rectangular,uniform,1,undefined,0,0.265625,1,1,294.8229167,1,51,56606,0,0,0,0,0,0,0,0,76,0,1,0.265625,294.8229167,51,56606,75,75,75,11/22/2018 15:31,Default description,yes,<openexp._canvas.legacy.Legacy object at 0x046865F0>,<openexp._canvas.legacy.Legacy object at 0x04826E30>,<openexp._canvas.legacy.Legacy object at 0x0481FA50>,<openexp._canvas.legacy.Legacy object at 0x045DFE70>,<openexp._canvas.legacy.Legacy object at 0x045CB8D0>,<openexp._canvas.legacy.Legacy object at 0x046761F0>,<openexp._canvas.legacy.Legacy object at 0x0481F230>,<openexp._canvas.legacy.Legacy object at 0x0481F710>,75,SpatProbMultiple3.osexp,C:/Userdata/Michel/SpatProbMultiple3,no,mono,no,18,no,white,no,yes,0.09,98,1050,legacy,45,50,50,1,C:/Userdata/Michel/SpatProbMultiple3/beh/subject-6.csv,legacy,9,192,25,Kafkaesque Koffka,3.2.5,yes,598477b2b83f69022949e7e9,47,green,circular,green,rectangular,0,\,1044,space,9330,9330,"(80, 80, 80)","(0, 123, 0)","(177, 0, 0)","(155, 155, 155)",2,legacy,experiment,"[5, 6, 7, 0, 1, 2, 3, 4]",\,2500,3000,0,8,252.7587515,1024,2,48000,-16,main,"[(0, -252), (178, -178), (252, 0), (178, 178), (0, 252), (-178, 178), (-252, 0), (-178, -178)]",[],30,even,1,NA,226999,349282,349282,132170,131158,2333,146889,146889,2333,2333,141501,484723,2331,349282,483675,482666,482666,NA,1000,study_X,0,9330,1,yes,1680
undefined,undefined,NA,NA,NA,9330,9330,black,no,legacy,legacy,legacy,0,green,"(0, 123, 0)",color,present,lowProb5,circular,same,same,swap,swap,red,"(177, 0, 0)",lowProb,lowProb2,circular,uniform,1,undefined,0,0.270833333,1,1,303.84375,1,52,58338,0,0,0,0,0,0,0,0,77,0,1,0.270833333,303.84375,52,58338,76,76,76,11/22/2018 15:31,Default description,yes,<openexp._canvas.legacy.Legacy object at 0x046865F0>,<openexp._canvas.legacy.Legacy object at 0x04826E30>,<openexp._canvas.legacy.Legacy object at 0x0481FA50>,<openexp._canvas.legacy.Legacy object at 0x045DFE70>,<openexp._canvas.legacy.Legacy object at 0x045CB8D0>,<openexp._canvas.legacy.Legacy object at 0x046761F0>,<openexp._canvas.legacy.Legacy object at 0x04841D10>,<openexp._canvas.legacy.Legacy object at 0x0481F710>,75,SpatProbMultiple3.osexp,C:/Userdata/Michel/SpatProbMultiple3,no,mono,no,18,no,white,no,yes,0.09,98,1050,legacy,45,51,51,1,C:/Userdata/Michel/SpatProbMultiple3/beh/subject-6.csv,legacy,9,192,25,Kafkaesque Koffka,3.2.5,yes,598477b2b83f69022949e7e9,47,green,circular,red,circular,0,\,1732,space,9330,9330,"(80, 80, 80)","(0, 123, 0)","(177, 0, 0)","(155, 155, 155)",2,legacy,experiment,"[5, 6, 7, 0, 1, 2, 3, 4]",\,2500,3000,0,8,252.7587515,1024,2,48000,-16,main,"[(0, -252), (178, -178), (252, 0), (178, 178), (0, 252), (-178, 178), (-252, 0), (-178, -178)]",[],30,even,7,NA,226999,349282,349282,132170,131158,2333,146889,146889,2333,2333,141501,487890,2331,349282,486156,485147,485147,NA,1000,study_X,0,9330,1,yes,1680
undefined,undefined,NA,NA,NA,9330,9330,black,no,legacy,legacy,legacy,0,red,"(177, 0, 0)",color,present,highProb,circular,swap,same,swap,same,green,"(0, 123, 0)",lowProb,lowProb4,circular,uniform,1,undefined,0,0.276041667,1,1,307.9322917,1,53,59123,0,0,0,0,0,0,0,0,78,0,1,0.276041667,307.9322917,53,59123,77,77,77,11/22/2018 15:31,Default description,yes,<openexp._canvas.legacy.Legacy object at 0x046865F0>,<openexp._canvas.legacy.Legacy object at 0x04826E30>,<openexp._canvas.legacy.Legacy object at 0x0481FA50>,<openexp._canvas.legacy.Legacy object at 0x045DFE70>,<openexp._canvas.legacy.Legacy object at 0x045CB8D0>,<openexp._canvas.legacy.Legacy object at 0x046761F0>,<openexp._canvas.legacy.Legacy object at 0x04829770>,<openexp._canvas.legacy.Legacy object at 0x0481F710>,75,SpatProbMultiple3.osexp,C:/Userdata/Michel/SpatProbMultiple3,no,mono,no,18,no,white,no,yes,0.09,98,1050,legacy,315,52,52,1,C:/Userdata/Michel/SpatProbMultiple3/beh/subject-6.csv,legacy,9,192,25,Kafkaesque Koffka,3.2.5,yes,598477b2b83f69022949e7e9,47,red,circular,green,circular,0,/,785,space,9330,9330,"(80, 80, 80)","(0, 123, 0)","(177, 0, 0)","(155, 155, 155)",2,legacy,experiment,"[5, 6, 7, 0, 1, 2, 3, 4]",/,2500,3000,0,8,252.7587515,1024,2,48000,-16,main,"[(0, -252), (178, -178), (252, 0), (178, 178), (0, 252), (-178, 178), (-252, 0), (-178, -178)]",[],30,even,2,NA,226999,349282,349282,132170,131158,2333,146889,146889,2333,2333,141501,490122,2331,349282,489335,488325,488325,NA,1000,study_X,0,9330,1,yes,1680
undefined,undefined,NA,NA,NA,9330,9330,black,no,legacy,legacy,legacy,0,green,"(0, 123, 0)",color,present,lowProb5,circular,swap,same,swap,same,red,"(177, 0, 0)",highProbShape,highProbShape,circular,uniform,1,undefined,0,0.28125,1,1,314.5260417,1,54,60389,0,0,0,0,0,0,0,0,79,0,1,0.28125,314.5260417,54,60389,78,78,78,11/22/2018 15:31,Default description,yes,<openexp._canvas.legacy.Legacy object at 0x046865F0>,<openexp._canvas.legacy.Legacy object at 0x04826E30>,<openexp._canvas.legacy.Legacy object at 0x0481FA50>,<openexp._canvas.legacy.Legacy object at 0x045DFE70>,<openexp._canvas.legacy.Legacy object at 0x045CB8D0>,<openexp._canvas.legacy.Legacy object at 0x046761F0>,<openexp._canvas.legacy.Legacy object at 0x0481F650>,<openexp._canvas.legacy.Legacy object at 0x0481F710>,75,SpatProbMultiple3.osexp,C:/Userdata/Michel/SpatProbMultiple3,no,mono,no,18,no,white,no,yes,0.09,98,1050,legacy,45,53,53,1,C:/Userdata/Michel/SpatProbMultiple3/beh/subject-6.csv,legacy,9,192,25,Kafkaesque Koffka,3.2.5,yes,598477b2b83f69022949e7e9,47,green,circular,red,circular,0,\,1266,space,9330,9330,"(80, 80, 80)","(0, 123, 0)","(177, 0, 0)","(155, 155, 155)",2,legacy,experiment,"[5, 6, 7, 0, 1, 2, 3, 4]",\,2500,3000,0,8,252.7587515,1024,2,48000,-16,main,"[(0, -252), (178, -178), (252, 0), (178, 178), (0, 252), (-178, 178), (-252, 0), (-178, -178)]",[],30,even,1,NA,226999,349282,349282,132170,131158,2333,146889,146889,2333,2333,141501,492819,2331,349282,491550,490540,490540,NA,1000,study_X,0,9330,1,yes,1680
undefined,undefined,NA,NA,NA,9330,9330,black,no,legacy,legacy,legacy,0,green,"(0, 123, 0)",shape,present,highProb,rectangular,same,swap,swap,same,green,"(0, 123, 0)",lowProb,lowProb4,circular,uniform,1,undefined,0,0.286458333,1,1,325.15625,1,55,62430,0,0,0,0,0,0,0,0,80,0,1,0.286458333,325.15625,55,62430,79,79,79,11/22/2018 15:31,Default description,yes,<openexp._canvas.legacy.Legacy object at 0x046865F0>,<openexp._canvas.legacy.Legacy object at 0x04826E30>,<openexp._canvas.legacy.Legacy object at 0x0481FA50>,<openexp._canvas.legacy.Legacy object at 0x045DFE70>,<openexp._canvas.legacy.Legacy object at 0x045CB8D0>,<openexp._canvas.legacy.Legacy object at 0x046761F0>,<openexp._canvas.legacy.Legacy object at 0x0481FE50>,<openexp._canvas.legacy.Legacy object at 0x0481F710>,75,SpatProbMultiple3.osexp,C:/Userdata/Michel/SpatProbMultiple3,no,mono,no,18,no,white,no,yes,0.09,98,1050,legacy,315,54,54,1,C:/Userdata/Michel/SpatProbMultiple3/beh/subject-6.csv,legacy,9,192,25,Kafkaesque Koffka,3.2.5,yes,598477b2b83f69022949e7e9,47,green,rectangular,green,circular,0,/,2041,space,9330,9330,"(80, 80, 80)","(0, 123, 0)","(177, 0, 0)","(155, 155, 155)",2,legacy,experiment,"[5, 6, 7, 0, 1, 2, 3, 4]",/,2500,3000,0,8,252.7587515,1024,2,48000,-16,main,"[(0, -252), (178, -178), (252, 0), (178, 178), (0, 252), (-178, 178), (-252, 0), (-178, -178)]",[],30,even,2,NA,226999,349282,349282,132170,131158,2333,146889,146889,2333,2333,141501,496315,2331,349282,494271,493261,493261,NA,1000,study_X,0,9330,1,yes,1680
undefined,undefined,NA,NA,NA,9330,9330,black,no,legacy,legacy,legacy,0,red,"(177, 0, 0)",shape,absent,lowProb4,circular,swap,swap,swap,same,red,"(177, 0, 0)",highProbColor,highProbColor,circular,uniform,1,undefined,0,0.291666667,1,1,334.6041667,1,56,64244,0,0,0,0,0,0,0,0,81,0,1,0.291666667,334.6041667,56,64244,80,80,80,11/22/2018 15:31,Default description,yes,<openexp._canvas.legacy.Legacy object at 0x046865F0>,<openexp._canvas.legacy.Legacy object at 0x04826E30>,<openexp._canvas.legacy.Legacy object at 0x0481FA50>,<openexp._canvas.legacy.Legacy object at 0x045DFE70>,<openexp._canvas.legacy.Legacy object at 0x045CB8D0>,<openexp._canvas.legacy.Legacy object at 0x046761F0>,<openexp._canvas.legacy.Legacy object at 0x0468A070>,<openexp._canvas.legacy.Legacy object at 0x0481F710>,75,SpatProbMultiple3.osexp,C:/Userdata/Michel/SpatProbMultiple3,no,mono,no,18,no,white,no,yes,0.09,98,1050,legacy,45,55,55,1,C:/Userdata/Michel/SpatProbMultiple3/beh/subject-6.csv,legacy,9,192,25,Kafkaesque Koffka,3.2.5,yes,598477b2b83f69022949e7e9,47,red,circular,red,circular,0,\,1814,space,9330,9330,"(80, 80, 80)","(0, 123, 0)","(177, 0, 0)","(155, 155, 155)",2,legacy,experiment,"[5, 6, 7, 0, 1, 2, 3, 4]",\,2500,3000,0,8,252.7587515,1024,2,48000,-16,main,"[(0, -252), (178, -178), (252, 0), (178, 178), (0, 252), (-178, 178), (-252, 0), (-178, -178)]",[],30,even,5,NA,226999,349282,349282,132170,131158,2333,146889,146889,2333,2333,141501,499571,2331,349282,497753,496743,496743,NA,1000,study_X,0,9330,1,yes,1680
undefined,undefined,NA,NA,NA,9330,9330,black,no,legacy,legacy,legacy,0,green,"(0, 123, 0)",shape,present,highProb,circular,swap,same,swap,swap,green,"(0, 123, 0)",lowProb,lowProb1,rectangular,uniform,1,undefined,0,0.296875,1,1,343.1145833,1,57,65878,0,0,0,0,0,0,0,0,82,0,1,0.296875,343.1145833,57,65878,81,81,81,11/22/2018 15:31,Default description,yes,<openexp._canvas.legacy.Legacy object at 0x046865F0>,<openexp._canvas.legacy.Legacy object at 0x04826E30>,<openexp._canvas.legacy.Legacy object at 0x0481FA50>,<openexp._canvas.legacy.Legacy object at 0x045DFE70>,<openexp._canvas.legacy.Legacy object at 0x045CB8D0>,<openexp._canvas.legacy.Legacy object at 0x046761F0>,<openexp._canvas.legacy.Legacy object at 0x04826050>,<openexp._canvas.legacy.Legacy object at 0x0481F710>,75,SpatProbMultiple3.osexp,C:/Userdata/Michel/SpatProbMultiple3,no,mono,no,18,no,white,no,yes,0.09,98,1050,legacy,45,56,56,1,C:/Userdata/Michel/SpatProbMultiple3/beh/subject-6.csv,legacy,9,192,25,Kafkaesque Koffka,3.2.5,yes,598477b2b83f69022949e7e9,47,green,circular,green,rectangular,0,\,1634,space,9330,9330,"(80, 80, 80)","(0, 123, 0)","(177, 0, 0)","(155, 155, 155)",2,legacy,experiment,"[5, 6, 7, 0, 1, 2, 3, 4]",\,2500,3000,0,8,252.7587515,1024,2,48000,-16,main,"[(0, -252), (178, -178), (252, 0), (178, 178), (0, 252), (-178, 178), (-252, 0), (-178, -178)]",[],30,even,6,NA,226999,349282,349282,132170,131158,2333,146889,146889,2333,2333,141501,502643,2331,349282,501006,499997,499997,NA,1000,study_X,0,9330,1,yes,1680
undefined,undefined,NA,NA,NA,9330,9330,black,no,legacy,legacy,legacy,0,red,"(177, 0, 0)",color,present,highProb,rectangular,swap,swap,same,same,green,"(0, 123, 0)",lowProb,lowProb6,rectangular,uniform,1,undefined,0,0.302083333,1,1,347.1197917,1,58,66647,0,0,0,0,0,0,0,0,83,0,1,0.302083333,347.1197917,58,66647,82,82,82,11/22/2018 15:31,Default description,yes,<openexp._canvas.legacy.Legacy object at 0x046865F0>,<openexp._canvas.legacy.Legacy object at 0x04826E30>,<openexp._canvas.legacy.Legacy object at 0x0481FA50>,<openexp._canvas.legacy.Legacy object at 0x045DFE70>,<openexp._canvas.legacy.Legacy object at 0x045CB8D0>,<openexp._canvas.legacy.Legacy object at 0x046761F0>,<openexp._canvas.legacy.Legacy object at 0x04826510>,<openexp._canvas.legacy.Legacy object at 0x0481F710>,75,SpatProbMultiple3.osexp,C:/Userdata/Michel/SpatProbMultiple3,no,mono,no,18,no,white,no,yes,0.09,98,1050,legacy,45,57,57,1,C:/Userdata/Michel/SpatProbMultiple3/beh/subject-6.csv,legacy,9,192,25,Kafkaesque Koffka,3.2.5,yes,598477b2b83f69022949e7e9,47,red,rectangular,green,rectangular,0,\,769,space,9330,9330,"(80, 80, 80)","(0, 123, 0)","(177, 0, 0)","(155, 155, 155)",2,legacy,experiment,"[5, 6, 7, 0, 1, 2, 3, 4]",\,2500,3000,0,8,252.7587515,1024,2,48000,-16,main,"[(0, -252), (178, -178), (252, 0), (178, 178), (0, 252), (-178, 178), (-252, 0), (-178, -178)]",[],30,even,4,NA,226999,349282,349282,132170,131158,2333,146889,146889,2333,2333,141501,504842,2331,349282,504070,503061,503061,NA,1000,study_X,0,9330,1,yes,1680
undefined,undefined,NA,NA,NA,9330,9330,black,no,legacy,legacy,legacy,0,red,"(177, 0, 0)",shape,present,highProb,rectangular,same,same,swap,swap,red,"(177, 0, 0)",lowProb,lowProb1,circular,uniform,1,undefined,0,0.307291667,1,1,352.7552083,1,59,67729,0,0,0,0,0,0,0,0,84,0,1,0.307291667,352.7552083,59,67729,83,83,83,11/22/2018 15:31,Default description,yes,<openexp._canvas.legacy.Legacy object at 0x046865F0>,<openexp._canvas.legacy.Legacy object at 0x04826E30>,<openexp._canvas.legacy.Legacy object at 0x0481FA50>,<openexp._canvas.legacy.Legacy object at 0x045DFE70>,<openexp._canvas.legacy.Legacy object at 0x045CB8D0>,<openexp._canvas.legacy.Legacy object at 0x046761F0>,<openexp._canvas.legacy.Legacy object at 0x048293B0>,<openexp._canvas.legacy.Legacy object at 0x0481F710>,75,SpatProbMultiple3.osexp,C:/Userdata/Michel/SpatProbMultiple3,no,mono,no,18,no,white,no,yes,0.09,98,1050,legacy,45,58,58,1,C:/Userdata/Michel/SpatProbMultiple3/beh/subject-6.csv,legacy,9,192,25,Kafkaesque Koffka,3.2.5,yes,598477b2b83f69022949e7e9,47,red,rectangular,red,circular,0,\,1082,space,9330,9330,"(80, 80, 80)","(0, 123, 0)","(177, 0, 0)","(155, 155, 155)",2,legacy,experiment,"[5, 6, 7, 0, 1, 2, 3, 4]",\,2500,3000,0,8,252.7587515,1024,2,48000,-16,main,"[(0, -252), (178, -178), (252, 0), (178, 178), (0, 252), (-178, 178), (-252, 0), (-178, -178)]",[],30,even,6,NA,226999,349282,349282,132170,131158,2333,146889,146889,2333,2333,141501,507394,2331,349282,506309,505299,505299,NA,1000,study_X,0,9330,1,yes,1680
undefined,undefined,NA,NA,NA,9330,9330,black,no,legacy,legacy,legacy,0,red,"(177, 0, 0)",shape,present,highProb,circular,same,swap,same,swap,red,"(177, 0, 0)",lowProb,lowProb4,rectangular,uniform,1,undefined,0,0.3125,1,1,357.9895833,1,60,68734,0,0,0,0,0,0,0,0,85,0,1,0.3125,357.9895833,60,68734,84,84,84,11/22/2018 15:31,Default description,yes,<openexp._canvas.legacy.Legacy object at 0x046865F0>,<openexp._canvas.legacy.Legacy object at 0x04826E30>,<openexp._canvas.legacy.Legacy object at 0x0481FA50>,<openexp._canvas.legacy.Legacy object at 0x045DFE70>,<openexp._canvas.legacy.Legacy object at 0x045CB8D0>,<openexp._canvas.legacy.Legacy object at 0x046761F0>,<openexp._canvas.legacy.Legacy object at 0x0468A690>,<openexp._canvas.legacy.Legacy object at 0x0481F710>,75,SpatProbMultiple3.osexp,C:/Userdata/Michel/SpatProbMultiple3,no,mono,no,18,no,white,no,yes,0.09,98,1050,legacy,315,59,59,1,C:/Userdata/Michel/SpatProbMultiple3/beh/subject-6.csv,legacy,9,192,25,Kafkaesque Koffka,3.2.5,yes,598477b2b83f69022949e7e9,47,red,circular,red,rectangular,0,/,1005,space,9330,9330,"(80, 80, 80)","(0, 123, 0)","(177, 0, 0)","(155, 155, 155)",2,legacy,experiment,"[5, 6, 7, 0, 1, 2, 3, 4]",/,2500,3000,0,8,252.7587515,1024,2,48000,-16,main,"[(0, -252), (178, -178), (252, 0), (178, 178), (0, 252), (-178, 178), (-252, 0), (-178, -178)]",[],30,even,2,NA,226999,349282,349282,132170,131158,2333,146889,146889,2333,2333,141501,509834,2331,349282,508826,507816,507816,NA,1000,study_X,0,9330,1,yes,1680
undefined,undefined,NA,NA,NA,9330,9330,black,no,legacy,legacy,legacy,0,red,"(177, 0, 0)",color,absent,highProbOther,rectangular,same,swap,same,same,red,"(177, 0, 0)",lowProb,lowProb1,rectangular,uniform,1,undefined,0,0.317708333,1,1,362.828125,1,61,69663,0,0,0,0,0,0,0,0,86,0,1,0.317708333,362.828125,61,69663,85,85,85,11/22/2018 15:31,Default description,yes,<openexp._canvas.legacy.Legacy object at 0x046865F0>,<openexp._canvas.legacy.Legacy object at 0x04826E30>,<openexp._canvas.legacy.Legacy object at 0x0481FA50>,<openexp._canvas.legacy.Legacy object at 0x045DFE70>,<openexp._canvas.legacy.Legacy object at 0x045CB8D0>,<openexp._canvas.legacy.Legacy object at 0x046761F0>,<openexp._canvas.legacy.Legacy object at 0x0412A810>,<openexp._canvas.legacy.Legacy object at 0x0481F710>,75,SpatProbMultiple3.osexp,C:/Userdata/Michel/SpatProbMultiple3,no,mono,no,18,no,white,no,yes,0.09,98,1050,legacy,315,60,60,1,C:/Userdata/Michel/SpatProbMultiple3/beh/subject-6.csv,legacy,9,192,25,Kafkaesque Koffka,3.2.5,yes,598477b2b83f69022949e7e9,47,red,rectangular,red,rectangular,0,/,929,space,9330,9330,"(80, 80, 80)","(0, 123, 0)","(177, 0, 0)","(155, 155, 155)",2,legacy,experiment,"[5, 6, 7, 0, 1, 2, 3, 4]",/,2500,3000,0,8,252.7587515,1024,2,48000,-16,main,"[(0, -252), (178, -178), (252, 0), (178, 178), (0, 252), (-178, 178), (-252, 0), (-178, -178)]",[],30,even,6,NA,226999,349282,349282,132170,131158,2333,146889,146889,2333,2333,141501,512211,2331,349282,511279,510269,510269,NA,1000,study_X,0,9330,1,yes,1680
undefined,undefined,NA,NA,NA,9330,9330,black,no,legacy,legacy,legacy,0,red,"(177, 0, 0)",color,present,highProb,circular,same,swap,swap,swap,green,"(0, 123, 0)",lowProb,lowProb3,circular,uniform,1,undefined,0,0.322916667,1,1,367.5520833,1,62,70570,0,0,0,0,0,0,0,0,87,0,1,0.322916667,367.5520833,62,70570,86,86,86,11/22/2018 15:31,Default description,yes,<openexp._canvas.legacy.Legacy object at 0x046865F0>,<openexp._canvas.legacy.Legacy object at 0x04826E30>,<openexp._canvas.legacy.Legacy object at 0x0481FA50>,<openexp._canvas.legacy.Legacy object at 0x045DFE70>,<openexp._canvas.legacy.Legacy object at 0x045CB8D0>,<openexp._canvas.legacy.Legacy object at 0x046761F0>,<openexp._canvas.legacy.Legacy object at 0x0468AF30>,<openexp._canvas.legacy.Legacy object at 0x0481F710>,75,SpatProbMultiple3.osexp,C:/Userdata/Michel/SpatProbMultiple3,no,mono,no,18,no,white,no,yes,0.09,98,1050,legacy,315,61,61,1,C:/Userdata/Michel/SpatProbMultiple3/beh/subject-6.csv,legacy,9,192,25,Kafkaesque Koffka,3.2.5,yes,598477b2b83f69022949e7e9,47,red,circular,green,circular,0,/,907,space,9330,9330,"(80, 80, 80)","(0, 123, 0)","(177, 0, 0)","(155, 155, 155)",2,legacy,experiment,"[5, 6, 7, 0, 1, 2, 3, 4]",/,2500,3000,0,8,252.7587515,1024,2,48000,-16,main,"[(0, -252), (178, -178), (252, 0), (178, 178), (0, 252), (-178, 178), (-252, 0), (-178, -178)]",[],30,even,0,NA,226999,349282,349282,132170,131158,2333,146889,146889,2333,2333,141501,514563,2331,349282,513652,512642,512642,NA,1000,study_X,0,9330,1,yes,1680
undefined,undefined,NA,NA,NA,9330,9330,black,no,legacy,legacy,legacy,0,red,"(177, 0, 0)",color,present,lowProb3,rectangular,same,swap,same,swap,green,"(0, 123, 0)",lowProb,lowProb1,rectangular,uniform,1,undefined,0,0.328125,1,1,373.1354167,1,63,71642,0,0,0,0,0,0,0,0,88,0,1,0.328125,373.1354167,63,71642,87,87,87,11/22/2018 15:31,Default description,yes,<openexp._canvas.legacy.Legacy object at 0x046865F0>,<openexp._canvas.legacy.Legacy object at 0x04826E30>,<openexp._canvas.legacy.Legacy object at 0x0481FA50>,<openexp._canvas.legacy.Legacy object at 0x045DFE70>,<openexp._canvas.legacy.Legacy object at 0x045CB8D0>,<openexp._canvas.legacy.Legacy object at 0x046761F0>,<openexp._canvas.legacy.Legacy object at 0x0412A5D0>,<openexp._canvas.legacy.Legacy object at 0x0481F710>,75,SpatProbMultiple3.osexp,C:/Userdata/Michel/SpatProbMultiple3,no,mono,no,18,no,white,no,yes,0.09,98,1050,legacy,45,62,62,1,C:/Userdata/Michel/SpatProbMultiple3/beh/subject-6.csv,legacy,9,192,25,Kafkaesque Koffka,3.2.5,yes,598477b2b83f69022949e7e9,47,red,rectangular,green,rectangular,0,\,1072,space,9330,9330,"(80, 80, 80)","(0, 123, 0)","(177, 0, 0)","(155, 155, 155)",2,legacy,experiment,"[5, 6, 7, 0, 1, 2, 3, 4]",\,2500,3000,0,8,252.7587515,1024,2,48000,-16,main,"[(0, -252), (178, -178), (252, 0), (178, 178), (0, 252), (-178, 178), (-252, 0), (-178, -178)]",[],30,even,6,NA,226999,349282,349282,132170,131158,2333,146889,146889,2333,2333,141501,517075,2331,349282,515999,514989,514989,NA,1000,study_X,0,9330,1,yes,1680
undefined,undefined,NA,NA,NA,9330,9330,black,no,legacy,legacy,legacy,0,red,"(177, 0, 0)",color,present,highProb,circular,same,swap,same,swap,green,"(0, 123, 0)",lowProb,lowProb4,circular,uniform,1,undefined,0,0.333333333,1,1,378.296875,1,64,72633,0,0,0,0,0,0,0,0,89,0,1,0.333333333,378.296875,64,72633,88,88,88,11/22/2018 15:31,Default description,yes,<openexp._canvas.legacy.Legacy object at 0x046865F0>,<openexp._canvas.legacy.Legacy object at 0x04826E30>,<openexp._canvas.legacy.Legacy object at 0x0481FA50>,<openexp._canvas.legacy.Legacy object at 0x045DFE70>,<openexp._canvas.legacy.Legacy object at 0x045CB8D0>,<openexp._canvas.legacy.Legacy object at 0x046761F0>,<openexp._canvas.legacy.Legacy object at 0x04841030>,<openexp._canvas.legacy.Legacy object at 0x0481F710>,75,SpatProbMultiple3.osexp,C:/Userdata/Michel/SpatProbMultiple3,no,mono,no,18,no,white,no,yes,0.09,98,1050,legacy,45,63,63,1,C:/Userdata/Michel/SpatProbMultiple3/beh/subject-6.csv,legacy,9,192,25,Kafkaesque Koffka,3.2.5,yes,598477b2b83f69022949e7e9,47,red,circular,green,circular,0,\,991,space,9330,9330,"(80, 80, 80)","(0, 123, 0)","(177, 0, 0)","(155, 155, 155)",2,legacy,experiment,"[5, 6, 7, 0, 1, 2, 3, 4]",\,2500,3000,0,8,252.7587515,1024,2,48000,-16,main,"[(0, -252), (178, -178), (252, 0), (178, 178), (0, 252), (-178, 178), (-252, 0), (-178, -178)]",[],30,even,2,NA,226999,349282,349282,132170,131158,2333,146889,146889,2333,2333,141501,519506,2331,349282,518513,517503,517503,NA,1000,study_X,0,9330,1,yes,1680
undefined,undefined,NA,NA,NA,9330,9330,black,no,legacy,legacy,legacy,0,green,"(0, 123, 0)",shape,present,highProb,circular,swap,same,same,swap,green,"(0, 123, 0)",lowProb,lowProb1,rectangular,uniform,1,undefined,0,0.338541667,1,1,385.7135417,1,65,74057,0,0,0,0,0,0,0,0,90,0,1,0.338541667,385.7135417,65,74057,89,89,89,11/22/2018 15:31,Default description,yes,<openexp._canvas.legacy.Legacy object at 0x046865F0>,<openexp._canvas.legacy.Legacy object at 0x04826E30>,<openexp._canvas.legacy.Legacy object at 0x0481FA50>,<openexp._canvas.legacy.Legacy object at 0x045DFE70>,<openexp._canvas.legacy.Legacy object at 0x045CB8D0>,<openexp._canvas.legacy.Legacy object at 0x046761F0>,<openexp._canvas.legacy.Legacy object at 0x0481F3D0>,<openexp._canvas.legacy.Legacy object at 0x0481F710>,75,SpatProbMultiple3.osexp,C:/Userdata/Michel/SpatProbMultiple3,no,mono,no,18,no,white,no,yes,0.09,98,1050,legacy,315,64,64,1,C:/Userdata/Michel/SpatProbMultiple3/beh/subject-6.csv,legacy,9,192,25,Kafkaesque Koffka,3.2.5,yes,598477b2b83f69022949e7e9,47,green,circular,green,rectangular,0,/,1424,space,9330,9330,"(80, 80, 80)","(0, 123, 0)","(177, 0, 0)","(155, 155, 155)",2,legacy,experiment,"[5, 6, 7, 0, 1, 2, 3, 4]",/,2500,3000,0,8,252.7587515,1024,2,48000,-16,main,"[(0, -252), (178, -178), (252, 0), (178, 178), (0, 252), (-178, 178), (-252, 0), (-178, -178)]",[],30,even,6,NA,226999,349282,349282,132170,131158,2333,146889,146889,2333,2333,141501,522394,2331,349282,520967,519957,519957,NA,1000,study_X,0,9330,1,yes,1680
