acc,accuracy,answerQ1,answerQ2,answerQ3,average_response_time,avg_rt,background,bidi,canvas_backend,clock_backend,color_backend,compensation,cond_disColor,cond_disColorRGB,cond_disFeature,cond_disPresent,cond_disProbability,cond_disShape,cond_primingDisColor,cond_primingDisShape,cond_primingTarColor,cond_primingTarShape,cond_tarColor,cond_tarColorRGB,cond_tarLocation,cond_tarLocationLong,cond_tarShape,coordinates,correct,correct_continuePress,count_Questions,count_blockAcc,count_blockFeed,count_blockLoop,count_blockRT,count_blockSeq,count_blockSumCorrect,count_blockSumRT,count_continuePress,count_example,count_expSettings,count_exp_mainLoop,count_experiment,count_instructions,count_instructions1,count_instructions2,count_log,count_main,count_prepCanvas,count_totalAcc,count_totalRT,count_totalSumCorrect,count_totalSumRT,count_trialResp,count_trialSeq,count_trialTask,datetime,description,disable_garbage_collection,dispBlank,dispBlockStart,dispFeedBlock,dispFix,dispInstructions,dispQuestions,dispSearch,dispStartScreen,distance2screen,experiment_path,font_bold,font_family,font_italic,font_size,font_underline,foreground,form_clicks,fullscreen,gaborFreq,gaborSize,height,keyboard_backend,lineOriTar,live_row,live_row_blockLoop,live_row_exp_mainLoop,logfile,mouse_backend,noExpBlocks,noExpTrials,noPracTrials,opensesame_codename,opensesame_version,osf_always_upload_experiment,osf_id,physical_screensize,previousDisColor,previousDisShape,previousTarColor,previousTarShape,repeat_cycle,response,responseTime,response_continuePress,response_time,response_time_continuePress,rgb_gray,rgb_green,rgb_red,rgb_white,round_decimals,sampler_backend,set_blockType,set_counterPositions,set_respCorrect,set_respTimeoutExp,set_respTimeoutPrac,set_rotation,set_setSize,sizeImaginary,sound_buf_size,sound_channels,sound_freq,sound_sample_size,start,stimPositions,stimuli,subject_nr,subject_parity,tarIdx,time_Questions,time_blockFeed,time_blockLoop,time_blockSeq,time_continuePress,time_example,time_expSettings,time_exp_mainLoop,time_experiment,time_instructions,time_instructions1,time_instructions2,time_log,time_main,time_prepCanvas,time_trialResp,time_trialSeq,time_trialTask,timing_EEGwait,timing_fix,title,total_correct,total_response_time,total_responses,uniform_coordinates,width
undefined,undefined,NA,NA,NA,7547,7547,black,no,legacy,legacy,legacy,0,green,"(0, 123, 0)",color,present,highProb,circular,same,same,swap,swap,red,"(177, 0, 0)",lowProb,lowProb1,circular,uniform,0,undefined,0,0,1,1,13.02083333,1,0,2500,0,0,0,0,0,0,0,0,26,0,1,0,13.02083333,0,2500,25,25,25,11/21/2018 14:09,Default description,yes,<openexp._canvas.legacy.legacy object at 0x04284090>,<openexp._canvas.legacy.legacy object at 0x0428D830>,<openexp._canvas.legacy.legacy object at 0x042D2370>,<openexp._canvas.legacy.legacy object at 0x042949B0>,<openexp._canvas.legacy.legacy object at 0x042D1050>,<openexp._canvas.legacy.legacy object at 0x042771D0>,<openexp._canvas.legacy.legacy object at 0x0429EEB0>,<openexp._canvas.legacy.legacy object at 0x0428D8B0>,75,C:/Userdata/Michel/SpatProbMultiple3,no,mono,no,18,no,white,no,yes,0.09,98,1050,legacy,315,0,0,1,C:/Userdata/Michel/SpatProbMultiple3/beh/subject-8.csv,legacy,12,192,25,Jazzy James,3.1.9,yes,598477b2b83f69022949e7e9,47,green,circular,red,circular,0,None,2500,space,7547,7547,"(80, 80, 80)","(0, 123, 0)","(177, 0, 0)","(155, 155, 155)",2,legacy,experiment,"[7, 0, 1, 2, 3, 4, 5, 6]",/,2500,3000,0,8,252.7587515,1024,2,48000,-16,main,"[(0, -252), (178, -178), (252, 0), (178, 178), (0, 252), (-178, 178), (-252, 0), (-178, -178)]",[],32,even,0,NA,240972,406932,406932,141403,140393,1884,159185,159185,1884,1884,148950,415739,1883,406932,413236,407336,407336,NA,817,study_X,0,7547,1,yes,1680
undefined,undefined,NA,NA,NA,7547,7547,black,no,legacy,legacy,legacy,0,green,"(0, 123, 0)",shape,present,highProb,circular,same,same,swap,swap,green,"(0, 123, 0)",highProbColor,highProbColor,rectangular,uniform,1,undefined,0,0.005208333,1,1,20.59895833,1,1,3955,0,0,0,0,0,0,0,0,27,0,1,0.005208333,20.59895833,1,3955,26,26,26,11/21/2018 14:09,Default description,yes,<openexp._canvas.legacy.legacy object at 0x04284090>,<openexp._canvas.legacy.legacy object at 0x0428D830>,<openexp._canvas.legacy.legacy object at 0x042D2370>,<openexp._canvas.legacy.legacy object at 0x042949B0>,<openexp._canvas.legacy.legacy object at 0x042D1050>,<openexp._canvas.legacy.legacy object at 0x042771D0>,<openexp._canvas.legacy.legacy object at 0x04284A30>,<openexp._canvas.legacy.legacy object at 0x0428D8B0>,75,C:/Userdata/Michel/SpatProbMultiple3,no,mono,no,18,no,white,no,yes,0.09,98,1050,legacy,45,1,1,1,C:/Userdata/Michel/SpatProbMultiple3/beh/subject-8.csv,legacy,12,192,25,Jazzy James,3.1.9,yes,598477b2b83f69022949e7e9,47,green,circular,green,rectangular,0,\,1455,space,7547,7547,"(80, 80, 80)","(0, 123, 0)","(177, 0, 0)","(155, 155, 155)",2,legacy,experiment,"[7, 0, 1, 2, 3, 4, 5, 6]",\,2500,3000,0,8,252.7587515,1024,2,48000,-16,main,"[(0, -252), (178, -178), (252, 0), (178, 178), (0, 252), (-178, 178), (-252, 0), (-178, -178)]",[],32,even,7,NA,240972,406932,406932,141403,140393,1884,159185,159185,1884,1884,148950,418500,1883,406932,417041,416215,416215,NA,817,study_X,0,7547,1,yes,1680
undefined,undefined,NA,NA,NA,7547,7547,black,no,legacy,legacy,legacy,0,green,"(0, 123, 0)",color,present,lowProb2,circular,same,same,swap,swap,red,"(177, 0, 0)",highProbColor,highProbColor,circular,uniform,1,undefined,0,0.010416667,1,1,29.46875,1,2,5658,0,0,0,0,0,0,0,0,28,0,1,0.010416667,29.46875,2,5658,27,27,27,11/21/2018 14:09,Default description,yes,<openexp._canvas.legacy.legacy object at 0x04284090>,<openexp._canvas.legacy.legacy object at 0x0428D830>,<openexp._canvas.legacy.legacy object at 0x042D2370>,<openexp._canvas.legacy.legacy object at 0x042949B0>,<openexp._canvas.legacy.legacy object at 0x042D1050>,<openexp._canvas.legacy.legacy object at 0x042771D0>,<openexp._canvas.legacy.legacy object at 0x04284170>,<openexp._canvas.legacy.legacy object at 0x0428D8B0>,75,C:/Userdata/Michel/SpatProbMultiple3,no,mono,no,18,no,white,no,yes,0.09,98,1050,legacy,315,2,2,1,C:/Userdata/Michel/SpatProbMultiple3/beh/subject-8.csv,legacy,12,192,25,Jazzy James,3.1.9,yes,598477b2b83f69022949e7e9,47,green,circular,red,circular,0,/,1703,space,7547,7547,"(80, 80, 80)","(0, 123, 0)","(177, 0, 0)","(155, 155, 155)",2,legacy,experiment,"[7, 0, 1, 2, 3, 4, 5, 6]",/,2500,3000,0,8,252.7587515,1024,2,48000,-16,main,"[(0, -252), (178, -178), (252, 0), (178, 178), (0, 252), (-178, 178), (-252, 0), (-178, -178)]",[],32,even,7,NA,240972,406932,406932,141403,140393,1884,159185,159185,1884,1884,148950,421476,1883,406932,419769,418943,418943,NA,817,study_X,0,7547,1,yes,1680
undefined,undefined,NA,NA,NA,7547,7547,black,no,legacy,legacy,legacy,0,green,"(0, 123, 0)",shape,present,highProb,circular,same,same,swap,swap,green,"(0, 123, 0)",lowProb,lowProb2,rectangular,uniform,1,undefined,0,0.015625,1,1,37.67708333,1,3,7234,0,0,0,0,0,0,0,0,29,0,1,0.015625,37.67708333,3,7234,28,28,28,11/21/2018 14:09,Default description,yes,<openexp._canvas.legacy.legacy object at 0x04284090>,<openexp._canvas.legacy.legacy object at 0x0428D830>,<openexp._canvas.legacy.legacy object at 0x042D2370>,<openexp._canvas.legacy.legacy object at 0x042949B0>,<openexp._canvas.legacy.legacy object at 0x042D1050>,<openexp._canvas.legacy.legacy object at 0x042771D0>,<openexp._canvas.legacy.legacy object at 0x0429EA30>,<openexp._canvas.legacy.legacy object at 0x0428D8B0>,75,C:/Userdata/Michel/SpatProbMultiple3,no,mono,no,18,no,white,no,yes,0.09,98,1050,legacy,45,3,3,1,C:/Userdata/Michel/SpatProbMultiple3/beh/subject-8.csv,legacy,12,192,25,Jazzy James,3.1.9,yes,598477b2b83f69022949e7e9,47,green,circular,green,rectangular,0,\,1576,space,7547,7547,"(80, 80, 80)","(0, 123, 0)","(177, 0, 0)","(155, 155, 155)",2,legacy,experiment,"[7, 0, 1, 2, 3, 4, 5, 6]",\,2500,3000,0,8,252.7587515,1024,2,48000,-16,main,"[(0, -252), (178, -178), (252, 0), (178, 178), (0, 252), (-178, 178), (-252, 0), (-178, -178)]",[],32,even,1,NA,240972,406932,406932,141403,140393,1884,159185,159185,1884,1884,148950,424309,1883,406932,422729,421903,421903,NA,817,study_X,0,7547,1,yes,1680
undefined,undefined,NA,NA,NA,7547,7547,black,no,legacy,legacy,legacy,0,green,"(0, 123, 0)",shape,absent,lowProb1,rectangular,same,swap,same,same,green,"(0, 123, 0)",highProbShape,highProbShape,rectangular,uniform,1,undefined,0,0.020833333,1,1,47.296875,1,4,9081,0,0,0,0,0,0,0,0,30,0,1,0.020833333,47.296875,4,9081,29,29,29,11/21/2018 14:09,Default description,yes,<openexp._canvas.legacy.legacy object at 0x04284090>,<openexp._canvas.legacy.legacy object at 0x0428D830>,<openexp._canvas.legacy.legacy object at 0x042D2370>,<openexp._canvas.legacy.legacy object at 0x042949B0>,<openexp._canvas.legacy.legacy object at 0x042D1050>,<openexp._canvas.legacy.legacy object at 0x042771D0>,<openexp._canvas.legacy.legacy object at 0x04278970>,<openexp._canvas.legacy.legacy object at 0x0428D8B0>,75,C:/Userdata/Michel/SpatProbMultiple3,no,mono,no,18,no,white,no,yes,0.09,98,1050,legacy,315,4,4,1,C:/Userdata/Michel/SpatProbMultiple3/beh/subject-8.csv,legacy,12,192,25,Jazzy James,3.1.9,yes,598477b2b83f69022949e7e9,47,green,rectangular,green,rectangular,0,/,1847,space,7547,7547,"(80, 80, 80)","(0, 123, 0)","(177, 0, 0)","(155, 155, 155)",2,legacy,experiment,"[7, 0, 1, 2, 3, 4, 5, 6]",/,2500,3000,0,8,252.7587515,1024,2,48000,-16,main,"[(0, -252), (178, -178), (252, 0), (178, 178), (0, 252), (-178, 178), (-252, 0), (-178, -178)]",[],32,even,3,NA,240972,406932,406932,141403,140393,1884,159185,159185,1884,1884,148950,427412,1883,406932,425562,424736,424736,NA,817,study_X,0,7547,1,yes,1680
undefined,undefined,NA,NA,NA,7547,7547,black,no,legacy,legacy,legacy,0,green,"(0, 123, 0)",color,present,highProbOther,circular,same,swap,swap,swap,red,"(177, 0, 0)",highProbColor,highProbColor,circular,uniform,1,undefined,0,0.026041667,1,1,52.75,1,5,10128,0,0,0,0,0,0,0,0,31,0,1,0.026041667,52.75,5,10128,30,30,30,11/21/2018 14:09,Default description,yes,<openexp._canvas.legacy.legacy object at 0x04284090>,<openexp._canvas.legacy.legacy object at 0x0428D830>,<openexp._canvas.legacy.legacy object at 0x042D2370>,<openexp._canvas.legacy.legacy object at 0x042949B0>,<openexp._canvas.legacy.legacy object at 0x042D1050>,<openexp._canvas.legacy.legacy object at 0x042771D0>,<openexp._canvas.legacy.legacy object at 0x0428D390>,<openexp._canvas.legacy.legacy object at 0x0428D8B0>,75,C:/Userdata/Michel/SpatProbMultiple3,no,mono,no,18,no,white,no,yes,0.09,98,1050,legacy,315,5,5,1,C:/Userdata/Michel/SpatProbMultiple3/beh/subject-8.csv,legacy,12,192,25,Jazzy James,3.1.9,yes,598477b2b83f69022949e7e9,47,green,circular,red,circular,0,/,1047,space,7547,7547,"(80, 80, 80)","(0, 123, 0)","(177, 0, 0)","(155, 155, 155)",2,legacy,experiment,"[7, 0, 1, 2, 3, 4, 5, 6]",/,2500,3000,0,8,252.7587515,1024,2,48000,-16,main,"[(0, -252), (178, -178), (252, 0), (178, 178), (0, 252), (-178, 178), (-252, 0), (-178, -178)]",[],32,even,7,NA,240972,406932,406932,141403,140393,1884,159185,159185,1884,1884,148950,429732,1883,406932,428682,427856,427856,NA,817,study_X,0,7547,1,yes,1680
undefined,undefined,NA,NA,NA,7547,7547,black,no,legacy,legacy,legacy,0,green,"(0, 123, 0)",color,absent,lowProb3,rectangular,same,swap,swap,swap,green,"(0, 123, 0)",lowProb,lowProb5,rectangular,uniform,1,undefined,0,0.03125,1,1,65.46354167,1,6,12569,0,0,0,0,0,0,0,0,32,0,1,0.03125,65.46354167,6,12569,31,31,31,11/21/2018 14:09,Default description,yes,<openexp._canvas.legacy.legacy object at 0x04284090>,<openexp._canvas.legacy.legacy object at 0x0428D830>,<openexp._canvas.legacy.legacy object at 0x042D2370>,<openexp._canvas.legacy.legacy object at 0x042949B0>,<openexp._canvas.legacy.legacy object at 0x042D1050>,<openexp._canvas.legacy.legacy object at 0x042771D0>,<openexp._canvas.legacy.legacy object at 0x0429E510>,<openexp._canvas.legacy.legacy object at 0x0428D8B0>,75,C:/Userdata/Michel/SpatProbMultiple3,no,mono,no,18,no,white,no,yes,0.09,98,1050,legacy,45,6,6,1,C:/Userdata/Michel/SpatProbMultiple3/beh/subject-8.csv,legacy,12,192,25,Jazzy James,3.1.9,yes,598477b2b83f69022949e7e9,47,green,rectangular,green,rectangular,0,\,2441,space,7547,7547,"(80, 80, 80)","(0, 123, 0)","(177, 0, 0)","(155, 155, 155)",2,legacy,experiment,"[7, 0, 1, 2, 3, 4, 5, 6]",\,2500,3000,0,8,252.7587515,1024,2,48000,-16,main,"[(0, -252), (178, -178), (252, 0), (178, 178), (0, 252), (-178, 178), (-252, 0), (-178, -178)]",[],32,even,5,NA,240972,406932,406932,141403,140393,1884,159185,159185,1884,1884,148950,433428,1883,406932,430984,430158,430158,NA,817,study_X,0,7547,1,yes,1680
undefined,undefined,NA,NA,NA,7547,7547,black,no,legacy,legacy,legacy,0,red,"(177, 0, 0)",color,present,highProb,circular,swap,swap,same,swap,green,"(0, 123, 0)",lowProb,lowProb5,circular,uniform,1,undefined,0,0.036458333,1,1,71.8125,1,7,13788,0,0,0,0,0,0,0,0,33,0,1,0.036458333,71.8125,7,13788,32,32,32,11/21/2018 14:09,Default description,yes,<openexp._canvas.legacy.legacy object at 0x04284090>,<openexp._canvas.legacy.legacy object at 0x0428D830>,<openexp._canvas.legacy.legacy object at 0x042D2370>,<openexp._canvas.legacy.legacy object at 0x042949B0>,<openexp._canvas.legacy.legacy object at 0x042D1050>,<openexp._canvas.legacy.legacy object at 0x042771D0>,<openexp._canvas.legacy.legacy object at 0x0429C790>,<openexp._canvas.legacy.legacy object at 0x0428D8B0>,75,C:/Userdata/Michel/SpatProbMultiple3,no,mono,no,18,no,white,no,yes,0.09,98,1050,legacy,45,7,7,1,C:/Userdata/Michel/SpatProbMultiple3/beh/subject-8.csv,legacy,12,192,25,Jazzy James,3.1.9,yes,598477b2b83f69022949e7e9,47,red,circular,green,circular,0,\,1219,space,7547,7547,"(80, 80, 80)","(0, 123, 0)","(177, 0, 0)","(155, 155, 155)",2,legacy,experiment,"[7, 0, 1, 2, 3, 4, 5, 6]",\,2500,3000,0,8,252.7587515,1024,2,48000,-16,main,"[(0, -252), (178, -178), (252, 0), (178, 178), (0, 252), (-178, 178), (-252, 0), (-178, -178)]",[],32,even,5,NA,240972,406932,406932,141403,140393,1884,159185,159185,1884,1884,148950,435932,1883,406932,434709,433882,433882,NA,817,study_X,0,7547,1,yes,1680
undefined,undefined,NA,NA,NA,7547,7547,black,no,legacy,legacy,legacy,0,red,"(177, 0, 0)",color,present,lowProb3,rectangular,same,swap,same,swap,green,"(0, 123, 0)",lowProb,lowProb4,rectangular,uniform,1,undefined,0,0.041666667,1,1,78.4375,1,8,15060,0,0,0,0,0,0,0,0,34,0,1,0.041666667,78.4375,8,15060,33,33,33,11/21/2018 14:09,Default description,yes,<openexp._canvas.legacy.legacy object at 0x04284090>,<openexp._canvas.legacy.legacy object at 0x0428D830>,<openexp._canvas.legacy.legacy object at 0x042D2370>,<openexp._canvas.legacy.legacy object at 0x042949B0>,<openexp._canvas.legacy.legacy object at 0x042D1050>,<openexp._canvas.legacy.legacy object at 0x042771D0>,<openexp._canvas.legacy.legacy object at 0x0428D410>,<openexp._canvas.legacy.legacy object at 0x0428D8B0>,75,C:/Userdata/Michel/SpatProbMultiple3,no,mono,no,18,no,white,no,yes,0.09,98,1050,legacy,45,8,8,1,C:/Userdata/Michel/SpatProbMultiple3/beh/subject-8.csv,legacy,12,192,25,Jazzy James,3.1.9,yes,598477b2b83f69022949e7e9,47,red,rectangular,green,rectangular,0,\,1272,space,7547,7547,"(80, 80, 80)","(0, 123, 0)","(177, 0, 0)","(155, 155, 155)",2,legacy,experiment,"[7, 0, 1, 2, 3, 4, 5, 6]",\,2500,3000,0,8,252.7587515,1024,2,48000,-16,main,"[(0, -252), (178, -178), (252, 0), (178, 178), (0, 252), (-178, 178), (-252, 0), (-178, -178)]",[],32,even,4,NA,240972,406932,406932,141403,140393,1884,159185,159185,1884,1884,148950,438460,1883,406932,437185,436359,436359,NA,817,study_X,0,7547,1,yes,1680
undefined,undefined,NA,NA,NA,7547,7547,black,no,legacy,legacy,legacy,0,green,"(0, 123, 0)",shape,present,highProb,circular,swap,swap,same,same,green,"(0, 123, 0)",lowProb,lowProb1,rectangular,uniform,1,undefined,0,0.046875,1,1,88.953125,1,9,17079,0,0,0,0,0,0,0,0,35,0,1,0.046875,88.953125,9,17079,34,34,34,11/21/2018 14:09,Default description,yes,<openexp._canvas.legacy.legacy object at 0x04284090>,<openexp._canvas.legacy.legacy object at 0x0428D830>,<openexp._canvas.legacy.legacy object at 0x042D2370>,<openexp._canvas.legacy.legacy object at 0x042949B0>,<openexp._canvas.legacy.legacy object at 0x042D1050>,<openexp._canvas.legacy.legacy object at 0x042771D0>,<openexp._canvas.legacy.legacy object at 0x0429E9F0>,<openexp._canvas.legacy.legacy object at 0x0428D8B0>,75,C:/Userdata/Michel/SpatProbMultiple3,no,mono,no,18,no,white,no,yes,0.09,98,1050,legacy,45,9,9,1,C:/Userdata/Michel/SpatProbMultiple3/beh/subject-8.csv,legacy,12,192,25,Jazzy James,3.1.9,yes,598477b2b83f69022949e7e9,47,green,circular,green,rectangular,0,\,2019,space,7547,7547,"(80, 80, 80)","(0, 123, 0)","(177, 0, 0)","(155, 155, 155)",2,legacy,experiment,"[7, 0, 1, 2, 3, 4, 5, 6]",\,2500,3000,0,8,252.7587515,1024,2,48000,-16,main,"[(0, -252), (178, -178), (252, 0), (178, 178), (0, 252), (-178, 178), (-252, 0), (-178, -178)]",[],32,even,0,NA,240972,406932,406932,141403,140393,1884,159185,159185,1884,1884,148950,441764,1883,406932,439743,438917,438917,NA,817,study_X,0,7547,1,yes,1680
undefined,undefined,NA,NA,NA,7547,7547,black,no,legacy,legacy,legacy,0,green,"(0, 123, 0)",color,present,highProb,circular,same,same,swap,swap,red,"(177, 0, 0)",lowProb,lowProb2,circular,uniform,1,undefined,0,0.052083333,1,1,94.125,1,10,18072,0,0,0,0,0,0,0,0,36,0,1,0.052083333,94.125,10,18072,35,35,35,11/21/2018 14:09,Default description,yes,<openexp._canvas.legacy.legacy object at 0x04284090>,<openexp._canvas.legacy.legacy object at 0x0428D830>,<openexp._canvas.legacy.legacy object at 0x042D2370>,<openexp._canvas.legacy.legacy object at 0x042949B0>,<openexp._canvas.legacy.legacy object at 0x042D1050>,<openexp._canvas.legacy.legacy object at 0x042771D0>,<openexp._canvas.legacy.legacy object at 0x0429F9F0>,<openexp._canvas.legacy.legacy object at 0x0428D8B0>,75,C:/Userdata/Michel/SpatProbMultiple3,no,mono,no,18,no,white,no,yes,0.09,98,1050,legacy,45,10,10,1,C:/Userdata/Michel/SpatProbMultiple3/beh/subject-8.csv,legacy,12,192,25,Jazzy James,3.1.9,yes,598477b2b83f69022949e7e9,47,green,circular,red,circular,0,\,993,space,7547,7547,"(80, 80, 80)","(0, 123, 0)","(177, 0, 0)","(155, 155, 155)",2,legacy,experiment,"[7, 0, 1, 2, 3, 4, 5, 6]",\,2500,3000,0,8,252.7587515,1024,2,48000,-16,main,"[(0, -252), (178, -178), (252, 0), (178, 178), (0, 252), (-178, 178), (-252, 0), (-178, -178)]",[],32,even,1,NA,240972,406932,406932,141403,140393,1884,159185,159185,1884,1884,148950,444044,1883,406932,443048,442221,442221,NA,817,study_X,0,7547,1,yes,1680
undefined,undefined,NA,NA,NA,7547,7547,black,no,legacy,legacy,legacy,0,green,"(0, 123, 0)",shape,present,highProb,rectangular,same,swap,swap,same,green,"(0, 123, 0)",highProbColor,highProbColor,circular,uniform,0,undefined,0,0.052083333,1,1,107.1458333,1,10,20572,0,0,0,0,0,0,0,0,37,0,1,0.052083333,107.1458333,10,20572,36,36,36,11/21/2018 14:09,Default description,yes,<openexp._canvas.legacy.legacy object at 0x04284090>,<openexp._canvas.legacy.legacy object at 0x0428D830>,<openexp._canvas.legacy.legacy object at 0x042D2370>,<openexp._canvas.legacy.legacy object at 0x042949B0>,<openexp._canvas.legacy.legacy object at 0x042D1050>,<openexp._canvas.legacy.legacy object at 0x042771D0>,<openexp._canvas.legacy.legacy object at 0x04294950>,<openexp._canvas.legacy.legacy object at 0x0428D8B0>,75,C:/Userdata/Michel/SpatProbMultiple3,no,mono,no,18,no,white,no,yes,0.09,98,1050,legacy,315,11,11,1,C:/Userdata/Michel/SpatProbMultiple3/beh/subject-8.csv,legacy,12,192,25,Jazzy James,3.1.9,yes,598477b2b83f69022949e7e9,47,green,rectangular,green,circular,0,None,2500,space,7547,7547,"(80, 80, 80)","(0, 123, 0)","(177, 0, 0)","(155, 155, 155)",2,legacy,experiment,"[7, 0, 1, 2, 3, 4, 5, 6]",/,2500,3000,0,8,252.7587515,1024,2,48000,-16,main,"[(0, -252), (178, -178), (252, 0), (178, 178), (0, 252), (-178, 178), (-252, 0), (-178, -178)]",[],32,even,7,NA,240972,406932,406932,141403,140393,1884,159185,159185,1884,1884,148950,447830,1883,406932,445327,444501,444501,NA,817,study_X,0,7547,1,yes,1680
undefined,undefined,NA,NA,NA,7547,7547,black,no,legacy,legacy,legacy,0,green,"(0, 123, 0)",shape,present,highProb,circular,same,swap,same,swap,green,"(0, 123, 0)",lowProb,lowProb3,rectangular,uniform,1,undefined,0,0.057291667,1,1,114.7291667,1,11,22028,0,0,0,0,0,0,0,0,38,0,1,0.057291667,114.7291667,11,22028,37,37,37,11/21/2018 14:09,Default description,yes,<openexp._canvas.legacy.legacy object at 0x04284090>,<openexp._canvas.legacy.legacy object at 0x0428D830>,<openexp._canvas.legacy.legacy object at 0x042D2370>,<openexp._canvas.legacy.legacy object at 0x042949B0>,<openexp._canvas.legacy.legacy object at 0x042D1050>,<openexp._canvas.legacy.legacy object at 0x042771D0>,<openexp._canvas.legacy.legacy object at 0x04282E30>,<openexp._canvas.legacy.legacy object at 0x0428D8B0>,75,C:/Userdata/Michel/SpatProbMultiple3,no,mono,no,18,no,white,no,yes,0.09,98,1050,legacy,45,12,12,1,C:/Userdata/Michel/SpatProbMultiple3/beh/subject-8.csv,legacy,12,192,25,Jazzy James,3.1.9,yes,598477b2b83f69022949e7e9,47,green,circular,green,rectangular,0,\,1456,space,7547,7547,"(80, 80, 80)","(0, 123, 0)","(177, 0, 0)","(155, 155, 155)",2,legacy,experiment,"[7, 0, 1, 2, 3, 4, 5, 6]",\,2500,3000,0,8,252.7587515,1024,2,48000,-16,main,"[(0, -252), (178, -178), (252, 0), (178, 178), (0, 252), (-178, 178), (-252, 0), (-178, -178)]",[],32,even,2,NA,240972,406932,406932,141403,140393,1884,159185,159185,1884,1884,148950,450556,1883,406932,449096,448269,448269,NA,817,study_X,0,7547,1,yes,1680
undefined,undefined,NA,NA,NA,7547,7547,black,no,legacy,legacy,legacy,0,green,"(0, 123, 0)",color,absent,lowProb5,circular,same,same,same,swap,green,"(0, 123, 0)",lowProb,lowProb1,circular,uniform,1,undefined,0,0.0625,1,1,125.8333333,1,12,24160,0,0,0,0,0,0,0,0,39,0,1,0.0625,125.8333333,12,24160,38,38,38,11/21/2018 14:09,Default description,yes,<openexp._canvas.legacy.legacy object at 0x04284090>,<openexp._canvas.legacy.legacy object at 0x0428D830>,<openexp._canvas.legacy.legacy object at 0x042D2370>,<openexp._canvas.legacy.legacy object at 0x042949B0>,<openexp._canvas.legacy.legacy object at 0x042D1050>,<openexp._canvas.legacy.legacy object at 0x042771D0>,<openexp._canvas.legacy.legacy object at 0x0429F6B0>,<openexp._canvas.legacy.legacy object at 0x0428D8B0>,75,C:/Userdata/Michel/SpatProbMultiple3,no,mono,no,18,no,white,no,yes,0.09,98,1050,legacy,315,13,13,1,C:/Userdata/Michel/SpatProbMultiple3/beh/subject-8.csv,legacy,12,192,25,Jazzy James,3.1.9,yes,598477b2b83f69022949e7e9,47,green,circular,green,circular,0,/,2132,space,7547,7547,"(80, 80, 80)","(0, 123, 0)","(177, 0, 0)","(155, 155, 155)",2,legacy,experiment,"[7, 0, 1, 2, 3, 4, 5, 6]",/,2500,3000,0,8,252.7587515,1024,2,48000,-16,main,"[(0, -252), (178, -178), (252, 0), (178, 178), (0, 252), (-178, 178), (-252, 0), (-178, -178)]",[],32,even,0,NA,240972,406932,406932,141403,140393,1884,159185,159185,1884,1884,148950,453948,1883,406932,451812,450986,450986,NA,817,study_X,0,7547,1,yes,1680
undefined,undefined,NA,NA,NA,7547,7547,black,no,legacy,legacy,legacy,0,red,"(177, 0, 0)",color,present,highProb,circular,swap,same,same,same,green,"(0, 123, 0)",lowProb,lowProb5,circular,uniform,1,undefined,0,0.067708333,1,1,135.6458333,1,13,26044,0,0,0,0,0,0,0,0,40,0,1,0.067708333,135.6458333,13,26044,39,39,39,11/21/2018 14:09,Default description,yes,<openexp._canvas.legacy.legacy object at 0x04284090>,<openexp._canvas.legacy.legacy object at 0x0428D830>,<openexp._canvas.legacy.legacy object at 0x042D2370>,<openexp._canvas.legacy.legacy object at 0x042949B0>,<openexp._canvas.legacy.legacy object at 0x042D1050>,<openexp._canvas.legacy.legacy object at 0x042771D0>,<openexp._canvas.legacy.legacy object at 0x04282B10>,<openexp._canvas.legacy.legacy object at 0x0428D8B0>,75,C:/Userdata/Michel/SpatProbMultiple3,no,mono,no,18,no,white,no,yes,0.09,98,1050,legacy,45,14,14,1,C:/Userdata/Michel/SpatProbMultiple3/beh/subject-8.csv,legacy,12,192,25,Jazzy James,3.1.9,yes,598477b2b83f69022949e7e9,47,red,circular,green,circular,0,\,1884,space,7547,7547,"(80, 80, 80)","(0, 123, 0)","(177, 0, 0)","(155, 155, 155)",2,legacy,experiment,"[7, 0, 1, 2, 3, 4, 5, 6]",\,2500,3000,0,8,252.7587515,1024,2,48000,-16,main,"[(0, -252), (178, -178), (252, 0), (178, 178), (0, 252), (-178, 178), (-252, 0), (-178, -178)]",[],32,even,5,NA,240972,406932,406932,141403,140393,1884,159185,159185,1884,1884,148950,457091,1883,406932,455204,454378,454378,NA,817,study_X,0,7547,1,yes,1680
undefined,undefined,NA,NA,NA,7547,7547,black,no,legacy,legacy,legacy,0,green,"(0, 123, 0)",shape,present,highProb,circular,swap,same,same,swap,green,"(0, 123, 0)",highProbColor,highProbColor,rectangular,uniform,0,undefined,0,0.067708333,1,1,148.6666667,1,13,28544,0,0,0,0,0,0,0,0,41,0,1,0.067708333,148.6666667,13,28544,40,40,40,11/21/2018 14:09,Default description,yes,<openexp._canvas.legacy.legacy object at 0x04284090>,<openexp._canvas.legacy.legacy object at 0x0428D830>,<openexp._canvas.legacy.legacy object at 0x042D2370>,<openexp._canvas.legacy.legacy object at 0x042949B0>,<openexp._canvas.legacy.legacy object at 0x042D1050>,<openexp._canvas.legacy.legacy object at 0x042771D0>,<openexp._canvas.legacy.legacy object at 0x0429C390>,<openexp._canvas.legacy.legacy object at 0x0428D8B0>,75,C:/Userdata/Michel/SpatProbMultiple3,no,mono,no,18,no,white,no,yes,0.09,98,1050,legacy,45,15,15,1,C:/Userdata/Michel/SpatProbMultiple3/beh/subject-8.csv,legacy,12,192,25,Jazzy James,3.1.9,yes,598477b2b83f69022949e7e9,47,green,circular,green,rectangular,0,None,2500,space,7547,7547,"(80, 80, 80)","(0, 123, 0)","(177, 0, 0)","(155, 155, 155)",2,legacy,experiment,"[7, 0, 1, 2, 3, 4, 5, 6]",\,2500,3000,0,8,252.7587515,1024,2,48000,-16,main,"[(0, -252), (178, -178), (252, 0), (178, 178), (0, 252), (-178, 178), (-252, 0), (-178, -178)]",[],32,even,7,NA,240972,406932,406932,141403,140393,1884,159185,159185,1884,1884,148950,460868,1883,406932,458366,457540,457540,NA,817,study_X,0,7547,1,yes,1680
undefined,undefined,NA,NA,NA,7547,7547,black,no,legacy,legacy,legacy,0,green,"(0, 123, 0)",color,absent,highProb,circular,same,same,same,swap,green,"(0, 123, 0)",lowProb,lowProb5,circular,uniform,1,undefined,0,0.072916667,1,1,156.7552083,1,14,30097,0,0,0,0,0,0,0,0,42,0,1,0.072916667,156.7552083,14,30097,41,41,41,11/21/2018 14:09,Default description,yes,<openexp._canvas.legacy.legacy object at 0x04284090>,<openexp._canvas.legacy.legacy object at 0x0428D830>,<openexp._canvas.legacy.legacy object at 0x042D2370>,<openexp._canvas.legacy.legacy object at 0x042949B0>,<openexp._canvas.legacy.legacy object at 0x042D1050>,<openexp._canvas.legacy.legacy object at 0x042771D0>,<openexp._canvas.legacy.legacy object at 0x0429F250>,<openexp._canvas.legacy.legacy object at 0x0428D8B0>,75,C:/Userdata/Michel/SpatProbMultiple3,no,mono,no,18,no,white,no,yes,0.09,98,1050,legacy,315,16,16,1,C:/Userdata/Michel/SpatProbMultiple3/beh/subject-8.csv,legacy,12,192,25,Jazzy James,3.1.9,yes,598477b2b83f69022949e7e9,47,green,circular,green,circular,0,/,1553,space,7547,7547,"(80, 80, 80)","(0, 123, 0)","(177, 0, 0)","(155, 155, 155)",2,legacy,experiment,"[7, 0, 1, 2, 3, 4, 5, 6]",/,2500,3000,0,8,252.7587515,1024,2,48000,-16,main,"[(0, -252), (178, -178), (252, 0), (178, 178), (0, 252), (-178, 178), (-252, 0), (-178, -178)]",[],32,even,5,NA,240972,406932,406932,141403,140393,1884,159185,159185,1884,1884,148950,463684,1883,406932,462128,461302,461302,NA,817,study_X,0,7547,1,yes,1680
undefined,undefined,NA,NA,NA,7547,7547,black,no,legacy,legacy,legacy,0,red,"(177, 0, 0)",color,present,lowProb4,circular,swap,same,same,same,green,"(0, 123, 0)",lowProb,lowProb5,circular,uniform,1,undefined,0,0.078125,1,1,165.0416667,1,15,31688,0,0,0,0,0,0,0,0,43,0,1,0.078125,165.0416667,15,31688,42,42,42,11/21/2018 14:09,Default description,yes,<openexp._canvas.legacy.legacy object at 0x04284090>,<openexp._canvas.legacy.legacy object at 0x0428D830>,<openexp._canvas.legacy.legacy object at 0x042D2370>,<openexp._canvas.legacy.legacy object at 0x042949B0>,<openexp._canvas.legacy.legacy object at 0x042D1050>,<openexp._canvas.legacy.legacy object at 0x042771D0>,<openexp._canvas.legacy.legacy object at 0x04284B70>,<openexp._canvas.legacy.legacy object at 0x0428D8B0>,75,C:/Userdata/Michel/SpatProbMultiple3,no,mono,no,18,no,white,no,yes,0.09,98,1050,legacy,45,17,17,1,C:/Userdata/Michel/SpatProbMultiple3/beh/subject-8.csv,legacy,12,192,25,Jazzy James,3.1.9,yes,598477b2b83f69022949e7e9,47,red,circular,green,circular,0,\,1591,space,7547,7547,"(80, 80, 80)","(0, 123, 0)","(177, 0, 0)","(155, 155, 155)",2,legacy,experiment,"[7, 0, 1, 2, 3, 4, 5, 6]",\,2500,3000,0,8,252.7587515,1024,2,48000,-16,main,"[(0, -252), (178, -178), (252, 0), (178, 178), (0, 252), (-178, 178), (-252, 0), (-178, -178)]",[],32,even,5,NA,240972,406932,406932,141403,140393,1884,159185,159185,1884,1884,148950,466580,1883,406932,464985,464159,464159,NA,817,study_X,0,7547,1,yes,1680
undefined,undefined,NA,NA,NA,7547,7547,black,no,legacy,legacy,legacy,0,green,"(0, 123, 0)",color,present,highProb,rectangular,swap,swap,swap,swap,red,"(177, 0, 0)",lowProb,lowProb5,rectangular,uniform,1,undefined,0,0.083333333,1,1,177.4375,1,16,34068,0,0,0,0,0,0,0,0,44,0,1,0.083333333,177.4375,16,34068,43,43,43,11/21/2018 14:09,Default description,yes,<openexp._canvas.legacy.legacy object at 0x04284090>,<openexp._canvas.legacy.legacy object at 0x0428D830>,<openexp._canvas.legacy.legacy object at 0x042D2370>,<openexp._canvas.legacy.legacy object at 0x042949B0>,<openexp._canvas.legacy.legacy object at 0x042D1050>,<openexp._canvas.legacy.legacy object at 0x042771D0>,<openexp._canvas.legacy.legacy object at 0x04283DF0>,<openexp._canvas.legacy.legacy object at 0x0428D8B0>,75,C:/Userdata/Michel/SpatProbMultiple3,no,mono,no,18,no,white,no,yes,0.09,98,1050,legacy,315,18,18,1,C:/Userdata/Michel/SpatProbMultiple3/beh/subject-8.csv,legacy,12,192,25,Jazzy James,3.1.9,yes,598477b2b83f69022949e7e9,47,green,rectangular,red,rectangular,0,/,2380,space,7547,7547,"(80, 80, 80)","(0, 123, 0)","(177, 0, 0)","(155, 155, 155)",2,legacy,experiment,"[7, 0, 1, 2, 3, 4, 5, 6]",/,2500,3000,0,8,252.7587515,1024,2,48000,-16,main,"[(0, -252), (178, -178), (252, 0), (178, 178), (0, 252), (-178, 178), (-252, 0), (-178, -178)]",[],32,even,5,NA,240972,406932,406932,141403,140393,1884,159185,159185,1884,1884,148950,470212,1883,406932,467828,467002,467002,NA,817,study_X,0,7547,1,yes,1680
undefined,undefined,NA,NA,NA,7547,7547,black,no,legacy,legacy,legacy,0,red,"(177, 0, 0)",shape,present,highProb,circular,swap,swap,same,same,red,"(177, 0, 0)",highProbColor,highProbColor,rectangular,uniform,1,undefined,0,0.088541667,1,1,188.1979167,1,17,36134,0,0,0,0,0,0,0,0,45,0,1,0.088541667,188.1979167,17,36134,44,44,44,11/21/2018 14:09,Default description,yes,<openexp._canvas.legacy.legacy object at 0x04284090>,<openexp._canvas.legacy.legacy object at 0x0428D830>,<openexp._canvas.legacy.legacy object at 0x042D2370>,<openexp._canvas.legacy.legacy object at 0x042949B0>,<openexp._canvas.legacy.legacy object at 0x042D1050>,<openexp._canvas.legacy.legacy object at 0x042771D0>,<openexp._canvas.legacy.legacy object at 0x0429EDB0>,<openexp._canvas.legacy.legacy object at 0x0428D8B0>,75,C:/Userdata/Michel/SpatProbMultiple3,no,mono,no,18,no,white,no,yes,0.09,98,1050,legacy,45,19,19,1,C:/Userdata/Michel/SpatProbMultiple3/beh/subject-8.csv,legacy,12,192,25,Jazzy James,3.1.9,yes,598477b2b83f69022949e7e9,47,red,circular,red,rectangular,0,\,2066,space,7547,7547,"(80, 80, 80)","(0, 123, 0)","(177, 0, 0)","(155, 155, 155)",2,legacy,experiment,"[7, 0, 1, 2, 3, 4, 5, 6]",\,2500,3000,0,8,252.7587515,1024,2,48000,-16,main,"[(0, -252), (178, -178), (252, 0), (178, 178), (0, 252), (-178, 178), (-252, 0), (-178, -178)]",[],32,even,7,NA,240972,406932,406932,141403,140393,1884,159185,159185,1884,1884,148950,473531,1883,406932,471462,470636,470636,NA,817,study_X,0,7547,1,yes,1680
undefined,undefined,NA,NA,NA,7547,7547,black,no,legacy,legacy,legacy,0,green,"(0, 123, 0)",shape,present,highProb,circular,swap,same,swap,same,green,"(0, 123, 0)",lowProb,lowProb4,rectangular,uniform,0,undefined,0,0.088541667,1,1,201.21875,1,17,38634,0,0,0,0,0,0,0,0,46,0,1,0.088541667,201.21875,17,38634,45,45,45,11/21/2018 14:09,Default description,yes,<openexp._canvas.legacy.legacy object at 0x04284090>,<openexp._canvas.legacy.legacy object at 0x0428D830>,<openexp._canvas.legacy.legacy object at 0x042D2370>,<openexp._canvas.legacy.legacy object at 0x042949B0>,<openexp._canvas.legacy.legacy object at 0x042D1050>,<openexp._canvas.legacy.legacy object at 0x042771D0>,<openexp._canvas.legacy.legacy object at 0x0429CE30>,<openexp._canvas.legacy.legacy object at 0x0428D8B0>,75,C:/Userdata/Michel/SpatProbMultiple3,no,mono,no,18,no,white,no,yes,0.09,98,1050,legacy,45,20,20,1,C:/Userdata/Michel/SpatProbMultiple3/beh/subject-8.csv,legacy,12,192,25,Jazzy James,3.1.9,yes,598477b2b83f69022949e7e9,47,green,circular,green,rectangular,0,None,2500,space,7547,7547,"(80, 80, 80)","(0, 123, 0)","(177, 0, 0)","(155, 155, 155)",2,legacy,experiment,"[7, 0, 1, 2, 3, 4, 5, 6]",\,2500,3000,0,8,252.7587515,1024,2,48000,-16,main,"[(0, -252), (178, -178), (252, 0), (178, 178), (0, 252), (-178, 178), (-252, 0), (-178, -178)]",[],32,even,4,NA,240972,406932,406932,141403,140393,1884,159185,159185,1884,1884,148950,477310,1883,406932,474807,473981,473981,NA,817,study_X,0,7547,1,yes,1680
undefined,undefined,NA,NA,NA,7547,7547,black,no,legacy,legacy,legacy,0,green,"(0, 123, 0)",color,present,highProb,circular,same,same,swap,swap,red,"(177, 0, 0)",lowProb,lowProb3,circular,uniform,1,undefined,0,0.09375,1,1,208.125,1,18,39960,0,0,0,0,0,0,0,0,47,0,1,0.09375,208.125,18,39960,46,46,46,11/21/2018 14:09,Default description,yes,<openexp._canvas.legacy.legacy object at 0x04284090>,<openexp._canvas.legacy.legacy object at 0x0428D830>,<openexp._canvas.legacy.legacy object at 0x042D2370>,<openexp._canvas.legacy.legacy object at 0x042949B0>,<openexp._canvas.legacy.legacy object at 0x042D1050>,<openexp._canvas.legacy.legacy object at 0x042771D0>,<openexp._canvas.legacy.legacy object at 0x0429CA70>,<openexp._canvas.legacy.legacy object at 0x0428D8B0>,75,C:/Userdata/Michel/SpatProbMultiple3,no,mono,no,18,no,white,no,yes,0.09,98,1050,legacy,45,21,21,1,C:/Userdata/Michel/SpatProbMultiple3/beh/subject-8.csv,legacy,12,192,25,Jazzy James,3.1.9,yes,598477b2b83f69022949e7e9,47,green,circular,red,circular,0,\,1326,space,7547,7547,"(80, 80, 80)","(0, 123, 0)","(177, 0, 0)","(155, 155, 155)",2,legacy,experiment,"[7, 0, 1, 2, 3, 4, 5, 6]",\,2500,3000,0,8,252.7587515,1024,2,48000,-16,main,"[(0, -252), (178, -178), (252, 0), (178, 178), (0, 252), (-178, 178), (-252, 0), (-178, -178)]",[],32,even,2,NA,240972,406932,406932,141403,140393,1884,159185,159185,1884,1884,148950,479908,1883,406932,478580,477753,477753,NA,817,study_X,0,7547,1,yes,1680
undefined,undefined,NA,NA,NA,7547,7547,black,no,legacy,legacy,legacy,0,red,"(177, 0, 0)",color,present,highProb,rectangular,swap,swap,swap,swap,green,"(0, 123, 0)",lowProb,lowProb1,rectangular,uniform,1,undefined,0,0.098958333,1,1,217,1,19,41664,0,0,0,0,0,0,0,0,48,0,1,0.098958333,217,19,41664,47,47,47,11/21/2018 14:09,Default description,yes,<openexp._canvas.legacy.legacy object at 0x04284090>,<openexp._canvas.legacy.legacy object at 0x0428D830>,<openexp._canvas.legacy.legacy object at 0x042D2370>,<openexp._canvas.legacy.legacy object at 0x042949B0>,<openexp._canvas.legacy.legacy object at 0x042D1050>,<openexp._canvas.legacy.legacy object at 0x042771D0>,<openexp._canvas.legacy.legacy object at 0x0429F1B0>,<openexp._canvas.legacy.legacy object at 0x0428D8B0>,75,C:/Userdata/Michel/SpatProbMultiple3,no,mono,no,18,no,white,no,yes,0.09,98,1050,legacy,45,22,22,1,C:/Userdata/Michel/SpatProbMultiple3/beh/subject-8.csv,legacy,12,192,25,Jazzy James,3.1.9,yes,598477b2b83f69022949e7e9,47,red,rectangular,green,rectangular,0,\,1704,space,7547,7547,"(80, 80, 80)","(0, 123, 0)","(177, 0, 0)","(155, 155, 155)",2,legacy,experiment,"[7, 0, 1, 2, 3, 4, 5, 6]",\,2500,3000,0,8,252.7587515,1024,2,48000,-16,main,"[(0, -252), (178, -178), (252, 0), (178, 178), (0, 252), (-178, 178), (-252, 0), (-178, -178)]",[],32,even,0,NA,240972,406932,406932,141403,140393,1884,159185,159185,1884,1884,148950,482876,1883,406932,481168,480342,480342,NA,817,study_X,0,7547,1,yes,1680
undefined,undefined,NA,NA,NA,7547,7547,black,no,legacy,legacy,legacy,0,red,"(177, 0, 0)",shape,present,lowProb3,rectangular,same,same,swap,swap,red,"(177, 0, 0)",lowProb,lowProb1,circular,uniform,1,undefined,0,0.104166667,1,1,222.2083333,1,20,42664,0,0,0,0,0,0,0,0,49,0,1,0.104166667,222.2083333,20,42664,48,48,48,11/21/2018 14:09,Default description,yes,<openexp._canvas.legacy.legacy object at 0x04284090>,<openexp._canvas.legacy.legacy object at 0x0428D830>,<openexp._canvas.legacy.legacy object at 0x042D2370>,<openexp._canvas.legacy.legacy object at 0x042949B0>,<openexp._canvas.legacy.legacy object at 0x042D1050>,<openexp._canvas.legacy.legacy object at 0x042771D0>,<openexp._canvas.legacy.legacy object at 0x0429F6F0>,<openexp._canvas.legacy.legacy object at 0x0428D8B0>,75,C:/Userdata/Michel/SpatProbMultiple3,no,mono,no,18,no,white,no,yes,0.09,98,1050,legacy,45,23,23,1,C:/Userdata/Michel/SpatProbMultiple3/beh/subject-8.csv,legacy,12,192,25,Jazzy James,3.1.9,yes,598477b2b83f69022949e7e9,47,red,rectangular,red,circular,0,\,1000,space,7547,7547,"(80, 80, 80)","(0, 123, 0)","(177, 0, 0)","(155, 155, 155)",2,legacy,experiment,"[7, 0, 1, 2, 3, 4, 5, 6]",\,2500,3000,0,8,252.7587515,1024,2,48000,-16,main,"[(0, -252), (178, -178), (252, 0), (178, 178), (0, 252), (-178, 178), (-252, 0), (-178, -178)]",[],32,even,0,NA,240972,406932,406932,141403,140393,1884,159185,159185,1884,1884,148950,485148,1883,406932,484144,483318,483318,NA,817,study_X,0,7547,1,yes,1680
undefined,undefined,NA,NA,NA,7547,7547,black,no,legacy,legacy,legacy,0,green,"(0, 123, 0)",shape,present,highProb,circular,swap,swap,swap,swap,green,"(0, 123, 0)",lowProb,lowProb4,rectangular,uniform,1,undefined,0,0.109375,1,1,229,1,21,43968,0,0,0,0,0,0,0,0,50,0,1,0.109375,229,21,43968,49,49,49,11/21/2018 14:09,Default description,yes,<openexp._canvas.legacy.legacy object at 0x04284090>,<openexp._canvas.legacy.legacy object at 0x0428D830>,<openexp._canvas.legacy.legacy object at 0x042D2370>,<openexp._canvas.legacy.legacy object at 0x042949B0>,<openexp._canvas.legacy.legacy object at 0x042D1050>,<openexp._canvas.legacy.legacy object at 0x042771D0>,<openexp._canvas.legacy.legacy object at 0x0429FED0>,<openexp._canvas.legacy.legacy object at 0x0428D8B0>,75,C:/Userdata/Michel/SpatProbMultiple3,no,mono,no,18,no,white,no,yes,0.09,98,1050,legacy,315,24,24,1,C:/Userdata/Michel/SpatProbMultiple3/beh/subject-8.csv,legacy,12,192,25,Jazzy James,3.1.9,yes,598477b2b83f69022949e7e9,47,green,circular,green,rectangular,0,/,1304,space,7547,7547,"(80, 80, 80)","(0, 123, 0)","(177, 0, 0)","(155, 155, 155)",2,legacy,experiment,"[7, 0, 1, 2, 3, 4, 5, 6]",/,2500,3000,0,8,252.7587515,1024,2,48000,-16,main,"[(0, -252), (178, -178), (252, 0), (178, 178), (0, 252), (-178, 178), (-252, 0), (-178, -178)]",[],32,even,4,NA,240972,406932,406932,141403,140393,1884,159185,159185,1884,1884,148950,487707,1883,406932,486401,485574,485575,NA,817,study_X,0,7547,1,yes,1680
undefined,undefined,NA,NA,NA,7547,7547,black,no,legacy,legacy,legacy,0,red,"(177, 0, 0)",color,present,highProb,rectangular,swap,swap,same,same,green,"(0, 123, 0)",lowProb,lowProb3,rectangular,uniform,1,undefined,0,0.114583333,1,1,239.5260417,1,22,45989,0,0,0,0,0,0,0,0,51,0,1,0.114583333,239.5260417,22,45989,50,50,50,11/21/2018 14:09,Default description,yes,<openexp._canvas.legacy.legacy object at 0x04284090>,<openexp._canvas.legacy.legacy object at 0x0428D830>,<openexp._canvas.legacy.legacy object at 0x042D2370>,<openexp._canvas.legacy.legacy object at 0x042949B0>,<openexp._canvas.legacy.legacy object at 0x042D1050>,<openexp._canvas.legacy.legacy object at 0x042771D0>,<openexp._canvas.legacy.legacy object at 0x04282F50>,<openexp._canvas.legacy.legacy object at 0x0428D8B0>,75,C:/Userdata/Michel/SpatProbMultiple3,no,mono,no,18,no,white,no,yes,0.09,98,1050,legacy,315,25,25,1,C:/Userdata/Michel/SpatProbMultiple3/beh/subject-8.csv,legacy,12,192,25,Jazzy James,3.1.9,yes,598477b2b83f69022949e7e9,47,red,rectangular,green,rectangular,0,/,2021,space,7547,7547,"(80, 80, 80)","(0, 123, 0)","(177, 0, 0)","(155, 155, 155)",2,legacy,experiment,"[7, 0, 1, 2, 3, 4, 5, 6]",/,2500,3000,0,8,252.7587515,1024,2,48000,-16,main,"[(0, -252), (178, -178), (252, 0), (178, 178), (0, 252), (-178, 178), (-252, 0), (-178, -178)]",[],32,even,2,NA,240972,406932,406932,141403,140393,1884,159185,159185,1884,1884,148950,490995,1883,406932,488971,488144,488145,NA,817,study_X,0,7547,1,yes,1680
undefined,undefined,NA,NA,NA,7547,7547,black,no,legacy,legacy,legacy,0,green,"(0, 123, 0)",color,present,lowProb6,rectangular,swap,same,swap,same,red,"(177, 0, 0)",lowProb,lowProb3,rectangular,uniform,1,undefined,0,0.119791667,1,1,244.1875,1,23,46884,0,0,0,0,0,0,0,0,52,0,1,0.119791667,244.1875,23,46884,51,51,51,11/21/2018 14:09,Default description,yes,<openexp._canvas.legacy.legacy object at 0x04284090>,<openexp._canvas.legacy.legacy object at 0x0428D830>,<openexp._canvas.legacy.legacy object at 0x042D2370>,<openexp._canvas.legacy.legacy object at 0x042949B0>,<openexp._canvas.legacy.legacy object at 0x042D1050>,<openexp._canvas.legacy.legacy object at 0x042771D0>,<openexp._canvas.legacy.legacy object at 0x04282BB0>,<openexp._canvas.legacy.legacy object at 0x0428D8B0>,75,C:/Userdata/Michel/SpatProbMultiple3,no,mono,no,18,no,white,no,yes,0.09,98,1050,legacy,45,26,26,1,C:/Userdata/Michel/SpatProbMultiple3/beh/subject-8.csv,legacy,12,192,25,Jazzy James,3.1.9,yes,598477b2b83f69022949e7e9,47,green,rectangular,red,rectangular,0,\,895,space,7547,7547,"(80, 80, 80)","(0, 123, 0)","(177, 0, 0)","(155, 155, 155)",2,legacy,experiment,"[7, 0, 1, 2, 3, 4, 5, 6]",\,2500,3000,0,8,252.7587515,1024,2,48000,-16,main,"[(0, -252), (178, -178), (252, 0), (178, 178), (0, 252), (-178, 178), (-252, 0), (-178, -178)]",[],32,even,2,NA,240972,406932,406932,141403,140393,1884,159185,159185,1884,1884,148950,493140,1883,406932,492242,491416,491416,NA,817,study_X,0,7547,1,yes,1680
undefined,undefined,NA,NA,NA,7547,7547,black,no,legacy,legacy,legacy,0,red,"(177, 0, 0)",shape,present,highProb,circular,swap,swap,same,same,red,"(177, 0, 0)",lowProb,lowProb2,rectangular,uniform,1,undefined,0,0.125,1,1,248.7864583,1,24,47767,0,0,0,0,0,0,0,0,53,0,1,0.125,248.7864583,24,47767,52,52,52,11/21/2018 14:09,Default description,yes,<openexp._canvas.legacy.legacy object at 0x04284090>,<openexp._canvas.legacy.legacy object at 0x0428D830>,<openexp._canvas.legacy.legacy object at 0x042D2370>,<openexp._canvas.legacy.legacy object at 0x042949B0>,<openexp._canvas.legacy.legacy object at 0x042D1050>,<openexp._canvas.legacy.legacy object at 0x042771D0>,<openexp._canvas.legacy.legacy object at 0x0429CE30>,<openexp._canvas.legacy.legacy object at 0x0428D8B0>,75,C:/Userdata/Michel/SpatProbMultiple3,no,mono,no,18,no,white,no,yes,0.09,98,1050,legacy,315,27,27,1,C:/Userdata/Michel/SpatProbMultiple3/beh/subject-8.csv,legacy,12,192,25,Jazzy James,3.1.9,yes,598477b2b83f69022949e7e9,47,red,circular,red,rectangular,0,/,883,space,7547,7547,"(80, 80, 80)","(0, 123, 0)","(177, 0, 0)","(155, 155, 155)",2,legacy,experiment,"[7, 0, 1, 2, 3, 4, 5, 6]",/,2500,3000,0,8,252.7587515,1024,2,48000,-16,main,"[(0, -252), (178, -178), (252, 0), (178, 178), (0, 252), (-178, 178), (-252, 0), (-178, -178)]",[],32,even,1,NA,240972,406932,406932,141403,140393,1884,159185,159185,1884,1884,148950,495284,1883,406932,494398,493572,493572,NA,817,study_X,0,7547,1,yes,1680
undefined,undefined,NA,NA,NA,7547,7547,black,no,legacy,legacy,legacy,0,green,"(0, 123, 0)",color,present,lowProb5,rectangular,swap,swap,same,same,red,"(177, 0, 0)",lowProb,lowProb3,rectangular,uniform,1,undefined,0,0.130208333,1,1,255.265625,1,25,49011,0,0,0,0,0,0,0,0,54,0,1,0.130208333,255.265625,25,49011,53,53,53,11/21/2018 14:09,Default description,yes,<openexp._canvas.legacy.legacy object at 0x04284090>,<openexp._canvas.legacy.legacy object at 0x0428D830>,<openexp._canvas.legacy.legacy object at 0x042D2370>,<openexp._canvas.legacy.legacy object at 0x042949B0>,<openexp._canvas.legacy.legacy object at 0x042D1050>,<openexp._canvas.legacy.legacy object at 0x042771D0>,<openexp._canvas.legacy.legacy object at 0x0429E210>,<openexp._canvas.legacy.legacy object at 0x0428D8B0>,75,C:/Userdata/Michel/SpatProbMultiple3,no,mono,no,18,no,white,no,yes,0.09,98,1050,legacy,45,28,28,1,C:/Userdata/Michel/SpatProbMultiple3/beh/subject-8.csv,legacy,12,192,25,Jazzy James,3.1.9,yes,598477b2b83f69022949e7e9,47,green,rectangular,red,rectangular,0,\,1244,space,7547,7547,"(80, 80, 80)","(0, 123, 0)","(177, 0, 0)","(155, 155, 155)",2,legacy,experiment,"[7, 0, 1, 2, 3, 4, 5, 6]",\,2500,3000,0,8,252.7587515,1024,2,48000,-16,main,"[(0, -252), (178, -178), (252, 0), (178, 178), (0, 252), (-178, 178), (-252, 0), (-178, -178)]",[],32,even,2,NA,240972,406932,406932,141403,140393,1884,159185,159185,1884,1884,148950,497780,1883,406932,496532,495706,495706,NA,817,study_X,0,7547,1,yes,1680
undefined,undefined,NA,NA,NA,7547,7547,black,no,legacy,legacy,legacy,0,red,"(177, 0, 0)",shape,present,lowProb2,rectangular,swap,same,same,swap,red,"(177, 0, 0)",highProbShape,highProbShape,circular,uniform,1,undefined,0,0.135416667,1,1,267.4479167,1,26,51350,0,0,0,0,0,0,0,0,55,0,1,0.135416667,267.4479167,26,51350,54,54,54,11/21/2018 14:09,Default description,yes,<openexp._canvas.legacy.legacy object at 0x04284090>,<openexp._canvas.legacy.legacy object at 0x0428D830>,<openexp._canvas.legacy.legacy object at 0x042D2370>,<openexp._canvas.legacy.legacy object at 0x042949B0>,<openexp._canvas.legacy.legacy object at 0x042D1050>,<openexp._canvas.legacy.legacy object at 0x042771D0>,<openexp._canvas.legacy.legacy object at 0x0429CCD0>,<openexp._canvas.legacy.legacy object at 0x0428D8B0>,75,C:/Userdata/Michel/SpatProbMultiple3,no,mono,no,18,no,white,no,yes,0.09,98,1050,legacy,315,29,29,1,C:/Userdata/Michel/SpatProbMultiple3/beh/subject-8.csv,legacy,12,192,25,Jazzy James,3.1.9,yes,598477b2b83f69022949e7e9,47,red,rectangular,red,circular,0,/,2339,space,7547,7547,"(80, 80, 80)","(0, 123, 0)","(177, 0, 0)","(155, 155, 155)",2,legacy,experiment,"[7, 0, 1, 2, 3, 4, 5, 6]",/,2500,3000,0,8,252.7587515,1024,2,48000,-16,main,"[(0, -252), (178, -178), (252, 0), (178, 178), (0, 252), (-178, 178), (-252, 0), (-178, -178)]",[],32,even,3,NA,240972,406932,406932,141403,140393,1884,159185,159185,1884,1884,148950,501420,1883,406932,499077,498251,498251,NA,817,study_X,0,7547,1,yes,1680
undefined,undefined,NA,NA,NA,7547,7547,black,no,legacy,legacy,legacy,0,green,"(0, 123, 0)",shape,absent,highProb,circular,swap,swap,swap,same,green,"(0, 123, 0)",highProbShape,highProbShape,circular,uniform,1,undefined,0,0.140625,1,1,271.0052083,1,27,52033,0,0,0,0,0,0,0,0,56,0,1,0.140625,271.0052083,27,52033,55,55,55,11/21/2018 14:09,Default description,yes,<openexp._canvas.legacy.legacy object at 0x04284090>,<openexp._canvas.legacy.legacy object at 0x0428D830>,<openexp._canvas.legacy.legacy object at 0x042D2370>,<openexp._canvas.legacy.legacy object at 0x042949B0>,<openexp._canvas.legacy.legacy object at 0x042D1050>,<openexp._canvas.legacy.legacy object at 0x042771D0>,<openexp._canvas.legacy.legacy object at 0x0429FCB0>,<openexp._canvas.legacy.legacy object at 0x0428D8B0>,75,C:/Userdata/Michel/SpatProbMultiple3,no,mono,no,18,no,white,no,yes,0.09,98,1050,legacy,45,30,30,1,C:/Userdata/Michel/SpatProbMultiple3/beh/subject-8.csv,legacy,12,192,25,Jazzy James,3.1.9,yes,598477b2b83f69022949e7e9,47,green,circular,green,circular,0,\,683,space,7547,7547,"(80, 80, 80)","(0, 123, 0)","(177, 0, 0)","(155, 155, 155)",2,legacy,experiment,"[7, 0, 1, 2, 3, 4, 5, 6]",\,2500,3000,0,8,252.7587515,1024,2,48000,-16,main,"[(0, -252), (178, -178), (252, 0), (178, 178), (0, 252), (-178, 178), (-252, 0), (-178, -178)]",[],32,even,3,NA,240972,406932,406932,141403,140393,1884,159185,159185,1884,1884,148950,503363,1883,406932,502677,501851,501851,NA,817,study_X,0,7547,1,yes,1680
undefined,undefined,NA,NA,NA,7547,7547,black,no,legacy,legacy,legacy,0,green,"(0, 123, 0)",shape,present,lowProb5,circular,same,same,same,swap,green,"(0, 123, 0)",lowProb,lowProb1,rectangular,uniform,1,undefined,0,0.145833333,1,1,280.9583333,1,28,53944,0,0,0,0,0,0,0,0,57,0,1,0.145833333,280.9583333,28,53944,56,56,56,11/21/2018 14:09,Default description,yes,<openexp._canvas.legacy.legacy object at 0x04284090>,<openexp._canvas.legacy.legacy object at 0x0428D830>,<openexp._canvas.legacy.legacy object at 0x042D2370>,<openexp._canvas.legacy.legacy object at 0x042949B0>,<openexp._canvas.legacy.legacy object at 0x042D1050>,<openexp._canvas.legacy.legacy object at 0x042771D0>,<openexp._canvas.legacy.legacy object at 0x0429FED0>,<openexp._canvas.legacy.legacy object at 0x0428D8B0>,75,C:/Userdata/Michel/SpatProbMultiple3,no,mono,no,18,no,white,no,yes,0.09,98,1050,legacy,45,31,31,1,C:/Userdata/Michel/SpatProbMultiple3/beh/subject-8.csv,legacy,12,192,25,Jazzy James,3.1.9,yes,598477b2b83f69022949e7e9,47,green,circular,green,rectangular,0,\,1911,space,7547,7547,"(80, 80, 80)","(0, 123, 0)","(177, 0, 0)","(155, 155, 155)",2,legacy,experiment,"[7, 0, 1, 2, 3, 4, 5, 6]",\,2500,3000,0,8,252.7587515,1024,2,48000,-16,main,"[(0, -252), (178, -178), (252, 0), (178, 178), (0, 252), (-178, 178), (-252, 0), (-178, -178)]",[],32,even,0,NA,240972,406932,406932,141403,140393,1884,159185,159185,1884,1884,148950,506531,1883,406932,504617,503791,503791,NA,817,study_X,0,7547,1,yes,1680
undefined,undefined,NA,NA,NA,7547,7547,black,no,legacy,legacy,legacy,0,green,"(0, 123, 0)",color,present,highProb,circular,same,same,swap,swap,red,"(177, 0, 0)",lowProb,lowProb6,circular,uniform,1,undefined,0,0.151041667,1,1,293.4114583,1,29,56335,0,0,0,0,0,0,0,0,58,0,1,0.151041667,293.4114583,29,56335,57,57,57,11/21/2018 14:09,Default description,yes,<openexp._canvas.legacy.legacy object at 0x04284090>,<openexp._canvas.legacy.legacy object at 0x0428D830>,<openexp._canvas.legacy.legacy object at 0x042D2370>,<openexp._canvas.legacy.legacy object at 0x042949B0>,<openexp._canvas.legacy.legacy object at 0x042D1050>,<openexp._canvas.legacy.legacy object at 0x042771D0>,<openexp._canvas.legacy.legacy object at 0x0429F6B0>,<openexp._canvas.legacy.legacy object at 0x0428D8B0>,75,C:/Userdata/Michel/SpatProbMultiple3,no,mono,no,18,no,white,no,yes,0.09,98,1050,legacy,315,32,32,1,C:/Userdata/Michel/SpatProbMultiple3/beh/subject-8.csv,legacy,12,192,25,Jazzy James,3.1.9,yes,598477b2b83f69022949e7e9,47,green,circular,red,circular,0,/,2391,space,7547,7547,"(80, 80, 80)","(0, 123, 0)","(177, 0, 0)","(155, 155, 155)",2,legacy,experiment,"[7, 0, 1, 2, 3, 4, 5, 6]",/,2500,3000,0,8,252.7587515,1024,2,48000,-16,main,"[(0, -252), (178, -178), (252, 0), (178, 178), (0, 252), (-178, 178), (-252, 0), (-178, -178)]",[],32,even,6,NA,240972,406932,406932,141403,140393,1884,159185,159185,1884,1884,148950,510187,1883,406932,507793,506967,506967,NA,817,study_X,0,7547,1,yes,1680
undefined,undefined,NA,NA,NA,7547,7547,black,no,legacy,legacy,legacy,0,red,"(177, 0, 0)",color,present,highProb,circular,swap,same,swap,same,green,"(0, 123, 0)",lowProb,lowProb5,circular,uniform,1,undefined,0,0.15625,1,1,299.734375,1,30,57549,0,0,0,0,0,0,0,0,59,0,1,0.15625,299.734375,30,57549,58,58,58,11/21/2018 14:09,Default description,yes,<openexp._canvas.legacy.legacy object at 0x04284090>,<openexp._canvas.legacy.legacy object at 0x0428D830>,<openexp._canvas.legacy.legacy object at 0x042D2370>,<openexp._canvas.legacy.legacy object at 0x042949B0>,<openexp._canvas.legacy.legacy object at 0x042D1050>,<openexp._canvas.legacy.legacy object at 0x042771D0>,<openexp._canvas.legacy.legacy object at 0x045F00D0>,<openexp._canvas.legacy.legacy object at 0x0428D8B0>,75,C:/Userdata/Michel/SpatProbMultiple3,no,mono,no,18,no,white,no,yes,0.09,98,1050,legacy,45,33,33,1,C:/Userdata/Michel/SpatProbMultiple3/beh/subject-8.csv,legacy,12,192,25,Jazzy James,3.1.9,yes,598477b2b83f69022949e7e9,47,red,circular,green,circular,0,\,1214,space,7547,7547,"(80, 80, 80)","(0, 123, 0)","(177, 0, 0)","(155, 155, 155)",2,legacy,experiment,"[7, 0, 1, 2, 3, 4, 5, 6]",\,2500,3000,0,8,252.7587515,1024,2,48000,-16,main,"[(0, -252), (178, -178), (252, 0), (178, 178), (0, 252), (-178, 178), (-252, 0), (-178, -178)]",[],32,even,5,NA,240972,406932,406932,141403,140393,1884,159185,159185,1884,1884,148950,512676,1883,406932,511459,510633,510633,NA,817,study_X,0,7547,1,yes,1680
undefined,undefined,NA,NA,NA,7547,7547,black,no,legacy,legacy,legacy,0,green,"(0, 123, 0)",shape,present,highProb,rectangular,swap,swap,same,same,green,"(0, 123, 0)",lowProb,lowProb3,circular,uniform,1,undefined,0,0.161458333,1,1,306.9791667,1,31,58940,0,0,0,0,0,0,0,0,60,0,1,0.161458333,306.9791667,31,58940,59,59,59,11/21/2018 14:09,Default description,yes,<openexp._canvas.legacy.legacy object at 0x04284090>,<openexp._canvas.legacy.legacy object at 0x0428D830>,<openexp._canvas.legacy.legacy object at 0x042D2370>,<openexp._canvas.legacy.legacy object at 0x042949B0>,<openexp._canvas.legacy.legacy object at 0x042D1050>,<openexp._canvas.legacy.legacy object at 0x042771D0>,<openexp._canvas.legacy.legacy object at 0x0429C070>,<openexp._canvas.legacy.legacy object at 0x0428D8B0>,75,C:/Userdata/Michel/SpatProbMultiple3,no,mono,no,18,no,white,no,yes,0.09,98,1050,legacy,315,34,34,1,C:/Userdata/Michel/SpatProbMultiple3/beh/subject-8.csv,legacy,12,192,25,Jazzy James,3.1.9,yes,598477b2b83f69022949e7e9,47,green,rectangular,green,circular,0,/,1391,space,7547,7547,"(80, 80, 80)","(0, 123, 0)","(177, 0, 0)","(155, 155, 155)",2,legacy,experiment,"[7, 0, 1, 2, 3, 4, 5, 6]",/,2500,3000,0,8,252.7587515,1024,2,48000,-16,main,"[(0, -252), (178, -178), (252, 0), (178, 178), (0, 252), (-178, 178), (-252, 0), (-178, -178)]",[],32,even,2,NA,240972,406932,406932,141403,140393,1884,159185,159185,1884,1884,148950,515332,1883,406932,513937,513110,513110,NA,817,study_X,0,7547,1,yes,1680
undefined,undefined,NA,NA,NA,7547,7547,black,no,legacy,legacy,legacy,0,red,"(177, 0, 0)",color,present,lowProb3,circular,swap,swap,same,same,green,"(0, 123, 0)",lowProb,lowProb2,circular,uniform,1,undefined,0,0.166666667,1,1,314.46875,1,32,60378,0,0,0,0,0,0,0,0,61,0,1,0.166666667,314.46875,32,60378,60,60,60,11/21/2018 14:09,Default description,yes,<openexp._canvas.legacy.legacy object at 0x04284090>,<openexp._canvas.legacy.legacy object at 0x0428D830>,<openexp._canvas.legacy.legacy object at 0x042D2370>,<openexp._canvas.legacy.legacy object at 0x042949B0>,<openexp._canvas.legacy.legacy object at 0x042D1050>,<openexp._canvas.legacy.legacy object at 0x042771D0>,<openexp._canvas.legacy.legacy object at 0x042A2FD0>,<openexp._canvas.legacy.legacy object at 0x0428D8B0>,75,C:/Userdata/Michel/SpatProbMultiple3,no,mono,no,18,no,white,no,yes,0.09,98,1050,legacy,315,35,35,1,C:/Userdata/Michel/SpatProbMultiple3/beh/subject-8.csv,legacy,12,192,25,Jazzy James,3.1.9,yes,598477b2b83f69022949e7e9,47,red,circular,green,circular,0,/,1438,space,7547,7547,"(80, 80, 80)","(0, 123, 0)","(177, 0, 0)","(155, 155, 155)",2,legacy,experiment,"[7, 0, 1, 2, 3, 4, 5, 6]",/,2500,3000,0,8,252.7587515,1024,2,48000,-16,main,"[(0, -252), (178, -178), (252, 0), (178, 178), (0, 252), (-178, 178), (-252, 0), (-178, -178)]",[],32,even,1,NA,240972,406932,406932,141403,140393,1884,159185,159185,1884,1884,148950,518035,1883,406932,516594,515768,515768,NA,817,study_X,0,7547,1,yes,1680
undefined,undefined,NA,NA,NA,7547,7547,black,no,legacy,legacy,legacy,0,green,"(0, 123, 0)",color,absent,lowProb5,circular,swap,same,same,same,green,"(0, 123, 0)",lowProb,lowProb3,circular,uniform,0,undefined,0,0.166666667,1,1,327.4895833,1,32,62878,0,0,0,0,0,0,0,0,62,0,1,0.166666667,327.4895833,32,62878,61,61,61,11/21/2018 14:09,Default description,yes,<openexp._canvas.legacy.legacy object at 0x04284090>,<openexp._canvas.legacy.legacy object at 0x0428D830>,<openexp._canvas.legacy.legacy object at 0x042D2370>,<openexp._canvas.legacy.legacy object at 0x042949B0>,<openexp._canvas.legacy.legacy object at 0x042D1050>,<openexp._canvas.legacy.legacy object at 0x042771D0>,<openexp._canvas.legacy.legacy object at 0x04283BD0>,<openexp._canvas.legacy.legacy object at 0x0428D8B0>,75,C:/Userdata/Michel/SpatProbMultiple3,no,mono,no,18,no,white,no,yes,0.09,98,1050,legacy,45,36,36,1,C:/Userdata/Michel/SpatProbMultiple3/beh/subject-8.csv,legacy,12,192,25,Jazzy James,3.1.9,yes,598477b2b83f69022949e7e9,47,green,circular,green,circular,0,None,2500,space,7547,7547,"(80, 80, 80)","(0, 123, 0)","(177, 0, 0)","(155, 155, 155)",2,legacy,experiment,"[7, 0, 1, 2, 3, 4, 5, 6]",\,2500,3000,0,8,252.7587515,1024,2,48000,-16,main,"[(0, -252), (178, -178), (252, 0), (178, 178), (0, 252), (-178, 178), (-252, 0), (-178, -178)]",[],32,even,2,NA,240972,406932,406932,141403,140393,1884,159185,159185,1884,1884,148950,521808,1883,406932,519305,518479,518479,NA,817,study_X,0,7547,1,yes,1680
undefined,undefined,NA,NA,NA,7547,7547,black,no,legacy,legacy,legacy,0,red,"(177, 0, 0)",color,present,highProb,rectangular,swap,swap,same,swap,green,"(0, 123, 0)",lowProb,lowProb1,rectangular,uniform,1,undefined,0,0.171875,1,1,337.4947917,1,33,64799,0,0,0,0,0,0,0,0,63,0,1,0.171875,337.4947917,33,64799,62,62,62,11/21/2018 14:09,Default description,yes,<openexp._canvas.legacy.legacy object at 0x04284090>,<openexp._canvas.legacy.legacy object at 0x0428D830>,<openexp._canvas.legacy.legacy object at 0x042D2370>,<openexp._canvas.legacy.legacy object at 0x042949B0>,<openexp._canvas.legacy.legacy object at 0x042D1050>,<openexp._canvas.legacy.legacy object at 0x042771D0>,<openexp._canvas.legacy.legacy object at 0x045F0EB0>,<openexp._canvas.legacy.legacy object at 0x0428D8B0>,75,C:/Userdata/Michel/SpatProbMultiple3,no,mono,no,18,no,white,no,yes,0.09,98,1050,legacy,45,37,37,1,C:/Userdata/Michel/SpatProbMultiple3/beh/subject-8.csv,legacy,12,192,25,Jazzy James,3.1.9,yes,598477b2b83f69022949e7e9,47,red,rectangular,green,rectangular,0,\,1921,space,7547,7547,"(80, 80, 80)","(0, 123, 0)","(177, 0, 0)","(155, 155, 155)",2,legacy,experiment,"[7, 0, 1, 2, 3, 4, 5, 6]",\,2500,3000,0,8,252.7587515,1024,2,48000,-16,main,"[(0, -252), (178, -178), (252, 0), (178, 178), (0, 252), (-178, 178), (-252, 0), (-178, -178)]",[],32,even,0,NA,240972,406932,406932,141403,140393,1884,159185,159185,1884,1884,148950,524979,1883,406932,523055,522228,522228,NA,817,study_X,0,7547,1,yes,1680
undefined,undefined,NA,NA,NA,7547,7547,black,no,legacy,legacy,legacy,0,red,"(177, 0, 0)",shape,present,highProb,rectangular,same,same,swap,swap,red,"(177, 0, 0)",lowProb,lowProb4,circular,uniform,1,undefined,0,0.177083333,1,1,347.171875,1,34,66657,0,0,0,0,0,0,0,0,64,0,1,0.177083333,347.171875,34,66657,63,63,63,11/21/2018 14:09,Default description,yes,<openexp._canvas.legacy.legacy object at 0x04284090>,<openexp._canvas.legacy.legacy object at 0x0428D830>,<openexp._canvas.legacy.legacy object at 0x042D2370>,<openexp._canvas.legacy.legacy object at 0x042949B0>,<openexp._canvas.legacy.legacy object at 0x042D1050>,<openexp._canvas.legacy.legacy object at 0x042771D0>,<openexp._canvas.legacy.legacy object at 0x042A26B0>,<openexp._canvas.legacy.legacy object at 0x0428D8B0>,75,C:/Userdata/Michel/SpatProbMultiple3,no,mono,no,18,no,white,no,yes,0.09,98,1050,legacy,45,38,38,1,C:/Userdata/Michel/SpatProbMultiple3/beh/subject-8.csv,legacy,12,192,25,Jazzy James,3.1.9,yes,598477b2b83f69022949e7e9,47,red,rectangular,red,circular,0,\,1858,space,7547,7547,"(80, 80, 80)","(0, 123, 0)","(177, 0, 0)","(155, 155, 155)",2,legacy,experiment,"[7, 0, 1, 2, 3, 4, 5, 6]",\,2500,3000,0,8,252.7587515,1024,2,48000,-16,main,"[(0, -252), (178, -178), (252, 0), (178, 178), (0, 252), (-178, 178), (-252, 0), (-178, -178)]",[],32,even,4,NA,240972,406932,406932,141403,140393,1884,159185,159185,1884,1884,148950,528100,1883,406932,526238,525412,525412,NA,817,study_X,0,7547,1,yes,1680
undefined,undefined,NA,NA,NA,7547,7547,black,no,legacy,legacy,legacy,0,green,"(0, 123, 0)",shape,present,highProb,circular,swap,swap,swap,swap,green,"(0, 123, 0)",lowProb,lowProb3,rectangular,uniform,1,undefined,0,0.182291667,1,1,359.4895833,1,35,69022,0,0,0,0,0,0,0,0,65,0,1,0.182291667,359.4895833,35,69022,64,64,64,11/21/2018 14:09,Default description,yes,<openexp._canvas.legacy.legacy object at 0x04284090>,<openexp._canvas.legacy.legacy object at 0x0428D830>,<openexp._canvas.legacy.legacy object at 0x042D2370>,<openexp._canvas.legacy.legacy object at 0x042949B0>,<openexp._canvas.legacy.legacy object at 0x042D1050>,<openexp._canvas.legacy.legacy object at 0x042771D0>,<openexp._canvas.legacy.legacy object at 0x0429F6B0>,<openexp._canvas.legacy.legacy object at 0x0428D8B0>,75,C:/Userdata/Michel/SpatProbMultiple3,no,mono,no,18,no,white,no,yes,0.09,98,1050,legacy,45,39,39,1,C:/Userdata/Michel/SpatProbMultiple3/beh/subject-8.csv,legacy,12,192,25,Jazzy James,3.1.9,yes,598477b2b83f69022949e7e9,47,green,circular,green,rectangular,0,\,2365,space,7547,7547,"(80, 80, 80)","(0, 123, 0)","(177, 0, 0)","(155, 155, 155)",2,legacy,experiment,"[7, 0, 1, 2, 3, 4, 5, 6]",\,2500,3000,0,8,252.7587515,1024,2,48000,-16,main,"[(0, -252), (178, -178), (252, 0), (178, 178), (0, 252), (-178, 178), (-252, 0), (-178, -178)]",[],32,even,2,NA,240972,406932,406932,141403,140393,1884,159185,159185,1884,1884,148950,531716,1883,406932,529347,528521,528521,NA,817,study_X,0,7547,1,yes,1680
undefined,undefined,NA,NA,NA,7547,7547,black,no,legacy,legacy,legacy,0,green,"(0, 123, 0)",color,present,highProb,circular,same,same,swap,swap,red,"(177, 0, 0)",lowProb,lowProb6,circular,uniform,1,undefined,0,0.1875,1,1,364.6354167,1,36,70010,0,0,0,0,0,0,0,0,66,0,1,0.1875,364.6354167,36,70010,65,65,65,11/21/2018 14:09,Default description,yes,<openexp._canvas.legacy.legacy object at 0x04284090>,<openexp._canvas.legacy.legacy object at 0x0428D830>,<openexp._canvas.legacy.legacy object at 0x042D2370>,<openexp._canvas.legacy.legacy object at 0x042949B0>,<openexp._canvas.legacy.legacy object at 0x042D1050>,<openexp._canvas.legacy.legacy object at 0x042771D0>,<openexp._canvas.legacy.legacy object at 0x0429C7F0>,<openexp._canvas.legacy.legacy object at 0x0428D8B0>,75,C:/Userdata/Michel/SpatProbMultiple3,no,mono,no,18,no,white,no,yes,0.09,98,1050,legacy,45,40,40,1,C:/Userdata/Michel/SpatProbMultiple3/beh/subject-8.csv,legacy,12,192,25,Jazzy James,3.1.9,yes,598477b2b83f69022949e7e9,47,green,circular,red,circular,0,\,988,space,7547,7547,"(80, 80, 80)","(0, 123, 0)","(177, 0, 0)","(155, 155, 155)",2,legacy,experiment,"[7, 0, 1, 2, 3, 4, 5, 6]",\,2500,3000,0,8,252.7587515,1024,2,48000,-16,main,"[(0, -252), (178, -178), (252, 0), (178, 178), (0, 252), (-178, 178), (-252, 0), (-178, -178)]",[],32,even,6,NA,240972,406932,406932,141403,140393,1884,159185,159185,1884,1884,148950,533971,1883,406932,532980,532154,532154,NA,817,study_X,0,7547,1,yes,1680
undefined,undefined,NA,NA,NA,7547,7547,black,no,legacy,legacy,legacy,0,green,"(0, 123, 0)",color,present,highProb,rectangular,same,swap,same,swap,red,"(177, 0, 0)",lowProb,lowProb3,rectangular,uniform,1,undefined,0,0.192708333,1,1,370.1875,1,37,71076,0,0,0,0,0,0,0,0,67,0,1,0.192708333,370.1875,37,71076,66,66,66,11/21/2018 14:09,Default description,yes,<openexp._canvas.legacy.legacy object at 0x04284090>,<openexp._canvas.legacy.legacy object at 0x0428D830>,<openexp._canvas.legacy.legacy object at 0x042D2370>,<openexp._canvas.legacy.legacy object at 0x042949B0>,<openexp._canvas.legacy.legacy object at 0x042D1050>,<openexp._canvas.legacy.legacy object at 0x042771D0>,<openexp._canvas.legacy.legacy object at 0x042A27D0>,<openexp._canvas.legacy.legacy object at 0x0428D8B0>,75,C:/Userdata/Michel/SpatProbMultiple3,no,mono,no,18,no,white,no,yes,0.09,98,1050,legacy,45,41,41,1,C:/Userdata/Michel/SpatProbMultiple3/beh/subject-8.csv,legacy,12,192,25,Jazzy James,3.1.9,yes,598477b2b83f69022949e7e9,47,green,rectangular,red,rectangular,0,\,1066,space,7547,7547,"(80, 80, 80)","(0, 123, 0)","(177, 0, 0)","(155, 155, 155)",2,legacy,experiment,"[7, 0, 1, 2, 3, 4, 5, 6]",\,2500,3000,0,8,252.7587515,1024,2,48000,-16,main,"[(0, -252), (178, -178), (252, 0), (178, 178), (0, 252), (-178, 178), (-252, 0), (-178, -178)]",[],32,even,2,NA,240972,406932,406932,141403,140393,1884,159185,159185,1884,1884,148950,536299,1883,406932,535230,534404,534404,NA,817,study_X,0,7547,1,yes,1680
undefined,undefined,NA,NA,NA,7547,7547,black,no,legacy,legacy,legacy,0,green,"(0, 123, 0)",shape,present,highProb,rectangular,same,same,swap,swap,green,"(0, 123, 0)",lowProb,lowProb4,circular,uniform,1,undefined,0,0.197916667,1,1,378.5208333,1,38,72676,0,0,0,0,0,0,0,0,68,0,1,0.197916667,378.5208333,38,72676,67,67,67,11/21/2018 14:09,Default description,yes,<openexp._canvas.legacy.legacy object at 0x04284090>,<openexp._canvas.legacy.legacy object at 0x0428D830>,<openexp._canvas.legacy.legacy object at 0x042D2370>,<openexp._canvas.legacy.legacy object at 0x042949B0>,<openexp._canvas.legacy.legacy object at 0x042D1050>,<openexp._canvas.legacy.legacy object at 0x042771D0>,<openexp._canvas.legacy.legacy object at 0x045F0E30>,<openexp._canvas.legacy.legacy object at 0x0428D8B0>,75,C:/Userdata/Michel/SpatProbMultiple3,no,mono,no,18,no,white,no,yes,0.09,98,1050,legacy,315,42,42,1,C:/Userdata/Michel/SpatProbMultiple3/beh/subject-8.csv,legacy,12,192,25,Jazzy James,3.1.9,yes,598477b2b83f69022949e7e9,47,green,rectangular,green,circular,0,/,1600,space,7547,7547,"(80, 80, 80)","(0, 123, 0)","(177, 0, 0)","(155, 155, 155)",2,legacy,experiment,"[7, 0, 1, 2, 3, 4, 5, 6]",/,2500,3000,0,8,252.7587515,1024,2,48000,-16,main,"[(0, -252), (178, -178), (252, 0), (178, 178), (0, 252), (-178, 178), (-252, 0), (-178, -178)]",[],32,even,4,NA,240972,406932,406932,141403,140393,1884,159185,159185,1884,1884,148950,539163,1883,406932,537560,536734,536734,NA,817,study_X,0,7547,1,yes,1680
undefined,undefined,NA,NA,NA,7547,7547,black,no,legacy,legacy,legacy,0,green,"(0, 123, 0)",color,present,highProb,circular,same,swap,swap,same,red,"(177, 0, 0)",highProbShape,highProbShape,circular,uniform,1,undefined,0,0.203125,1,1,383.03125,1,39,73542,0,0,0,0,0,0,0,0,69,0,1,0.203125,383.03125,39,73542,68,68,68,11/21/2018 14:09,Default description,yes,<openexp._canvas.legacy.legacy object at 0x04284090>,<openexp._canvas.legacy.legacy object at 0x0428D830>,<openexp._canvas.legacy.legacy object at 0x042D2370>,<openexp._canvas.legacy.legacy object at 0x042949B0>,<openexp._canvas.legacy.legacy object at 0x042D1050>,<openexp._canvas.legacy.legacy object at 0x042771D0>,<openexp._canvas.legacy.legacy object at 0x045F00D0>,<openexp._canvas.legacy.legacy object at 0x0428D8B0>,75,C:/Userdata/Michel/SpatProbMultiple3,no,mono,no,18,no,white,no,yes,0.09,98,1050,legacy,315,43,43,1,C:/Userdata/Michel/SpatProbMultiple3/beh/subject-8.csv,legacy,12,192,25,Jazzy James,3.1.9,yes,598477b2b83f69022949e7e9,47,green,circular,red,circular,0,/,866,space,7547,7547,"(80, 80, 80)","(0, 123, 0)","(177, 0, 0)","(155, 155, 155)",2,legacy,experiment,"[7, 0, 1, 2, 3, 4, 5, 6]",/,2500,3000,0,8,252.7587515,1024,2,48000,-16,main,"[(0, -252), (178, -178), (252, 0), (178, 178), (0, 252), (-178, 178), (-252, 0), (-178, -178)]",[],32,even,3,NA,240972,406932,406932,141403,140393,1884,159185,159185,1884,1884,148950,541299,1883,406932,540430,539604,539604,NA,817,study_X,0,7547,1,yes,1680
undefined,undefined,NA,NA,NA,7547,7547,black,no,legacy,legacy,legacy,0,red,"(177, 0, 0)",color,present,highProb,circular,swap,same,swap,same,green,"(0, 123, 0)",lowProb,lowProb2,circular,uniform,1,undefined,0,0.208333333,1,1,393.53125,1,40,75558,0,0,0,0,0,0,0,0,70,0,1,0.208333333,393.53125,40,75558,69,69,69,11/21/2018 14:09,Default description,yes,<openexp._canvas.legacy.legacy object at 0x04284090>,<openexp._canvas.legacy.legacy object at 0x0428D830>,<openexp._canvas.legacy.legacy object at 0x042D2370>,<openexp._canvas.legacy.legacy object at 0x042949B0>,<openexp._canvas.legacy.legacy object at 0x042D1050>,<openexp._canvas.legacy.legacy object at 0x042771D0>,<openexp._canvas.legacy.legacy object at 0x0429F450>,<openexp._canvas.legacy.legacy object at 0x0428D8B0>,75,C:/Userdata/Michel/SpatProbMultiple3,no,mono,no,18,no,white,no,yes,0.09,98,1050,legacy,315,44,44,1,C:/Userdata/Michel/SpatProbMultiple3/beh/subject-8.csv,legacy,12,192,25,Jazzy James,3.1.9,yes,598477b2b83f69022949e7e9,47,red,circular,green,circular,0,/,2016,space,7547,7547,"(80, 80, 80)","(0, 123, 0)","(177, 0, 0)","(155, 155, 155)",2,legacy,experiment,"[7, 0, 1, 2, 3, 4, 5, 6]",/,2500,3000,0,8,252.7587515,1024,2,48000,-16,main,"[(0, -252), (178, -178), (252, 0), (178, 178), (0, 252), (-178, 178), (-252, 0), (-178, -178)]",[],32,even,1,NA,240972,406932,406932,141403,140393,1884,159185,159185,1884,1884,148950,544611,1883,406932,542591,541765,541765,NA,817,study_X,0,7547,1,yes,1680
undefined,undefined,NA,NA,NA,7547,7547,black,no,legacy,legacy,legacy,0,green,"(0, 123, 0)",shape,present,highProb,circular,swap,same,same,swap,green,"(0, 123, 0)",lowProb,lowProb5,rectangular,uniform,1,undefined,0,0.213541667,1,1,404.1979167,1,41,77606,0,0,0,0,0,0,0,0,71,0,1,0.213541667,404.1979167,41,77606,70,70,70,11/21/2018 14:09,Default description,yes,<openexp._canvas.legacy.legacy object at 0x04284090>,<openexp._canvas.legacy.legacy object at 0x0428D830>,<openexp._canvas.legacy.legacy object at 0x042D2370>,<openexp._canvas.legacy.legacy object at 0x042949B0>,<openexp._canvas.legacy.legacy object at 0x042D1050>,<openexp._canvas.legacy.legacy object at 0x042771D0>,<openexp._canvas.legacy.legacy object at 0x045F5770>,<openexp._canvas.legacy.legacy object at 0x0428D8B0>,75,C:/Userdata/Michel/SpatProbMultiple3,no,mono,no,18,no,white,no,yes,0.09,98,1050,legacy,45,45,45,1,C:/Userdata/Michel/SpatProbMultiple3/beh/subject-8.csv,legacy,12,192,25,Jazzy James,3.1.9,yes,598477b2b83f69022949e7e9,47,green,circular,green,rectangular,0,\,2048,space,7547,7547,"(80, 80, 80)","(0, 123, 0)","(177, 0, 0)","(155, 155, 155)",2,legacy,experiment,"[7, 0, 1, 2, 3, 4, 5, 6]",\,2500,3000,0,8,252.7587515,1024,2,48000,-16,main,"[(0, -252), (178, -178), (252, 0), (178, 178), (0, 252), (-178, 178), (-252, 0), (-178, -178)]",[],32,even,5,NA,240972,406932,406932,141403,140393,1884,159185,159185,1884,1884,148950,547916,1883,406932,545864,545038,545038,NA,817,study_X,0,7547,1,yes,1680
undefined,undefined,NA,NA,NA,7547,7547,black,no,legacy,legacy,legacy,0,red,"(177, 0, 0)",shape,absent,lowProb3,rectangular,swap,swap,swap,same,red,"(177, 0, 0)",highProbColor,highProbColor,rectangular,uniform,1,undefined,0,0.21875,1,1,416.359375,1,42,79941,0,0,0,0,0,0,0,0,72,0,1,0.21875,416.359375,42,79941,71,71,71,11/21/2018 14:09,Default description,yes,<openexp._canvas.legacy.legacy object at 0x04284090>,<openexp._canvas.legacy.legacy object at 0x0428D830>,<openexp._canvas.legacy.legacy object at 0x042D2370>,<openexp._canvas.legacy.legacy object at 0x042949B0>,<openexp._canvas.legacy.legacy object at 0x042D1050>,<openexp._canvas.legacy.legacy object at 0x042771D0>,<openexp._canvas.legacy.legacy object at 0x0429EDB0>,<openexp._canvas.legacy.legacy object at 0x0428D8B0>,75,C:/Userdata/Michel/SpatProbMultiple3,no,mono,no,18,no,white,no,yes,0.09,98,1050,legacy,45,46,46,1,C:/Userdata/Michel/SpatProbMultiple3/beh/subject-8.csv,legacy,12,192,25,Jazzy James,3.1.9,yes,598477b2b83f69022949e7e9,47,red,rectangular,red,rectangular,0,\,2335,space,7547,7547,"(80, 80, 80)","(0, 123, 0)","(177, 0, 0)","(155, 155, 155)",2,legacy,experiment,"[7, 0, 1, 2, 3, 4, 5, 6]",\,2500,3000,0,8,252.7587515,1024,2,48000,-16,main,"[(0, -252), (178, -178), (252, 0), (178, 178), (0, 252), (-178, 178), (-252, 0), (-178, -178)]",[],32,even,7,NA,240972,406932,406932,141403,140393,1884,159185,159185,1884,1884,148950,551499,1883,406932,549161,548334,548335,NA,817,study_X,0,7547,1,yes,1680
undefined,undefined,NA,NA,NA,7547,7547,black,no,legacy,legacy,legacy,0,red,"(177, 0, 0)",shape,absent,lowProb6,rectangular,same,same,same,same,red,"(177, 0, 0)",lowProb,lowProb3,rectangular,uniform,1,undefined,0,0.223958333,1,1,425.5208333,1,43,81700,0,0,0,0,0,0,0,0,73,0,1,0.223958333,425.5208333,43,81700,72,72,72,11/21/2018 14:09,Default description,yes,<openexp._canvas.legacy.legacy object at 0x04284090>,<openexp._canvas.legacy.legacy object at 0x0428D830>,<openexp._canvas.legacy.legacy object at 0x042D2370>,<openexp._canvas.legacy.legacy object at 0x042949B0>,<openexp._canvas.legacy.legacy object at 0x042D1050>,<openexp._canvas.legacy.legacy object at 0x042771D0>,<openexp._canvas.legacy.legacy object at 0x0429F9D0>,<openexp._canvas.legacy.legacy object at 0x0428D8B0>,75,C:/Userdata/Michel/SpatProbMultiple3,no,mono,no,18,no,white,no,yes,0.09,98,1050,legacy,315,47,47,1,C:/Userdata/Michel/SpatProbMultiple3/beh/subject-8.csv,legacy,12,192,25,Jazzy James,3.1.9,yes,598477b2b83f69022949e7e9,47,red,rectangular,red,rectangular,0,/,1759,space,7547,7547,"(80, 80, 80)","(0, 123, 0)","(177, 0, 0)","(155, 155, 155)",2,legacy,experiment,"[7, 0, 1, 2, 3, 4, 5, 6]",/,2500,3000,0,8,252.7587515,1024,2,48000,-16,main,"[(0, -252), (178, -178), (252, 0), (178, 178), (0, 252), (-178, 178), (-252, 0), (-178, -178)]",[],32,even,2,NA,240972,406932,406932,141403,140393,1884,159185,159185,1884,1884,148950,554539,1883,406932,552777,551951,551951,NA,817,study_X,0,7547,1,yes,1680
undefined,undefined,NA,NA,NA,7547,7547,black,no,legacy,legacy,legacy,0,green,"(0, 123, 0)",color,absent,lowProb4,circular,swap,swap,swap,swap,green,"(0, 123, 0)",lowProb,lowProb6,circular,uniform,0,undefined,0,0.223958333,1,1,438.5416667,1,43,84200,0,0,0,0,0,0,0,0,74,0,1,0.223958333,438.5416667,43,84200,73,73,73,11/21/2018 14:09,Default description,yes,<openexp._canvas.legacy.legacy object at 0x04284090>,<openexp._canvas.legacy.legacy object at 0x0428D830>,<openexp._canvas.legacy.legacy object at 0x042D2370>,<openexp._canvas.legacy.legacy object at 0x042949B0>,<openexp._canvas.legacy.legacy object at 0x042D1050>,<openexp._canvas.legacy.legacy object at 0x042771D0>,<openexp._canvas.legacy.legacy object at 0x045F0B70>,<openexp._canvas.legacy.legacy object at 0x0428D8B0>,75,C:/Userdata/Michel/SpatProbMultiple3,no,mono,no,18,no,white,no,yes,0.09,98,1050,legacy,45,48,48,1,C:/Userdata/Michel/SpatProbMultiple3/beh/subject-8.csv,legacy,12,192,25,Jazzy James,3.1.9,yes,598477b2b83f69022949e7e9,47,green,circular,green,circular,0,None,2500,space,7547,7547,"(80, 80, 80)","(0, 123, 0)","(177, 0, 0)","(155, 155, 155)",2,legacy,experiment,"[7, 0, 1, 2, 3, 4, 5, 6]",\,2500,3000,0,8,252.7587515,1024,2,48000,-16,main,"[(0, -252), (178, -178), (252, 0), (178, 178), (0, 252), (-178, 178), (-252, 0), (-178, -178)]",[],32,even,6,NA,240972,406932,406932,141403,140393,1884,159185,159185,1884,1884,148950,558317,1883,406932,555814,554987,554987,NA,817,study_X,0,7547,1,yes,1680
undefined,undefined,NA,NA,NA,7547,7547,black,no,legacy,legacy,legacy,0,red,"(177, 0, 0)",shape,present,highProbOther,rectangular,swap,swap,swap,same,red,"(177, 0, 0)",lowProb,lowProb1,circular,uniform,1,undefined,0,0.229166667,1,1,448.0364583,1,44,86023,0,0,0,0,0,0,0,0,75,0,1,0.229166667,448.0364583,44,86023,74,74,74,11/21/2018 14:09,Default description,yes,<openexp._canvas.legacy.legacy object at 0x04284090>,<openexp._canvas.legacy.legacy object at 0x0428D830>,<openexp._canvas.legacy.legacy object at 0x042D2370>,<openexp._canvas.legacy.legacy object at 0x042949B0>,<openexp._canvas.legacy.legacy object at 0x042D1050>,<openexp._canvas.legacy.legacy object at 0x042771D0>,<openexp._canvas.legacy.legacy object at 0x045F07D0>,<openexp._canvas.legacy.legacy object at 0x0428D8B0>,75,C:/Userdata/Michel/SpatProbMultiple3,no,mono,no,18,no,white,no,yes,0.09,98,1050,legacy,315,49,49,1,C:/Userdata/Michel/SpatProbMultiple3/beh/subject-8.csv,legacy,12,192,25,Jazzy James,3.1.9,yes,598477b2b83f69022949e7e9,47,red,rectangular,red,circular,0,/,1823,space,7547,7547,"(80, 80, 80)","(0, 123, 0)","(177, 0, 0)","(155, 155, 155)",2,legacy,experiment,"[7, 0, 1, 2, 3, 4, 5, 6]",/,2500,3000,0,8,252.7587515,1024,2,48000,-16,main,"[(0, -252), (178, -178), (252, 0), (178, 178), (0, 252), (-178, 178), (-252, 0), (-178, -178)]",[],32,even,0,NA,240972,406932,406932,141403,140393,1884,159185,159185,1884,1884,148950,561403,1883,406932,559576,558750,558750,NA,817,study_X,0,7547,1,yes,1680
undefined,undefined,NA,NA,NA,7547,7547,black,no,legacy,legacy,legacy,0,green,"(0, 123, 0)",shape,absent,lowProb2,rectangular,swap,same,swap,swap,green,"(0, 123, 0)",highProbColor,highProbColor,rectangular,uniform,1,undefined,0,0.234375,1,1,460.3802083,1,45,88393,0,0,0,0,0,0,0,0,76,0,1,0.234375,460.3802083,45,88393,75,75,75,11/21/2018 14:09,Default description,yes,<openexp._canvas.legacy.legacy object at 0x04284090>,<openexp._canvas.legacy.legacy object at 0x0428D830>,<openexp._canvas.legacy.legacy object at 0x042D2370>,<openexp._canvas.legacy.legacy object at 0x042949B0>,<openexp._canvas.legacy.legacy object at 0x042D1050>,<openexp._canvas.legacy.legacy object at 0x042771D0>,<openexp._canvas.legacy.legacy object at 0x042A23F0>,<openexp._canvas.legacy.legacy object at 0x0428D8B0>,75,C:/Userdata/Michel/SpatProbMultiple3,no,mono,no,18,no,white,no,yes,0.09,98,1050,legacy,315,50,50,1,C:/Userdata/Michel/SpatProbMultiple3/beh/subject-8.csv,legacy,12,192,25,Jazzy James,3.1.9,yes,598477b2b83f69022949e7e9,47,green,rectangular,green,rectangular,0,/,2370,space,7547,7547,"(80, 80, 80)","(0, 123, 0)","(177, 0, 0)","(155, 155, 155)",2,legacy,experiment,"[7, 0, 1, 2, 3, 4, 5, 6]",/,2500,3000,0,8,252.7587515,1024,2,48000,-16,main,"[(0, -252), (178, -178), (252, 0), (178, 178), (0, 252), (-178, 178), (-252, 0), (-178, -178)]",[],32,even,7,NA,240972,406932,406932,141403,140393,1884,159185,159185,1884,1884,148950,565051,1883,406932,562678,561852,561852,NA,817,study_X,0,7547,1,yes,1680
undefined,undefined,NA,NA,NA,7547,7547,black,no,legacy,legacy,legacy,0,green,"(0, 123, 0)",shape,present,highProbOther,circular,same,swap,same,same,green,"(0, 123, 0)",lowProb,lowProb6,rectangular,uniform,0,undefined,0,0.234375,1,1,473.4010417,1,45,90893,0,0,0,0,0,0,0,0,77,0,1,0.234375,473.4010417,45,90893,76,76,76,11/21/2018 14:09,Default description,yes,<openexp._canvas.legacy.legacy object at 0x04284090>,<openexp._canvas.legacy.legacy object at 0x0428D830>,<openexp._canvas.legacy.legacy object at 0x042D2370>,<openexp._canvas.legacy.legacy object at 0x042949B0>,<openexp._canvas.legacy.legacy object at 0x042D1050>,<openexp._canvas.legacy.legacy object at 0x042771D0>,<openexp._canvas.legacy.legacy object at 0x045F5F10>,<openexp._canvas.legacy.legacy object at 0x0428D8B0>,75,C:/Userdata/Michel/SpatProbMultiple3,no,mono,no,18,no,white,no,yes,0.09,98,1050,legacy,315,51,51,1,C:/Userdata/Michel/SpatProbMultiple3/beh/subject-8.csv,legacy,12,192,25,Jazzy James,3.1.9,yes,598477b2b83f69022949e7e9,47,green,circular,green,rectangular,0,None,2500,space,7547,7547,"(80, 80, 80)","(0, 123, 0)","(177, 0, 0)","(155, 155, 155)",2,legacy,experiment,"[7, 0, 1, 2, 3, 4, 5, 6]",/,2500,3000,0,8,252.7587515,1024,2,48000,-16,main,"[(0, -252), (178, -178), (252, 0), (178, 178), (0, 252), (-178, 178), (-252, 0), (-178, -178)]",[],32,even,6,NA,240972,406932,406932,141403,140393,1884,159185,159185,1884,1884,148950,568819,1883,406932,566316,565489,565490,NA,817,study_X,0,7547,1,yes,1680
undefined,undefined,NA,NA,NA,7547,7547,black,no,legacy,legacy,legacy,0,red,"(177, 0, 0)",shape,present,highProb,rectangular,swap,swap,swap,swap,red,"(177, 0, 0)",lowProb,lowProb5,circular,uniform,1,undefined,0,0.239583333,1,1,484.1614583,1,46,92959,0,0,0,0,0,0,0,0,78,0,1,0.239583333,484.1614583,46,92959,77,77,77,11/21/2018 14:09,Default description,yes,<openexp._canvas.legacy.legacy object at 0x04284090>,<openexp._canvas.legacy.legacy object at 0x0428D830>,<openexp._canvas.legacy.legacy object at 0x042D2370>,<openexp._canvas.legacy.legacy object at 0x042949B0>,<openexp._canvas.legacy.legacy object at 0x042D1050>,<openexp._canvas.legacy.legacy object at 0x042771D0>,<openexp._canvas.legacy.legacy object at 0x0429E790>,<openexp._canvas.legacy.legacy object at 0x0428D8B0>,75,C:/Userdata/Michel/SpatProbMultiple3,no,mono,no,18,no,white,no,yes,0.09,98,1050,legacy,45,52,52,1,C:/Userdata/Michel/SpatProbMultiple3/beh/subject-8.csv,legacy,12,192,25,Jazzy James,3.1.9,yes,598477b2b83f69022949e7e9,47,red,rectangular,red,circular,0,\,2066,space,7547,7547,"(80, 80, 80)","(0, 123, 0)","(177, 0, 0)","(155, 155, 155)",2,legacy,experiment,"[7, 0, 1, 2, 3, 4, 5, 6]",\,2500,3000,0,8,252.7587515,1024,2,48000,-16,main,"[(0, -252), (178, -178), (252, 0), (178, 178), (0, 252), (-178, 178), (-252, 0), (-178, -178)]",[],32,even,5,NA,240972,406932,406932,141403,140393,1884,159185,159185,1884,1884,148950,572163,1883,406932,570094,569268,569268,NA,817,study_X,0,7547,1,yes,1680
undefined,undefined,NA,NA,NA,7547,7547,black,no,legacy,legacy,legacy,0,green,"(0, 123, 0)",shape,present,lowProb1,rectangular,swap,same,swap,same,green,"(0, 123, 0)",highProbShape,highProbShape,circular,uniform,1,undefined,0,0.244791667,1,1,490.9114583,1,47,94255,0,0,0,0,0,0,0,0,79,0,1,0.244791667,490.9114583,47,94255,78,78,78,11/21/2018 14:09,Default description,yes,<openexp._canvas.legacy.legacy object at 0x04284090>,<openexp._canvas.legacy.legacy object at 0x0428D830>,<openexp._canvas.legacy.legacy object at 0x042D2370>,<openexp._canvas.legacy.legacy object at 0x042949B0>,<openexp._canvas.legacy.legacy object at 0x042D1050>,<openexp._canvas.legacy.legacy object at 0x042771D0>,<openexp._canvas.legacy.legacy object at 0x042A2430>,<openexp._canvas.legacy.legacy object at 0x0428D8B0>,75,C:/Userdata/Michel/SpatProbMultiple3,no,mono,no,18,no,white,no,yes,0.09,98,1050,legacy,45,53,53,1,C:/Userdata/Michel/SpatProbMultiple3/beh/subject-8.csv,legacy,12,192,25,Jazzy James,3.1.9,yes,598477b2b83f69022949e7e9,47,green,rectangular,green,circular,0,\,1296,space,7547,7547,"(80, 80, 80)","(0, 123, 0)","(177, 0, 0)","(155, 155, 155)",2,legacy,experiment,"[7, 0, 1, 2, 3, 4, 5, 6]",\,2500,3000,0,8,252.7587515,1024,2,48000,-16,main,"[(0, -252), (178, -178), (252, 0), (178, 178), (0, 252), (-178, 178), (-252, 0), (-178, -178)]",[],32,even,3,NA,240972,406932,406932,141403,140393,1884,159185,159185,1884,1884,148950,574731,1883,406932,573431,572605,572605,NA,817,study_X,0,7547,1,yes,1680
undefined,undefined,NA,NA,NA,7547,7547,black,no,legacy,legacy,legacy,0,green,"(0, 123, 0)",shape,present,highProb,circular,same,swap,same,swap,green,"(0, 123, 0)",lowProb,lowProb1,rectangular,uniform,1,undefined,0,0.25,1,1,502.7604167,1,48,96530,0,0,0,0,0,0,0,0,80,0,1,0.25,502.7604167,48,96530,79,79,79,11/21/2018 14:09,Default description,yes,<openexp._canvas.legacy.legacy object at 0x04284090>,<openexp._canvas.legacy.legacy object at 0x0428D830>,<openexp._canvas.legacy.legacy object at 0x042D2370>,<openexp._canvas.legacy.legacy object at 0x042949B0>,<openexp._canvas.legacy.legacy object at 0x042D1050>,<openexp._canvas.legacy.legacy object at 0x042771D0>,<openexp._canvas.legacy.legacy object at 0x045F0D50>,<openexp._canvas.legacy.legacy object at 0x0428D8B0>,75,C:/Userdata/Michel/SpatProbMultiple3,no,mono,no,18,no,white,no,yes,0.09,98,1050,legacy,45,54,54,1,C:/Userdata/Michel/SpatProbMultiple3/beh/subject-8.csv,legacy,12,192,25,Jazzy James,3.1.9,yes,598477b2b83f69022949e7e9,47,green,circular,green,rectangular,0,\,2275,space,7547,7547,"(80, 80, 80)","(0, 123, 0)","(177, 0, 0)","(155, 155, 155)",2,legacy,experiment,"[7, 0, 1, 2, 3, 4, 5, 6]",\,2500,3000,0,8,252.7587515,1024,2,48000,-16,main,"[(0, -252), (178, -178), (252, 0), (178, 178), (0, 252), (-178, 178), (-252, 0), (-178, -178)]",[],32,even,0,NA,240972,406932,406932,141403,140393,1884,159185,159185,1884,1884,148950,578267,1883,406932,575988,575162,575162,NA,817,study_X,0,7547,1,yes,1680
undefined,undefined,NA,NA,NA,7547,7547,black,no,legacy,legacy,legacy,0,red,"(177, 0, 0)",color,present,highProb,circular,swap,same,same,swap,green,"(0, 123, 0)",highProbShape,highProbShape,circular,uniform,1,undefined,0,0.255208333,1,1,509.9270833,1,49,97906,0,0,0,0,0,0,0,0,81,0,1,0.255208333,509.9270833,49,97906,80,80,80,11/21/2018 14:09,Default description,yes,<openexp._canvas.legacy.legacy object at 0x04284090>,<openexp._canvas.legacy.legacy object at 0x0428D830>,<openexp._canvas.legacy.legacy object at 0x042D2370>,<openexp._canvas.legacy.legacy object at 0x042949B0>,<openexp._canvas.legacy.legacy object at 0x042D1050>,<openexp._canvas.legacy.legacy object at 0x042771D0>,<openexp._canvas.legacy.legacy object at 0x04283DF0>,<openexp._canvas.legacy.legacy object at 0x0428D8B0>,75,C:/Userdata/Michel/SpatProbMultiple3,no,mono,no,18,no,white,no,yes,0.09,98,1050,legacy,315,55,55,1,C:/Userdata/Michel/SpatProbMultiple3/beh/subject-8.csv,legacy,12,192,25,Jazzy James,3.1.9,yes,598477b2b83f69022949e7e9,47,red,circular,green,circular,0,/,1376,space,7547,7547,"(80, 80, 80)","(0, 123, 0)","(177, 0, 0)","(155, 155, 155)",2,legacy,experiment,"[7, 0, 1, 2, 3, 4, 5, 6]",/,2500,3000,0,8,252.7587515,1024,2,48000,-16,main,"[(0, -252), (178, -178), (252, 0), (178, 178), (0, 252), (-178, 178), (-252, 0), (-178, -178)]",[],32,even,3,NA,240972,406932,406932,141403,140393,1884,159185,159185,1884,1884,148950,580907,1883,406932,579528,578702,578702,NA,817,study_X,0,7547,1,yes,1680
undefined,undefined,NA,NA,NA,7547,7547,black,no,legacy,legacy,legacy,0,green,"(0, 123, 0)",shape,present,lowProb2,rectangular,swap,swap,same,same,green,"(0, 123, 0)",lowProb,lowProb6,circular,uniform,1,undefined,0,0.260416667,1,1,520.015625,1,50,99843,0,0,0,0,0,0,0,0,82,0,1,0.260416667,520.015625,50,99843,81,81,81,11/21/2018 14:09,Default description,yes,<openexp._canvas.legacy.legacy object at 0x04284090>,<openexp._canvas.legacy.legacy object at 0x0428D830>,<openexp._canvas.legacy.legacy object at 0x042D2370>,<openexp._canvas.legacy.legacy object at 0x042949B0>,<openexp._canvas.legacy.legacy object at 0x042D1050>,<openexp._canvas.legacy.legacy object at 0x042771D0>,<openexp._canvas.legacy.legacy object at 0x042D23D0>,<openexp._canvas.legacy.legacy object at 0x0428D8B0>,75,C:/Userdata/Michel/SpatProbMultiple3,no,mono,no,18,no,white,no,yes,0.09,98,1050,legacy,45,56,56,1,C:/Userdata/Michel/SpatProbMultiple3/beh/subject-8.csv,legacy,12,192,25,Jazzy James,3.1.9,yes,598477b2b83f69022949e7e9,47,green,rectangular,green,circular,0,\,1937,space,7547,7547,"(80, 80, 80)","(0, 123, 0)","(177, 0, 0)","(155, 155, 155)",2,legacy,experiment,"[7, 0, 1, 2, 3, 4, 5, 6]",\,2500,3000,0,8,252.7587515,1024,2,48000,-16,main,"[(0, -252), (178, -178), (252, 0), (178, 178), (0, 252), (-178, 178), (-252, 0), (-178, -178)]",[],32,even,6,NA,240972,406932,406932,141403,140393,1884,159185,159185,1884,1884,148950,584139,1883,406932,582199,581373,581373,NA,817,study_X,0,7547,1,yes,1680
undefined,undefined,NA,NA,NA,7547,7547,black,no,legacy,legacy,legacy,0,green,"(0, 123, 0)",color,present,highProb,rectangular,same,same,swap,swap,red,"(177, 0, 0)",lowProb,lowProb1,rectangular,uniform,1,undefined,0,0.265625,1,1,532.3802083,1,51,102217,0,0,0,0,0,0,0,0,83,0,1,0.265625,532.3802083,51,102217,82,82,82,11/21/2018 14:09,Default description,yes,<openexp._canvas.legacy.legacy object at 0x04284090>,<openexp._canvas.legacy.legacy object at 0x0428D830>,<openexp._canvas.legacy.legacy object at 0x042D2370>,<openexp._canvas.legacy.legacy object at 0x042949B0>,<openexp._canvas.legacy.legacy object at 0x042D1050>,<openexp._canvas.legacy.legacy object at 0x042771D0>,<openexp._canvas.legacy.legacy object at 0x045F0210>,<openexp._canvas.legacy.legacy object at 0x0428D8B0>,75,C:/Userdata/Michel/SpatProbMultiple3,no,mono,no,18,no,white,no,yes,0.09,98,1050,legacy,315,57,57,1,C:/Userdata/Michel/SpatProbMultiple3/beh/subject-8.csv,legacy,12,192,25,Jazzy James,3.1.9,yes,598477b2b83f69022949e7e9,47,green,rectangular,red,rectangular,0,/,2374,space,7547,7547,"(80, 80, 80)","(0, 123, 0)","(177, 0, 0)","(155, 155, 155)",2,legacy,experiment,"[7, 0, 1, 2, 3, 4, 5, 6]",/,2500,3000,0,8,252.7587515,1024,2,48000,-16,main,"[(0, -252), (178, -178), (252, 0), (178, 178), (0, 252), (-178, 178), (-252, 0), (-178, -178)]",[],32,even,0,NA,240972,406932,406932,141403,140393,1884,159185,159185,1884,1884,148950,587771,1883,406932,585394,584567,584567,NA,817,study_X,0,7547,1,yes,1680
undefined,undefined,NA,NA,NA,7547,7547,black,no,legacy,legacy,legacy,0,green,"(0, 123, 0)",color,present,highProbOther,rectangular,same,same,same,same,red,"(177, 0, 0)",lowProb,lowProb5,rectangular,uniform,1,undefined,0,0.270833333,1,1,539.96875,1,52,103674,0,0,0,0,0,0,0,0,84,0,1,0.270833333,539.96875,52,103674,83,83,83,11/21/2018 14:09,Default description,yes,<openexp._canvas.legacy.legacy object at 0x04284090>,<openexp._canvas.legacy.legacy object at 0x0428D830>,<openexp._canvas.legacy.legacy object at 0x042D2370>,<openexp._canvas.legacy.legacy object at 0x042949B0>,<openexp._canvas.legacy.legacy object at 0x042D1050>,<openexp._canvas.legacy.legacy object at 0x042771D0>,<openexp._canvas.legacy.legacy object at 0x0429E4B0>,<openexp._canvas.legacy.legacy object at 0x0428D8B0>,75,C:/Userdata/Michel/SpatProbMultiple3,no,mono,no,18,no,white,no,yes,0.09,98,1050,legacy,45,58,58,1,C:/Userdata/Michel/SpatProbMultiple3/beh/subject-8.csv,legacy,12,192,25,Jazzy James,3.1.9,yes,598477b2b83f69022949e7e9,47,green,rectangular,red,rectangular,0,\,1457,space,7547,7547,"(80, 80, 80)","(0, 123, 0)","(177, 0, 0)","(155, 155, 155)",2,legacy,experiment,"[7, 0, 1, 2, 3, 4, 5, 6]",\,2500,3000,0,8,252.7587515,1024,2,48000,-16,main,"[(0, -252), (178, -178), (252, 0), (178, 178), (0, 252), (-178, 178), (-252, 0), (-178, -178)]",[],32,even,5,NA,240972,406932,406932,141403,140393,1884,159185,159185,1884,1884,148950,590491,1883,406932,589030,588204,588204,NA,817,study_X,0,7547,1,yes,1680
undefined,undefined,NA,NA,NA,7547,7547,black,no,legacy,legacy,legacy,0,green,"(0, 123, 0)",shape,present,highProb,circular,same,swap,swap,same,green,"(0, 123, 0)",lowProb,lowProb2,rectangular,uniform,1,undefined,0,0.276041667,1,1,547.3125,1,53,105084,0,0,0,0,0,0,0,0,85,0,1,0.276041667,547.3125,53,105084,84,84,84,11/21/2018 14:09,Default description,yes,<openexp._canvas.legacy.legacy object at 0x04284090>,<openexp._canvas.legacy.legacy object at 0x0428D830>,<openexp._canvas.legacy.legacy object at 0x042D2370>,<openexp._canvas.legacy.legacy object at 0x042949B0>,<openexp._canvas.legacy.legacy object at 0x042D1050>,<openexp._canvas.legacy.legacy object at 0x042771D0>,<openexp._canvas.legacy.legacy object at 0x045EFAD0>,<openexp._canvas.legacy.legacy object at 0x0428D8B0>,75,C:/Userdata/Michel/SpatProbMultiple3,no,mono,no,18,no,white,no,yes,0.09,98,1050,legacy,315,59,59,1,C:/Userdata/Michel/SpatProbMultiple3/beh/subject-8.csv,legacy,12,192,25,Jazzy James,3.1.9,yes,598477b2b83f69022949e7e9,47,green,circular,green,rectangular,0,/,1410,space,7547,7547,"(80, 80, 80)","(0, 123, 0)","(177, 0, 0)","(155, 155, 155)",2,legacy,experiment,"[7, 0, 1, 2, 3, 4, 5, 6]",/,2500,3000,0,8,252.7587515,1024,2,48000,-16,main,"[(0, -252), (178, -178), (252, 0), (178, 178), (0, 252), (-178, 178), (-252, 0), (-178, -178)]",[],32,even,1,NA,240972,406932,406932,141403,140393,1884,159185,159185,1884,1884,148950,593171,1883,406932,591757,590931,590931,NA,817,study_X,0,7547,1,yes,1680
undefined,undefined,NA,NA,NA,7547,7547,black,no,legacy,legacy,legacy,0,red,"(177, 0, 0)",shape,present,lowProb3,rectangular,swap,swap,swap,swap,red,"(177, 0, 0)",lowProb,lowProb5,circular,uniform,0,undefined,0,0.276041667,1,1,560.3333333,1,53,107584,0,0,0,0,0,0,0,0,86,0,1,0.276041667,560.3333333,53,107584,85,85,85,11/21/2018 14:09,Default description,yes,<openexp._canvas.legacy.legacy object at 0x04284090>,<openexp._canvas.legacy.legacy object at 0x0428D830>,<openexp._canvas.legacy.legacy object at 0x042D2370>,<openexp._canvas.legacy.legacy object at 0x042949B0>,<openexp._canvas.legacy.legacy object at 0x042D1050>,<openexp._canvas.legacy.legacy object at 0x042771D0>,<openexp._canvas.legacy.legacy object at 0x045F0690>,<openexp._canvas.legacy.legacy object at 0x0428D8B0>,75,C:/Userdata/Michel/SpatProbMultiple3,no,mono,no,18,no,white,no,yes,0.09,98,1050,legacy,315,60,60,1,C:/Userdata/Michel/SpatProbMultiple3/beh/subject-8.csv,legacy,12,192,25,Jazzy James,3.1.9,yes,598477b2b83f69022949e7e9,47,red,rectangular,red,circular,0,None,2500,space,7547,7547,"(80, 80, 80)","(0, 123, 0)","(177, 0, 0)","(155, 155, 155)",2,legacy,experiment,"[7, 0, 1, 2, 3, 4, 5, 6]",/,2500,3000,0,8,252.7587515,1024,2,48000,-16,main,"[(0, -252), (178, -178), (252, 0), (178, 178), (0, 252), (-178, 178), (-252, 0), (-178, -178)]",[],32,even,5,NA,240972,406932,406932,141403,140393,1884,159185,159185,1884,1884,148950,596938,1883,406932,594435,593609,593609,NA,817,study_X,0,7547,1,yes,1680
undefined,undefined,NA,NA,NA,7547,7547,black,no,legacy,legacy,legacy,0,red,"(177, 0, 0)",color,absent,lowProb1,rectangular,same,same,same,swap,red,"(177, 0, 0)",highProbColor,highProbColor,rectangular,uniform,1,undefined,0,0.28125,1,1,572.6354167,1,54,109946,0,0,0,0,0,0,0,0,87,0,1,0.28125,572.6354167,54,109946,86,86,86,11/21/2018 14:09,Default description,yes,<openexp._canvas.legacy.legacy object at 0x04284090>,<openexp._canvas.legacy.legacy object at 0x0428D830>,<openexp._canvas.legacy.legacy object at 0x042D2370>,<openexp._canvas.legacy.legacy object at 0x042949B0>,<openexp._canvas.legacy.legacy object at 0x042D1050>,<openexp._canvas.legacy.legacy object at 0x042771D0>,<openexp._canvas.legacy.legacy object at 0x04278970>,<openexp._canvas.legacy.legacy object at 0x0428D8B0>,75,C:/Userdata/Michel/SpatProbMultiple3,no,mono,no,18,no,white,no,yes,0.09,98,1050,legacy,45,61,61,1,C:/Userdata/Michel/SpatProbMultiple3/beh/subject-8.csv,legacy,12,192,25,Jazzy James,3.1.9,yes,598477b2b83f69022949e7e9,47,red,rectangular,red,rectangular,0,\,2362,space,7547,7547,"(80, 80, 80)","(0, 123, 0)","(177, 0, 0)","(155, 155, 155)",2,legacy,experiment,"[7, 0, 1, 2, 3, 4, 5, 6]",\,2500,3000,0,8,252.7587515,1024,2,48000,-16,main,"[(0, -252), (178, -178), (252, 0), (178, 178), (0, 252), (-178, 178), (-252, 0), (-178, -178)]",[],32,even,7,NA,240972,406932,406932,141403,140393,1884,159185,159185,1884,1884,148950,600547,1883,406932,598182,597356,597356,NA,817,study_X,0,7547,1,yes,1680
undefined,undefined,NA,NA,NA,7547,7547,black,no,legacy,legacy,legacy,0,red,"(177, 0, 0)",color,present,highProb,circular,same,swap,swap,swap,green,"(0, 123, 0)",lowProb,lowProb6,circular,uniform,1,undefined,0,0.286458333,1,1,578.3177083,1,55,111037,0,0,0,0,0,0,0,0,88,0,1,0.286458333,578.3177083,55,111037,87,87,87,11/21/2018 14:09,Default description,yes,<openexp._canvas.legacy.legacy object at 0x04284090>,<openexp._canvas.legacy.legacy object at 0x0428D830>,<openexp._canvas.legacy.legacy object at 0x042D2370>,<openexp._canvas.legacy.legacy object at 0x042949B0>,<openexp._canvas.legacy.legacy object at 0x042D1050>,<openexp._canvas.legacy.legacy object at 0x042771D0>,<openexp._canvas.legacy.legacy object at 0x042A2150>,<openexp._canvas.legacy.legacy object at 0x0428D8B0>,75,C:/Userdata/Michel/SpatProbMultiple3,no,mono,no,18,no,white,no,yes,0.09,98,1050,legacy,315,62,62,1,C:/Userdata/Michel/SpatProbMultiple3/beh/subject-8.csv,legacy,12,192,25,Jazzy James,3.1.9,yes,598477b2b83f69022949e7e9,47,red,circular,green,circular,0,/,1091,space,7547,7547,"(80, 80, 80)","(0, 123, 0)","(177, 0, 0)","(155, 155, 155)",2,legacy,experiment,"[7, 0, 1, 2, 3, 4, 5, 6]",/,2500,3000,0,8,252.7587515,1024,2,48000,-16,main,"[(0, -252), (178, -178), (252, 0), (178, 178), (0, 252), (-178, 178), (-252, 0), (-178, -178)]",[],32,even,6,NA,240972,406932,406932,141403,140393,1884,159185,159185,1884,1884,148950,602907,1883,406932,601813,600987,600987,NA,817,study_X,0,7547,1,yes,1680
undefined,undefined,NA,NA,NA,7547,7547,black,no,legacy,legacy,legacy,0,green,"(0, 123, 0)",color,present,lowProb6,rectangular,swap,swap,swap,swap,red,"(177, 0, 0)",lowProb,lowProb1,rectangular,uniform,1,undefined,0,0.291666667,1,1,586.21875,1,56,112554,0,0,0,0,0,0,0,0,89,0,1,0.291666667,586.21875,56,112554,88,88,88,11/21/2018 14:09,Default description,yes,<openexp._canvas.legacy.legacy object at 0x04284090>,<openexp._canvas.legacy.legacy object at 0x0428D830>,<openexp._canvas.legacy.legacy object at 0x042D2370>,<openexp._canvas.legacy.legacy object at 0x042949B0>,<openexp._canvas.legacy.legacy object at 0x042D1050>,<openexp._canvas.legacy.legacy object at 0x042771D0>,<openexp._canvas.legacy.legacy object at 0x04283B90>,<openexp._canvas.legacy.legacy object at 0x0428D8B0>,75,C:/Userdata/Michel/SpatProbMultiple3,no,mono,no,18,no,white,no,yes,0.09,98,1050,legacy,45,63,63,1,C:/Userdata/Michel/SpatProbMultiple3/beh/subject-8.csv,legacy,12,192,25,Jazzy James,3.1.9,yes,598477b2b83f69022949e7e9,47,green,rectangular,red,rectangular,0,\,1517,space,7547,7547,"(80, 80, 80)","(0, 123, 0)","(177, 0, 0)","(155, 155, 155)",2,legacy,experiment,"[7, 0, 1, 2, 3, 4, 5, 6]",\,2500,3000,0,8,252.7587515,1024,2,48000,-16,main,"[(0, -252), (178, -178), (252, 0), (178, 178), (0, 252), (-178, 178), (-252, 0), (-178, -178)]",[],32,even,0,NA,240972,406932,406932,141403,140393,1884,159185,159185,1884,1884,148950,605691,1883,406932,604171,603345,603345,NA,817,study_X,0,7547,1,yes,1680
undefined,undefined,NA,NA,NA,7547,7547,black,no,legacy,legacy,legacy,0,green,"(0, 123, 0)",shape,present,lowProb6,rectangular,same,same,swap,swap,green,"(0, 123, 0)",lowProb,lowProb3,circular,uniform,0,undefined,0,0.291666667,1,1,599.2395833,1,56,115054,0,0,0,0,0,0,0,0,90,0,1,0.291666667,599.2395833,56,115054,89,89,89,11/21/2018 14:09,Default description,yes,<openexp._canvas.legacy.legacy object at 0x04284090>,<openexp._canvas.legacy.legacy object at 0x0428D830>,<openexp._canvas.legacy.legacy object at 0x042D2370>,<openexp._canvas.legacy.legacy object at 0x042949B0>,<openexp._canvas.legacy.legacy object at 0x042D1050>,<openexp._canvas.legacy.legacy object at 0x042771D0>,<openexp._canvas.legacy.legacy object at 0x0429E250>,<openexp._canvas.legacy.legacy object at 0x0428D8B0>,75,C:/Userdata/Michel/SpatProbMultiple3,no,mono,no,18,no,white,no,yes,0.09,98,1050,legacy,315,64,64,1,C:/Userdata/Michel/SpatProbMultiple3/beh/subject-8.csv,legacy,12,192,25,Jazzy James,3.1.9,yes,598477b2b83f69022949e7e9,47,green,rectangular,green,circular,0,None,2500,space,7547,7547,"(80, 80, 80)","(0, 123, 0)","(177, 0, 0)","(155, 155, 155)",2,legacy,experiment,"[7, 0, 1, 2, 3, 4, 5, 6]",/,2500,3000,0,8,252.7587515,1024,2,48000,-16,main,"[(0, -252), (178, -178), (252, 0), (178, 178), (0, 252), (-178, 178), (-252, 0), (-178, -178)]",[],32,even,2,NA,240972,406932,406932,141403,140393,1884,159185,159185,1884,1884,148950,609460,1883,406932,606957,606131,606131,NA,817,study_X,0,7547,1,yes,1680
undefined,undefined,NA,NA,NA,7547,7547,black,no,legacy,legacy,legacy,0,red,"(177, 0, 0)",color,present,highProb,rectangular,swap,same,same,swap,green,"(0, 123, 0)",lowProb,lowProb5,rectangular,uniform,1,undefined,0,0.296875,1,1,607.3020833,1,57,116602,0,0,0,0,0,0,0,0,91,0,1,0.296875,607.3020833,57,116602,90,90,90,11/21/2018 14:09,Default description,yes,<openexp._canvas.legacy.legacy object at 0x04284090>,<openexp._canvas.legacy.legacy object at 0x0428D830>,<openexp._canvas.legacy.legacy object at 0x042D2370>,<openexp._canvas.legacy.legacy object at 0x042949B0>,<openexp._canvas.legacy.legacy object at 0x042D1050>,<openexp._canvas.legacy.legacy object at 0x042771D0>,<openexp._canvas.legacy.legacy object at 0x04283B50>,<openexp._canvas.legacy.legacy object at 0x0428D8B0>,75,C:/Userdata/Michel/SpatProbMultiple3,no,mono,no,18,no,white,no,yes,0.09,98,1050,legacy,45,65,65,1,C:/Userdata/Michel/SpatProbMultiple3/beh/subject-8.csv,legacy,12,192,25,Jazzy James,3.1.9,yes,598477b2b83f69022949e7e9,47,red,rectangular,green,rectangular,0,\,1548,space,7547,7547,"(80, 80, 80)","(0, 123, 0)","(177, 0, 0)","(155, 155, 155)",2,legacy,experiment,"[7, 0, 1, 2, 3, 4, 5, 6]",\,2500,3000,0,8,252.7587515,1024,2,48000,-16,main,"[(0, -252), (178, -178), (252, 0), (178, 178), (0, 252), (-178, 178), (-252, 0), (-178, -178)]",[],32,even,5,NA,240972,406932,406932,141403,140393,1884,159185,159185,1884,1884,148950,612258,1883,406932,610707,609881,609881,NA,817,study_X,0,7547,1,yes,1680
