"acc","accuracy","average_response_time","avg_rt","background","bidi","canvas_backend","clock_backend","color_backend","compensation","cond_disColor","cond_disColorRGB","cond_disFeature","cond_disPresent","cond_disProbability","cond_disShape","cond_primingDisColor","cond_primingDisShape","cond_primingTarColor","cond_primingTarShape","cond_tarColor","cond_tarColorRGB","cond_tarLocation","cond_tarLocationLong","cond_tarShape","coordinates","correct","correct_continuePress","count_blockAcc","count_blockFeed","count_blockLoop","count_blockRT","count_blockSeq","count_blockSumCorrect","count_blockSumRT","count_continuePress","count_example","count_expSettings","count_exp_mainLoop","count_experiment","count_instructions","count_instructions1","count_instructions2","count_log","count_main","count_prepCanvas","count_totalAcc","count_totalRT","count_totalSumCorrect","count_totalSumRT","count_trialResp","count_trialSeq","count_trialTask","datetime","description","disable_garbage_collection","dispBlank","dispBlockStart","dispFeedBlock","dispFix","dispInstructions","dispSearch","dispStartScreen","distance2screen","experiment_file","experiment_path","font_bold","font_family","font_italic","font_size","font_underline","foreground","form_clicks","fullscreen","gaborFreq","gaborSize","height","keyboard_backend","lineOriTar","live_row","live_row_blockLoop","live_row_exp_mainLoop","logfile","mouse_backend","noExpBlocks","noExpTrials","noPracTrials","opensesame_codename","opensesame_version","osf_always_upload_experiment","osf_id","physical_screensize","previousDisColor","previousDisShape","previousTarColor","previousTarShape","repeat_cycle","response","responseTime","response_continuePress","response_time","response_time_continuePress","rgb_gray","rgb_green","rgb_red","rgb_white","round_decimals","sampler_backend","set_blockType","set_counterPositions","set_respCorrect","set_respTimeoutExp","set_respTimeoutPrac","set_rotation","set_setSize","sizeImaginary","sound_buf_size","sound_channels","sound_freq","sound_sample_size","start","stimPositions","stimuli","subject_nr","subject_parity","tarIdx","time_blockFeed","time_blockLoop","time_blockSeq","time_continuePress","time_example","time_expSettings","time_exp_mainLoop","time_experiment","time_instructions","time_instructions1","time_instructions2","time_log","time_main","time_prepCanvas","time_trialResp","time_trialSeq","time_trialTask","timing_EEGwait","timing_fix","title","total_correct","total_response_time","total_responses","uniform_coordinates","width"
"undefined","undefined","11253","11253","black","no","legacy","legacy","legacy","0","red","(179, 0, 0)","shape","present","lowProb4","circular","swap","swap","same","same","red","(179, 0, 0)","lowProb","lowProb2","rectangular","uniform","1","undefined","0.00520833333333","1","1","4.08854166667","1","1","785","0","0","0","0","0","0","0","0","25","0","1","0.00520833333333","4.08854166667","1","785","25","25","25","08/10/17 12:52:42","Default description","yes","<openexp._canvas.legacy.legacy object at 0x048B77F0>","<openexp._canvas.legacy.legacy object at 0x048C37B0>","<openexp._canvas.legacy.legacy object at 0x048AF410>","<openexp._canvas.legacy.legacy object at 0x049A59D0>","<openexp._canvas.legacy.legacy object at 0x049764B0>","<openexp._canvas.legacy.legacy object at 0x048B3550>","<openexp._canvas.legacy.legacy object at 0x04977A50>","75","IndividualPriorityWithDis_v1.osexp","C:/Userdata/Michel/SpatialProb/IndividualPriorityMaps/Experiment2","no","mono","no","18","no","white","no","yes","0.09","98","1050","legacy","315","0","0","1","C:/Userdata/Michel/SpatialProb/IndividualPriorityMaps/Experiment2/data/subject-2.csv","legacy","9","192","25","Jazzy James","3.1.3","yes","598477b2b83f69022949e7e9","47","red","circular","red","rectangular","0","/","785","space","11253","11253","(80, 80, 80)","(0, 122, 0)","(179, 0, 0)","(155, 155, 155)","2","legacy","experiment","[1, 2, 3, 4, 5, 6, 7, 0]","/","2500","3000","0","8","252.758751519","1024","2","48000","-16","main","[(0, -252), (178, -178), (252, 0), (178, 178), (0, 252), (-178, 178), (-252, 0), (-178, -178)]","[]","2","even","3","809188","880117","880117","716277","715269","1746","734369","734369","1746","1746","727530","887129","1745","880117","886340","880512","880512","NA","752","study_X","0","11253","1","yes","1680"
"undefined","undefined","11253","11253","black","no","legacy","legacy","legacy","0","green","(0, 122, 0)","shape","present","highProb","circular","swap","same","swap","same","green","(0, 122, 0)","lowProb","lowProb5","rectangular","uniform","1","undefined","0.0104166666667","1","1","8.47395833333","1","2","1627","0","0","0","0","0","0","0","0","26","0","1","0.0104166666667","8.47395833333","2","1627","26","26","26","08/10/17 12:52:42","Default description","yes","<openexp._canvas.legacy.legacy object at 0x048B77F0>","<openexp._canvas.legacy.legacy object at 0x048C37B0>","<openexp._canvas.legacy.legacy object at 0x048AF410>","<openexp._canvas.legacy.legacy object at 0x049A59D0>","<openexp._canvas.legacy.legacy object at 0x049764B0>","<openexp._canvas.legacy.legacy object at 0x048C3FB0>","<openexp._canvas.legacy.legacy object at 0x04977A50>","75","IndividualPriorityWithDis_v1.osexp","C:/Userdata/Michel/SpatialProb/IndividualPriorityMaps/Experiment2","no","mono","no","18","no","white","no","yes","0.09","98","1050","legacy","45","1","1","1","C:/Userdata/Michel/SpatialProb/IndividualPriorityMaps/Experiment2/data/subject-2.csv","legacy","9","192","25","Jazzy James","3.1.3","yes","598477b2b83f69022949e7e9","47","green","circular","green","rectangular","0","\","842","space","11253","11253","(80, 80, 80)","(0, 122, 0)","(179, 0, 0)","(155, 155, 155)","2","legacy","experiment","[1, 2, 3, 4, 5, 6, 7, 0]","\","2500","3000","0","8","252.758751519","1024","2","48000","-16","main","[(0, -252), (178, -178), (252, 0), (178, 178), (0, 252), (-178, 178), (-252, 0), (-178, -178)]","[]","2","even","7","809188","880117","880117","716277","715269","1746","734369","734369","1746","1746","727530","889169","1745","880117","888323","887565","887565","NA","752","study_X","0","11253","1","yes","1680"
"undefined","undefined","11253","11253","black","no","legacy","legacy","legacy","0","green","(0, 122, 0)","color","absent","lowProb3","circular","same","same","same","swap","green","(0, 122, 0)","lowProb","lowProb1","circular","uniform","1","undefined","0.015625","1","1","12.859375","1","3","2469","0","0","0","0","0","0","0","0","27","0","1","0.015625","12.859375","3","2469","27","27","27","08/10/17 12:52:42","Default description","yes","<openexp._canvas.legacy.legacy object at 0x048B77F0>","<openexp._canvas.legacy.legacy object at 0x048C37B0>","<openexp._canvas.legacy.legacy object at 0x048AF410>","<openexp._canvas.legacy.legacy object at 0x049A59D0>","<openexp._canvas.legacy.legacy object at 0x049764B0>","<openexp._canvas.legacy.legacy object at 0x048B4950>","<openexp._canvas.legacy.legacy object at 0x04977A50>","75","IndividualPriorityWithDis_v1.osexp","C:/Userdata/Michel/SpatialProb/IndividualPriorityMaps/Experiment2","no","mono","no","18","no","white","no","yes","0.09","98","1050","legacy","315","2","2","1","C:/Userdata/Michel/SpatialProb/IndividualPriorityMaps/Experiment2/data/subject-2.csv","legacy","9","192","25","Jazzy James","3.1.3","yes","598477b2b83f69022949e7e9","47","green","circular","green","circular","0","/","842","space","11253","11253","(80, 80, 80)","(0, 122, 0)","(179, 0, 0)","(155, 155, 155)","2","legacy","experiment","[1, 2, 3, 4, 5, 6, 7, 0]","/","2500","3000","0","8","252.758751519","1024","2","48000","-16","main","[(0, -252), (178, -178), (252, 0), (178, 178), (0, 252), (-178, 178), (-252, 0), (-178, -178)]","[]","2","even","2","809188","880117","880117","716277","715269","1746","734369","734369","1746","1746","727530","891201","1745","880117","890355","889598","889598","NA","752","study_X","0","11253","1","yes","1680"
"undefined","undefined","11253","11253","black","no","legacy","legacy","legacy","0","green","(0, 122, 0)","color","present","highProb","circular","same","same","swap","same","red","(179, 0, 0)","lowProb","lowProb4","circular","uniform","1","undefined","0.0208333333333","1","1","17.7291666667","1","4","3404","0","0","0","0","0","0","0","0","28","0","1","0.0208333333333","17.7291666667","4","3404","28","28","28","08/10/17 12:52:42","Default description","yes","<openexp._canvas.legacy.legacy object at 0x048B77F0>","<openexp._canvas.legacy.legacy object at 0x048C37B0>","<openexp._canvas.legacy.legacy object at 0x048AF410>","<openexp._canvas.legacy.legacy object at 0x049A59D0>","<openexp._canvas.legacy.legacy object at 0x049764B0>","<openexp._canvas.legacy.legacy object at 0x048AF250>","<openexp._canvas.legacy.legacy object at 0x04977A50>","75","IndividualPriorityWithDis_v1.osexp","C:/Userdata/Michel/SpatialProb/IndividualPriorityMaps/Experiment2","no","mono","no","18","no","white","no","yes","0.09","98","1050","legacy","315","3","3","1","C:/Userdata/Michel/SpatialProb/IndividualPriorityMaps/Experiment2/data/subject-2.csv","legacy","9","192","25","Jazzy James","3.1.3","yes","598477b2b83f69022949e7e9","47","green","circular","red","circular","0","/","935","space","11253","11253","(80, 80, 80)","(0, 122, 0)","(179, 0, 0)","(155, 155, 155)","2","legacy","experiment","[1, 2, 3, 4, 5, 6, 7, 0]","/","2500","3000","0","8","252.758751519","1024","2","48000","-16","main","[(0, -252), (178, -178), (252, 0), (178, 178), (0, 252), (-178, 178), (-252, 0), (-178, -178)]","[]","2","even","6","809188","880117","880117","716277","715269","1746","734369","734369","1746","1746","727530","893320","1745","880117","892383","891625","891625","NA","752","study_X","0","11253","1","yes","1680"
"undefined","undefined","11253","11253","black","no","legacy","legacy","legacy","0","green","(0, 122, 0)","shape","present","highProb","circular","same","same","swap","swap","green","(0, 122, 0)","lowProb","lowProb2","rectangular","uniform","1","undefined","0.0260416666667","1","1","23.5572916667","1","5","4523","0","0","0","0","0","0","0","0","29","0","1","0.0260416666667","23.5572916667","5","4523","29","29","29","08/10/17 12:52:42","Default description","yes","<openexp._canvas.legacy.legacy object at 0x048B77F0>","<openexp._canvas.legacy.legacy object at 0x048C37B0>","<openexp._canvas.legacy.legacy object at 0x048AF410>","<openexp._canvas.legacy.legacy object at 0x049A59D0>","<openexp._canvas.legacy.legacy object at 0x049764B0>","<openexp._canvas.legacy.legacy object at 0x048B4F50>","<openexp._canvas.legacy.legacy object at 0x04977A50>","75","IndividualPriorityWithDis_v1.osexp","C:/Userdata/Michel/SpatialProb/IndividualPriorityMaps/Experiment2","no","mono","no","18","no","white","no","yes","0.09","98","1050","legacy","315","4","4","1","C:/Userdata/Michel/SpatialProb/IndividualPriorityMaps/Experiment2/data/subject-2.csv","legacy","9","192","25","Jazzy James","3.1.3","yes","598477b2b83f69022949e7e9","47","green","circular","green","rectangular","0","/","1119","space","11253","11253","(80, 80, 80)","(0, 122, 0)","(179, 0, 0)","(155, 155, 155)","2","legacy","experiment","[1, 2, 3, 4, 5, 6, 7, 0]","/","2500","3000","0","8","252.758751519","1024","2","48000","-16","main","[(0, -252), (178, -178), (252, 0), (178, 178), (0, 252), (-178, 178), (-252, 0), (-178, -178)]","[]","2","even","3","809188","880117","880117","716277","715269","1746","734369","734369","1746","1746","727530","895624","1745","880117","894502","893744","893744","NA","752","study_X","0","11253","1","yes","1680"
"undefined","undefined","11253","11253","black","no","legacy","legacy","legacy","0","green","(0, 122, 0)","color","present","highProb","circular","same","same","swap","swap","red","(179, 0, 0)","highProbShape","highProbShape","circular","uniform","1","undefined","0.03125","1","1","29.0520833333","1","6","5578","0","0","0","0","0","0","0","0","30","0","1","0.03125","29.0520833333","6","5578","30","30","30","08/10/17 12:52:42","Default description","yes","<openexp._canvas.legacy.legacy object at 0x048B77F0>","<openexp._canvas.legacy.legacy object at 0x048C37B0>","<openexp._canvas.legacy.legacy object at 0x048AF410>","<openexp._canvas.legacy.legacy object at 0x049A59D0>","<openexp._canvas.legacy.legacy object at 0x049764B0>","<openexp._canvas.legacy.legacy object at 0x049A52B0>","<openexp._canvas.legacy.legacy object at 0x04977A50>","75","IndividualPriorityWithDis_v1.osexp","C:/Userdata/Michel/SpatialProb/IndividualPriorityMaps/Experiment2","no","mono","no","18","no","white","no","yes","0.09","98","1050","legacy","45","5","5","1","C:/Userdata/Michel/SpatialProb/IndividualPriorityMaps/Experiment2/data/subject-2.csv","legacy","9","192","25","Jazzy James","3.1.3","yes","598477b2b83f69022949e7e9","47","green","circular","red","circular","0","\","1055","space","11253","11253","(80, 80, 80)","(0, 122, 0)","(179, 0, 0)","(155, 155, 155)","2","legacy","experiment","[1, 2, 3, 4, 5, 6, 7, 0]","\","2500","3000","0","8","252.758751519","1024","2","48000","-16","main","[(0, -252), (178, -178), (252, 0), (178, 178), (0, 252), (-178, 178), (-252, 0), (-178, -178)]","[]","2","even","5","809188","880117","880117","716277","715269","1746","734369","734369","1746","1746","727530","897888","1745","880117","896830","896073","896073","NA","752","study_X","0","11253","1","yes","1680"
"undefined","undefined","11253","11253","black","no","legacy","legacy","legacy","0","red","(179, 0, 0)","color","absent","lowProb5","rectangular","swap","swap","same","swap","red","(179, 0, 0)","lowProb","lowProb5","rectangular","uniform","1","undefined","0.0364583333333","1","1","34.71875","1","7","6666","0","0","0","0","0","0","0","0","31","0","1","0.0364583333333","34.71875","7","6666","31","31","31","08/10/17 12:52:42","Default description","yes","<openexp._canvas.legacy.legacy object at 0x048B77F0>","<openexp._canvas.legacy.legacy object at 0x048C37B0>","<openexp._canvas.legacy.legacy object at 0x048AF410>","<openexp._canvas.legacy.legacy object at 0x049A59D0>","<openexp._canvas.legacy.legacy object at 0x049764B0>","<openexp._canvas.legacy.legacy object at 0x048AFED0>","<openexp._canvas.legacy.legacy object at 0x04977A50>","75","IndividualPriorityWithDis_v1.osexp","C:/Userdata/Michel/SpatialProb/IndividualPriorityMaps/Experiment2","no","mono","no","18","no","white","no","yes","0.09","98","1050","legacy","315","6","6","1","C:/Userdata/Michel/SpatialProb/IndividualPriorityMaps/Experiment2/data/subject-2.csv","legacy","9","192","25","Jazzy James","3.1.3","yes","598477b2b83f69022949e7e9","47","red","rectangular","red","rectangular","0","/","1088","space","11253","11253","(80, 80, 80)","(0, 122, 0)","(179, 0, 0)","(155, 155, 155)","2","legacy","experiment","[1, 2, 3, 4, 5, 6, 7, 0]","/","2500","3000","0","8","252.758751519","1024","2","48000","-16","main","[(0, -252), (178, -178), (252, 0), (178, 178), (0, 252), (-178, 178), (-252, 0), (-178, -178)]","[]","2","even","7","809188","880117","880117","716277","715269","1746","734369","734369","1746","1746","727530","900145","1745","880117","899054","898296","898296","NA","752","study_X","0","11253","1","yes","1680"
"undefined","undefined","11253","11253","black","no","legacy","legacy","legacy","0","red","(179, 0, 0)","color","absent","highProbOther","circular","same","swap","same","swap","red","(179, 0, 0)","lowProb","lowProb4","circular","uniform","1","undefined","0.0416666666667","1","1","39.6354166667","1","8","7610","0","0","0","0","0","0","0","0","32","0","1","0.0416666666667","39.6354166667","8","7610","32","32","32","08/10/17 12:52:42","Default description","yes","<openexp._canvas.legacy.legacy object at 0x048B77F0>","<openexp._canvas.legacy.legacy object at 0x048C37B0>","<openexp._canvas.legacy.legacy object at 0x048AF410>","<openexp._canvas.legacy.legacy object at 0x049A59D0>","<openexp._canvas.legacy.legacy object at 0x049764B0>","<openexp._canvas.legacy.legacy object at 0x048B3550>","<openexp._canvas.legacy.legacy object at 0x04977A50>","75","IndividualPriorityWithDis_v1.osexp","C:/Userdata/Michel/SpatialProb/IndividualPriorityMaps/Experiment2","no","mono","no","18","no","white","no","yes","0.09","98","1050","legacy","315","7","7","1","C:/Userdata/Michel/SpatialProb/IndividualPriorityMaps/Experiment2/data/subject-2.csv","legacy","9","192","25","Jazzy James","3.1.3","yes","598477b2b83f69022949e7e9","47","red","circular","red","circular","0","/","944","space","11253","11253","(80, 80, 80)","(0, 122, 0)","(179, 0, 0)","(155, 155, 155)","2","legacy","experiment","[1, 2, 3, 4, 5, 6, 7, 0]","/","2500","3000","0","8","252.758751519","1024","2","48000","-16","main","[(0, -252), (178, -178), (252, 0), (178, 178), (0, 252), (-178, 178), (-252, 0), (-178, -178)]","[]","2","even","6","809188","880117","880117","716277","715269","1746","734369","734369","1746","1746","727530","902273","1745","880117","901326","900568","900568","NA","752","study_X","0","11253","1","yes","1680"
"undefined","undefined","11253","11253","black","no","legacy","legacy","legacy","0","red","(179, 0, 0)","color","absent","lowProb1","circular","same","same","same","same","red","(179, 0, 0)","lowProb","lowProb5","circular","uniform","1","undefined","0.046875","1","1","45.0260416667","1","9","8645","0","0","0","0","0","0","0","0","33","0","1","0.046875","45.0260416667","9","8645","33","33","33","08/10/17 12:52:42","Default description","yes","<openexp._canvas.legacy.legacy object at 0x048B77F0>","<openexp._canvas.legacy.legacy object at 0x048C37B0>","<openexp._canvas.legacy.legacy object at 0x048AF410>","<openexp._canvas.legacy.legacy object at 0x049A59D0>","<openexp._canvas.legacy.legacy object at 0x049764B0>","<openexp._canvas.legacy.legacy object at 0x049A5AB0>","<openexp._canvas.legacy.legacy object at 0x04977A50>","75","IndividualPriorityWithDis_v1.osexp","C:/Userdata/Michel/SpatialProb/IndividualPriorityMaps/Experiment2","no","mono","no","18","no","white","no","yes","0.09","98","1050","legacy","315","8","8","1","C:/Userdata/Michel/SpatialProb/IndividualPriorityMaps/Experiment2/data/subject-2.csv","legacy","9","192","25","Jazzy James","3.1.3","yes","598477b2b83f69022949e7e9","47","red","circular","red","circular","0","/","1035","space","11253","11253","(80, 80, 80)","(0, 122, 0)","(179, 0, 0)","(155, 155, 155)","2","legacy","experiment","[1, 2, 3, 4, 5, 6, 7, 0]","/","2500","3000","0","8","252.758751519","1024","2","48000","-16","main","[(0, -252), (178, -178), (252, 0), (178, 178), (0, 252), (-178, 178), (-252, 0), (-178, -178)]","[]","2","even","7","809188","880117","880117","716277","715269","1746","734369","734369","1746","1746","727530","904521","1745","880117","903482","902724","902724","NA","752","study_X","0","11253","1","yes","1680"
"undefined","undefined","11253","11253","black","no","legacy","legacy","legacy","0","green","(0, 122, 0)","shape","present","highProb","rectangular","swap","swap","swap","same","green","(0, 122, 0)","highProbColor","highProbColor","circular","uniform","0","undefined","0.046875","1","1","53.6197916667","1","9","10295","0","0","0","0","0","0","0","0","34","0","1","0.046875","53.6197916667","9","10295","34","34","34","08/10/17 12:52:42","Default description","yes","<openexp._canvas.legacy.legacy object at 0x048B77F0>","<openexp._canvas.legacy.legacy object at 0x048C37B0>","<openexp._canvas.legacy.legacy object at 0x048AF410>","<openexp._canvas.legacy.legacy object at 0x049A59D0>","<openexp._canvas.legacy.legacy object at 0x049764B0>","<openexp._canvas.legacy.legacy object at 0x049A5250>","<openexp._canvas.legacy.legacy object at 0x04977A50>","75","IndividualPriorityWithDis_v1.osexp","C:/Userdata/Michel/SpatialProb/IndividualPriorityMaps/Experiment2","no","mono","no","18","no","white","no","yes","0.09","98","1050","legacy","45","9","9","1","C:/Userdata/Michel/SpatialProb/IndividualPriorityMaps/Experiment2/data/subject-2.csv","legacy","9","192","25","Jazzy James","3.1.3","yes","598477b2b83f69022949e7e9","47","green","rectangular","green","circular","0","/","1650","space","11253","11253","(80, 80, 80)","(0, 122, 0)","(179, 0, 0)","(155, 155, 155)","2","legacy","experiment","[1, 2, 3, 4, 5, 6, 7, 0]","\","2500","3000","0","8","252.758751519","1024","2","48000","-16","main","[(0, -252), (178, -178), (252, 0), (178, 178), (0, 252), (-178, 178), (-252, 0), (-178, -178)]","[]","2","even","1","809188","880117","880117","716277","715269","1746","734369","734369","1746","1746","727530","907360","1745","880117","905707","904949","904949","NA","752","study_X","0","11253","1","yes","1680"
"undefined","undefined","11253","11253","black","no","legacy","legacy","legacy","0","green","(0, 122, 0)","color","present","highProb","circular","same","swap","swap","same","red","(179, 0, 0)","highProbShape","highProbShape","circular","uniform","1","undefined","0.0520833333333","1","1","60.8333333333","1","10","11680","0","0","0","0","0","0","0","0","35","0","1","0.0520833333333","60.8333333333","10","11680","35","35","35","08/10/17 12:52:42","Default description","yes","<openexp._canvas.legacy.legacy object at 0x048B77F0>","<openexp._canvas.legacy.legacy object at 0x048C37B0>","<openexp._canvas.legacy.legacy object at 0x048AF410>","<openexp._canvas.legacy.legacy object at 0x049A59D0>","<openexp._canvas.legacy.legacy object at 0x049764B0>","<openexp._canvas.legacy.legacy object at 0x048AF790>","<openexp._canvas.legacy.legacy object at 0x04977A50>","75","IndividualPriorityWithDis_v1.osexp","C:/Userdata/Michel/SpatialProb/IndividualPriorityMaps/Experiment2","no","mono","no","18","no","white","no","yes","0.09","98","1050","legacy","45","10","10","1","C:/Userdata/Michel/SpatialProb/IndividualPriorityMaps/Experiment2/data/subject-2.csv","legacy","9","192","25","Jazzy James","3.1.3","yes","598477b2b83f69022949e7e9","47","green","circular","red","circular","0","\","1385","space","11253","11253","(80, 80, 80)","(0, 122, 0)","(179, 0, 0)","(155, 155, 155)","2","legacy","experiment","[1, 2, 3, 4, 5, 6, 7, 0]","\","2500","3000","0","8","252.758751519","1024","2","48000","-16","main","[(0, -252), (178, -178), (252, 0), (178, 178), (0, 252), (-178, 178), (-252, 0), (-178, -178)]","[]","2","even","5","809188","880117","880117","716277","715269","1746","734369","734369","1746","1746","727530","909936","1745","880117","908548","907790","907790","NA","752","study_X","0","11253","1","yes","1680"
"undefined","undefined","11253","11253","black","no","legacy","legacy","legacy","0","green","(0, 122, 0)","color","absent","lowProb3","rectangular","same","swap","swap","swap","green","(0, 122, 0)","lowProb","lowProb6","rectangular","uniform","1","undefined","0.0572916666667","1","1","67.6302083333","1","11","12985","0","0","0","0","0","0","0","0","36","0","1","0.0572916666667","67.6302083333","11","12985","36","36","36","08/10/17 12:52:42","Default description","yes","<openexp._canvas.legacy.legacy object at 0x048B77F0>","<openexp._canvas.legacy.legacy object at 0x048C37B0>","<openexp._canvas.legacy.legacy object at 0x048AF410>","<openexp._canvas.legacy.legacy object at 0x049A59D0>","<openexp._canvas.legacy.legacy object at 0x049764B0>","<openexp._canvas.legacy.legacy object at 0x048AFC90>","<openexp._canvas.legacy.legacy object at 0x04977A50>","75","IndividualPriorityWithDis_v1.osexp","C:/Userdata/Michel/SpatialProb/IndividualPriorityMaps/Experiment2","no","mono","no","18","no","white","no","yes","0.09","98","1050","legacy","315","11","11","1","C:/Userdata/Michel/SpatialProb/IndividualPriorityMaps/Experiment2/data/subject-2.csv","legacy","9","192","25","Jazzy James","3.1.3","yes","598477b2b83f69022949e7e9","47","green","rectangular","green","rectangular","0","/","1305","space","11253","11253","(80, 80, 80)","(0, 122, 0)","(179, 0, 0)","(155, 155, 155)","2","legacy","experiment","[1, 2, 3, 4, 5, 6, 7, 0]","/","2500","3000","0","8","252.758751519","1024","2","48000","-16","main","[(0, -252), (178, -178), (252, 0), (178, 178), (0, 252), (-178, 178), (-252, 0), (-178, -178)]","[]","2","even","0","809188","880117","880117","716277","715269","1746","734369","734369","1746","1746","727530","912416","1745","880117","911109","910352","910352","NA","752","study_X","0","11253","1","yes","1680"
"undefined","undefined","11253","11253","black","no","legacy","legacy","legacy","0","green","(0, 122, 0)","color","present","highProb","circular","same","swap","swap","swap","red","(179, 0, 0)","lowProb","lowProb4","circular","uniform","1","undefined","0.0625","1","1","72.1145833333","1","12","13846","0","0","0","0","0","0","0","0","37","0","1","0.0625","72.1145833333","12","13846","37","37","37","08/10/17 12:52:42","Default description","yes","<openexp._canvas.legacy.legacy object at 0x048B77F0>","<openexp._canvas.legacy.legacy object at 0x048C37B0>","<openexp._canvas.legacy.legacy object at 0x048AF410>","<openexp._canvas.legacy.legacy object at 0x049A59D0>","<openexp._canvas.legacy.legacy object at 0x049764B0>","<openexp._canvas.legacy.legacy object at 0x049A58B0>","<openexp._canvas.legacy.legacy object at 0x04977A50>","75","IndividualPriorityWithDis_v1.osexp","C:/Userdata/Michel/SpatialProb/IndividualPriorityMaps/Experiment2","no","mono","no","18","no","white","no","yes","0.09","98","1050","legacy","315","12","12","1","C:/Userdata/Michel/SpatialProb/IndividualPriorityMaps/Experiment2/data/subject-2.csv","legacy","9","192","25","Jazzy James","3.1.3","yes","598477b2b83f69022949e7e9","47","green","circular","red","circular","0","/","861","space","11253","11253","(80, 80, 80)","(0, 122, 0)","(179, 0, 0)","(155, 155, 155)","2","legacy","experiment","[1, 2, 3, 4, 5, 6, 7, 0]","/","2500","3000","0","8","252.758751519","1024","2","48000","-16","main","[(0, -252), (178, -178), (252, 0), (178, 178), (0, 252), (-178, 178), (-252, 0), (-178, -178)]","[]","2","even","6","809188","880117","880117","716277","715269","1746","734369","734369","1746","1746","727530","914488","1745","880117","913624","912866","912866","NA","752","study_X","0","11253","1","yes","1680"
"undefined","undefined","11253","11253","black","no","legacy","legacy","legacy","0","green","(0, 122, 0)","shape","present","lowProb5","circular","same","same","swap","swap","green","(0, 122, 0)","highProbColor","highProbColor","rectangular","uniform","1","undefined","0.0677083333333","1","1","76.8854166667","1","13","14762","0","0","0","0","0","0","0","0","38","0","1","0.0677083333333","76.8854166667","13","14762","38","38","38","08/10/17 12:52:42","Default description","yes","<openexp._canvas.legacy.legacy object at 0x048B77F0>","<openexp._canvas.legacy.legacy object at 0x048C37B0>","<openexp._canvas.legacy.legacy object at 0x048AF410>","<openexp._canvas.legacy.legacy object at 0x049A59D0>","<openexp._canvas.legacy.legacy object at 0x049764B0>","<openexp._canvas.legacy.legacy object at 0x048C3990>","<openexp._canvas.legacy.legacy object at 0x04977A50>","75","IndividualPriorityWithDis_v1.osexp","C:/Userdata/Michel/SpatialProb/IndividualPriorityMaps/Experiment2","no","mono","no","18","no","white","no","yes","0.09","98","1050","legacy","45","13","13","1","C:/Userdata/Michel/SpatialProb/IndividualPriorityMaps/Experiment2/data/subject-2.csv","legacy","9","192","25","Jazzy James","3.1.3","yes","598477b2b83f69022949e7e9","47","green","circular","green","rectangular","0","\","916","space","11253","11253","(80, 80, 80)","(0, 122, 0)","(179, 0, 0)","(155, 155, 155)","2","legacy","experiment","[1, 2, 3, 4, 5, 6, 7, 0]","\","2500","3000","0","8","252.758751519","1024","2","48000","-16","main","[(0, -252), (178, -178), (252, 0), (178, 178), (0, 252), (-178, 178), (-252, 0), (-178, -178)]","[]","2","even","1","809188","880117","880117","716277","715269","1746","734369","734369","1746","1746","727530","916585","1745","880117","915665","914907","914907","NA","752","study_X","0","11253","1","yes","1680"
"undefined","undefined","11253","11253","black","no","legacy","legacy","legacy","0","red","(179, 0, 0)","shape","present","highProb","rectangular","swap","swap","swap","swap","red","(179, 0, 0)","lowProb","lowProb4","circular","uniform","1","undefined","0.0729166666667","1","1","83.71875","1","14","16074","0","0","0","0","0","0","0","0","39","0","1","0.0729166666667","83.71875","14","16074","39","39","39","08/10/17 12:52:42","Default description","yes","<openexp._canvas.legacy.legacy object at 0x048B77F0>","<openexp._canvas.legacy.legacy object at 0x048C37B0>","<openexp._canvas.legacy.legacy object at 0x048AF410>","<openexp._canvas.legacy.legacy object at 0x049A59D0>","<openexp._canvas.legacy.legacy object at 0x049764B0>","<openexp._canvas.legacy.legacy object at 0x049A0B10>","<openexp._canvas.legacy.legacy object at 0x04977A50>","75","IndividualPriorityWithDis_v1.osexp","C:/Userdata/Michel/SpatialProb/IndividualPriorityMaps/Experiment2","no","mono","no","18","no","white","no","yes","0.09","98","1050","legacy","315","14","14","1","C:/Userdata/Michel/SpatialProb/IndividualPriorityMaps/Experiment2/data/subject-2.csv","legacy","9","192","25","Jazzy James","3.1.3","yes","598477b2b83f69022949e7e9","47","red","rectangular","red","circular","0","/","1312","space","11253","11253","(80, 80, 80)","(0, 122, 0)","(179, 0, 0)","(155, 155, 155)","2","legacy","experiment","[1, 2, 3, 4, 5, 6, 7, 0]","/","2500","3000","0","8","252.758751519","1024","2","48000","-16","main","[(0, -252), (178, -178), (252, 0), (178, 178), (0, 252), (-178, 178), (-252, 0), (-178, -178)]","[]","2","even","6","809188","880117","880117","716277","715269","1746","734369","734369","1746","1746","727530","919137","1745","880117","917822","917065","917065","NA","752","study_X","0","11253","1","yes","1680"
"undefined","undefined","11253","11253","black","no","legacy","legacy","legacy","0","red","(179, 0, 0)","shape","absent","lowProb5","rectangular","same","same","same","swap","red","(179, 0, 0)","lowProb","lowProb5","rectangular","uniform","1","undefined","0.078125","1","1","88.75","1","15","17040","0","0","0","0","0","0","0","0","40","0","1","0.078125","88.75","15","17040","40","40","40","08/10/17 12:52:42","Default description","yes","<openexp._canvas.legacy.legacy object at 0x048B77F0>","<openexp._canvas.legacy.legacy object at 0x048C37B0>","<openexp._canvas.legacy.legacy object at 0x048AF410>","<openexp._canvas.legacy.legacy object at 0x049A59D0>","<openexp._canvas.legacy.legacy object at 0x049764B0>","<openexp._canvas.legacy.legacy object at 0x048B3CF0>","<openexp._canvas.legacy.legacy object at 0x04977A50>","75","IndividualPriorityWithDis_v1.osexp","C:/Userdata/Michel/SpatialProb/IndividualPriorityMaps/Experiment2","no","mono","no","18","no","white","no","yes","0.09","98","1050","legacy","315","15","15","1","C:/Userdata/Michel/SpatialProb/IndividualPriorityMaps/Experiment2/data/subject-2.csv","legacy","9","192","25","Jazzy James","3.1.3","yes","598477b2b83f69022949e7e9","47","red","rectangular","red","rectangular","0","/","966","space","11253","11253","(80, 80, 80)","(0, 122, 0)","(179, 0, 0)","(155, 155, 155)","2","legacy","experiment","[1, 2, 3, 4, 5, 6, 7, 0]","/","2500","3000","0","8","252.758751519","1024","2","48000","-16","main","[(0, -252), (178, -178), (252, 0), (178, 178), (0, 252), (-178, 178), (-252, 0), (-178, -178)]","[]","2","even","7","809188","880117","880117","716277","715269","1746","734369","734369","1746","1746","727530","921305","1745","880117","920335","919577","919577","NA","752","study_X","0","11253","1","yes","1680"
"undefined","undefined","11253","11253","black","no","legacy","legacy","legacy","0","green","(0, 122, 0)","shape","absent","lowProb1","rectangular","swap","same","swap","same","green","(0, 122, 0)","highProbShape","highProbShape","rectangular","uniform","1","undefined","0.0833333333333","1","1","93.8333333333","1","16","18016","0","0","0","0","0","0","0","0","41","0","1","0.0833333333333","93.8333333333","16","18016","41","41","41","08/10/17 12:52:42","Default description","yes","<openexp._canvas.legacy.legacy object at 0x048B77F0>","<openexp._canvas.legacy.legacy object at 0x048C37B0>","<openexp._canvas.legacy.legacy object at 0x048AF410>","<openexp._canvas.legacy.legacy object at 0x049A59D0>","<openexp._canvas.legacy.legacy object at 0x049764B0>","<openexp._canvas.legacy.legacy object at 0x048B3490>","<openexp._canvas.legacy.legacy object at 0x04977A50>","75","IndividualPriorityWithDis_v1.osexp","C:/Userdata/Michel/SpatialProb/IndividualPriorityMaps/Experiment2","no","mono","no","18","no","white","no","yes","0.09","98","1050","legacy","315","16","16","1","C:/Userdata/Michel/SpatialProb/IndividualPriorityMaps/Experiment2/data/subject-2.csv","legacy","9","192","25","Jazzy James","3.1.3","yes","598477b2b83f69022949e7e9","47","green","rectangular","green","rectangular","0","/","976","space","11253","11253","(80, 80, 80)","(0, 122, 0)","(179, 0, 0)","(155, 155, 155)","2","legacy","experiment","[1, 2, 3, 4, 5, 6, 7, 0]","/","2500","3000","0","8","252.758751519","1024","2","48000","-16","main","[(0, -252), (178, -178), (252, 0), (178, 178), (0, 252), (-178, 178), (-252, 0), (-178, -178)]","[]","2","even","5","809188","880117","880117","716277","715269","1746","734369","734369","1746","1746","727530","923456","1745","880117","922477","921720","921720","NA","752","study_X","0","11253","1","yes","1680"
"undefined","undefined","11253","11253","black","no","legacy","legacy","legacy","0","green","(0, 122, 0)","color","present","highProb","rectangular","same","same","swap","same","red","(179, 0, 0)","lowProb","lowProb5","rectangular","uniform","1","undefined","0.0885416666667","1","1","99.375","1","17","19080","0","0","0","0","0","0","0","0","42","0","1","0.0885416666667","99.375","17","19080","42","42","42","08/10/17 12:52:42","Default description","yes","<openexp._canvas.legacy.legacy object at 0x048B77F0>","<openexp._canvas.legacy.legacy object at 0x048C37B0>","<openexp._canvas.legacy.legacy object at 0x048AF410>","<openexp._canvas.legacy.legacy object at 0x049A59D0>","<openexp._canvas.legacy.legacy object at 0x049764B0>","<openexp._canvas.legacy.legacy object at 0x048C3930>","<openexp._canvas.legacy.legacy object at 0x04977A50>","75","IndividualPriorityWithDis_v1.osexp","C:/Userdata/Michel/SpatialProb/IndividualPriorityMaps/Experiment2","no","mono","no","18","no","white","no","yes","0.09","98","1050","legacy","315","17","17","1","C:/Userdata/Michel/SpatialProb/IndividualPriorityMaps/Experiment2/data/subject-2.csv","legacy","9","192","25","Jazzy James","3.1.3","yes","598477b2b83f69022949e7e9","47","green","rectangular","red","rectangular","0","/","1064","space","11253","11253","(80, 80, 80)","(0, 122, 0)","(179, 0, 0)","(155, 155, 155)","2","legacy","experiment","[1, 2, 3, 4, 5, 6, 7, 0]","/","2500","3000","0","8","252.758751519","1024","2","48000","-16","main","[(0, -252), (178, -178), (252, 0), (178, 178), (0, 252), (-178, 178), (-252, 0), (-178, -178)]","[]","2","even","7","809188","880117","880117","716277","715269","1746","734369","734369","1746","1746","727530","925696","1745","880117","924629","923871","923871","NA","752","study_X","0","11253","1","yes","1680"
"undefined","undefined","11253","11253","black","no","legacy","legacy","legacy","0","green","(0, 122, 0)","color","present","highProb","rectangular","same","same","same","same","red","(179, 0, 0)","lowProb","lowProb5","rectangular","uniform","1","undefined","0.09375","1","1","103.96875","1","18","19962","0","0","0","0","0","0","0","0","43","0","1","0.09375","103.96875","18","19962","43","43","43","08/10/17 12:52:42","Default description","yes","<openexp._canvas.legacy.legacy object at 0x048B77F0>","<openexp._canvas.legacy.legacy object at 0x048C37B0>","<openexp._canvas.legacy.legacy object at 0x048AF410>","<openexp._canvas.legacy.legacy object at 0x049A59D0>","<openexp._canvas.legacy.legacy object at 0x049764B0>","<openexp._canvas.legacy.legacy object at 0x049A6D70>","<openexp._canvas.legacy.legacy object at 0x04977A50>","75","IndividualPriorityWithDis_v1.osexp","C:/Userdata/Michel/SpatialProb/IndividualPriorityMaps/Experiment2","no","mono","no","18","no","white","no","yes","0.09","98","1050","legacy","45","18","18","1","C:/Userdata/Michel/SpatialProb/IndividualPriorityMaps/Experiment2/data/subject-2.csv","legacy","9","192","25","Jazzy James","3.1.3","yes","598477b2b83f69022949e7e9","47","green","rectangular","red","rectangular","0","\","882","space","11253","11253","(80, 80, 80)","(0, 122, 0)","(179, 0, 0)","(155, 155, 155)","2","legacy","experiment","[1, 2, 3, 4, 5, 6, 7, 0]","\","2500","3000","0","8","252.758751519","1024","2","48000","-16","main","[(0, -252), (178, -178), (252, 0), (178, 178), (0, 252), (-178, 178), (-252, 0), (-178, -178)]","[]","2","even","7","809188","880117","880117","716277","715269","1746","734369","734369","1746","1746","727530","927760","1745","880117","926875","926117","926117","NA","752","study_X","0","11253","1","yes","1680"
"undefined","undefined","11253","11253","black","no","legacy","legacy","legacy","0","red","(179, 0, 0)","shape","present","highProb","circular","swap","swap","same","same","red","(179, 0, 0)","lowProb","lowProb2","rectangular","uniform","1","undefined","0.0989583333333","1","1","109.625","1","19","21048","0","0","0","0","0","0","0","0","44","0","1","0.0989583333333","109.625","19","21048","44","44","44","08/10/17 12:52:42","Default description","yes","<openexp._canvas.legacy.legacy object at 0x048B77F0>","<openexp._canvas.legacy.legacy object at 0x048C37B0>","<openexp._canvas.legacy.legacy object at 0x048AF410>","<openexp._canvas.legacy.legacy object at 0x049A59D0>","<openexp._canvas.legacy.legacy object at 0x049764B0>","<openexp._canvas.legacy.legacy object at 0x048AFF50>","<openexp._canvas.legacy.legacy object at 0x04977A50>","75","IndividualPriorityWithDis_v1.osexp","C:/Userdata/Michel/SpatialProb/IndividualPriorityMaps/Experiment2","no","mono","no","18","no","white","no","yes","0.09","98","1050","legacy","45","19","19","1","C:/Userdata/Michel/SpatialProb/IndividualPriorityMaps/Experiment2/data/subject-2.csv","legacy","9","192","25","Jazzy James","3.1.3","yes","598477b2b83f69022949e7e9","47","red","circular","red","rectangular","0","\","1086","space","11253","11253","(80, 80, 80)","(0, 122, 0)","(179, 0, 0)","(155, 155, 155)","2","legacy","experiment","[1, 2, 3, 4, 5, 6, 7, 0]","\","2500","3000","0","8","252.758751519","1024","2","48000","-16","main","[(0, -252), (178, -178), (252, 0), (178, 178), (0, 252), (-178, 178), (-252, 0), (-178, -178)]","[]","2","even","3","809188","880117","880117","716277","715269","1746","734369","734369","1746","1746","727530","930032","1745","880117","928943","928185","928185","NA","752","study_X","0","11253","1","yes","1680"
"undefined","undefined","11253","11253","black","no","legacy","legacy","legacy","0","red","(179, 0, 0)","shape","present","lowProb3","rectangular","same","swap","same","swap","red","(179, 0, 0)","lowProb","lowProb4","circular","uniform","1","undefined","0.104166666667","1","1","114.927083333","1","20","22066","0","0","0","0","0","0","0","0","45","0","1","0.104166666667","114.927083333","20","22066","45","45","45","08/10/17 12:52:42","Default description","yes","<openexp._canvas.legacy.legacy object at 0x048B77F0>","<openexp._canvas.legacy.legacy object at 0x048C37B0>","<openexp._canvas.legacy.legacy object at 0x048AF410>","<openexp._canvas.legacy.legacy object at 0x049A59D0>","<openexp._canvas.legacy.legacy object at 0x049764B0>","<openexp._canvas.legacy.legacy object at 0x048B4C50>","<openexp._canvas.legacy.legacy object at 0x04977A50>","75","IndividualPriorityWithDis_v1.osexp","C:/Userdata/Michel/SpatialProb/IndividualPriorityMaps/Experiment2","no","mono","no","18","no","white","no","yes","0.09","98","1050","legacy","315","20","20","1","C:/Userdata/Michel/SpatialProb/IndividualPriorityMaps/Experiment2/data/subject-2.csv","legacy","9","192","25","Jazzy James","3.1.3","yes","598477b2b83f69022949e7e9","47","red","rectangular","red","circular","0","/","1018","space","11253","11253","(80, 80, 80)","(0, 122, 0)","(179, 0, 0)","(155, 155, 155)","2","legacy","experiment","[1, 2, 3, 4, 5, 6, 7, 0]","/","2500","3000","0","8","252.758751519","1024","2","48000","-16","main","[(0, -252), (178, -178), (252, 0), (178, 178), (0, 252), (-178, 178), (-252, 0), (-178, -178)]","[]","2","even","6","809188","880117","880117","716277","715269","1746","734369","734369","1746","1746","727530","932232","1745","880117","931210","930452","930452","NA","752","study_X","0","11253","1","yes","1680"
"undefined","undefined","11253","11253","black","no","legacy","legacy","legacy","0","red","(179, 0, 0)","color","present","highProb","circular","same","swap","swap","same","green","(0, 122, 0)","lowProb","lowProb4","circular","uniform","0","undefined","0.104166666667","1","1","126.041666667","1","20","24200","0","0","0","0","0","0","0","0","46","0","1","0.104166666667","126.041666667","20","24200","46","46","46","08/10/17 12:52:42","Default description","yes","<openexp._canvas.legacy.legacy object at 0x048B77F0>","<openexp._canvas.legacy.legacy object at 0x048C37B0>","<openexp._canvas.legacy.legacy object at 0x048AF410>","<openexp._canvas.legacy.legacy object at 0x049A59D0>","<openexp._canvas.legacy.legacy object at 0x049764B0>","<openexp._canvas.legacy.legacy object at 0x049A0EF0>","<openexp._canvas.legacy.legacy object at 0x04977A50>","75","IndividualPriorityWithDis_v1.osexp","C:/Userdata/Michel/SpatialProb/IndividualPriorityMaps/Experiment2","no","mono","no","18","no","white","no","yes","0.09","98","1050","legacy","45","21","21","1","C:/Userdata/Michel/SpatialProb/IndividualPriorityMaps/Experiment2/data/subject-2.csv","legacy","9","192","25","Jazzy James","3.1.3","yes","598477b2b83f69022949e7e9","47","red","circular","green","circular","0","/","2134","space","11253","11253","(80, 80, 80)","(0, 122, 0)","(179, 0, 0)","(155, 155, 155)","2","legacy","experiment","[1, 2, 3, 4, 5, 6, 7, 0]","\","2500","3000","0","8","252.758751519","1024","2","48000","-16","main","[(0, -252), (178, -178), (252, 0), (178, 178), (0, 252), (-178, 178), (-252, 0), (-178, -178)]","[]","2","even","6","809188","880117","880117","716277","715269","1746","734369","734369","1746","1746","727530","935561","1745","880117","933423","932665","932665","NA","752","study_X","0","11253","1","yes","1680"
"undefined","undefined","11253","11253","black","no","legacy","legacy","legacy","0","red","(179, 0, 0)","shape","present","lowProb2","circular","same","same","swap","swap","red","(179, 0, 0)","highProbShape","highProbShape","rectangular","uniform","1","undefined","0.109375","1","1","133.875","1","21","25704","0","0","0","0","0","0","0","0","47","0","1","0.109375","133.875","21","25704","47","47","47","08/10/17 12:52:42","Default description","yes","<openexp._canvas.legacy.legacy object at 0x048B77F0>","<openexp._canvas.legacy.legacy object at 0x048C37B0>","<openexp._canvas.legacy.legacy object at 0x048AF410>","<openexp._canvas.legacy.legacy object at 0x049A59D0>","<openexp._canvas.legacy.legacy object at 0x049764B0>","<openexp._canvas.legacy.legacy object at 0x048B3850>","<openexp._canvas.legacy.legacy object at 0x04977A50>","75","IndividualPriorityWithDis_v1.osexp","C:/Userdata/Michel/SpatialProb/IndividualPriorityMaps/Experiment2","no","mono","no","18","no","white","no","yes","0.09","98","1050","legacy","315","22","22","1","C:/Userdata/Michel/SpatialProb/IndividualPriorityMaps/Experiment2/data/subject-2.csv","legacy","9","192","25","Jazzy James","3.1.3","yes","598477b2b83f69022949e7e9","47","red","circular","red","rectangular","0","/","1504","space","11253","11253","(80, 80, 80)","(0, 122, 0)","(179, 0, 0)","(155, 155, 155)","2","legacy","experiment","[1, 2, 3, 4, 5, 6, 7, 0]","/","2500","3000","0","8","252.758751519","1024","2","48000","-16","main","[(0, -252), (178, -178), (252, 0), (178, 178), (0, 252), (-178, 178), (-252, 0), (-178, -178)]","[]","2","even","5","809188","880117","880117","716277","715269","1746","734369","734369","1746","1746","727530","938248","1745","880117","936741","935983","935983","NA","752","study_X","0","11253","1","yes","1680"
"undefined","undefined","11253","11253","black","no","legacy","legacy","legacy","0","green","(0, 122, 0)","shape","present","lowProb2","rectangular","swap","swap","swap","swap","green","(0, 122, 0)","lowProb","lowProb3","circular","uniform","1","undefined","0.114583333333","1","1","141.479166667","1","22","27164","0","0","0","0","0","0","0","0","48","0","1","0.114583333333","141.479166667","22","27164","48","48","48","08/10/17 12:52:42","Default description","yes","<openexp._canvas.legacy.legacy object at 0x048B77F0>","<openexp._canvas.legacy.legacy object at 0x048C37B0>","<openexp._canvas.legacy.legacy object at 0x048AF410>","<openexp._canvas.legacy.legacy object at 0x049A59D0>","<openexp._canvas.legacy.legacy object at 0x049764B0>","<openexp._canvas.legacy.legacy object at 0x048C3CF0>","<openexp._canvas.legacy.legacy object at 0x04977A50>","75","IndividualPriorityWithDis_v1.osexp","C:/Userdata/Michel/SpatialProb/IndividualPriorityMaps/Experiment2","no","mono","no","18","no","white","no","yes","0.09","98","1050","legacy","45","23","23","1","C:/Userdata/Michel/SpatialProb/IndividualPriorityMaps/Experiment2/data/subject-2.csv","legacy","9","192","25","Jazzy James","3.1.3","yes","598477b2b83f69022949e7e9","47","green","rectangular","green","circular","0","\","1460","space","11253","11253","(80, 80, 80)","(0, 122, 0)","(179, 0, 0)","(155, 155, 155)","2","legacy","experiment","[1, 2, 3, 4, 5, 6, 7, 0]","\","2500","3000","0","8","252.758751519","1024","2","48000","-16","main","[(0, -252), (178, -178), (252, 0), (178, 178), (0, 252), (-178, 178), (-252, 0), (-178, -178)]","[]","2","even","4","809188","880117","880117","716277","715269","1746","734369","734369","1746","1746","727530","940896","1745","880117","939433","938675","938675","NA","752","study_X","0","11253","1","yes","1680"
"undefined","undefined","11253","11253","black","no","legacy","legacy","legacy","0","green","(0, 122, 0)","shape","absent","highProbOther","rectangular","same","same","same","swap","green","(0, 122, 0)","highProbShape","highProbShape","rectangular","uniform","1","undefined","0.119791666667","1","1","146.734375","1","23","28173","0","0","0","0","0","0","0","0","49","0","1","0.119791666667","146.734375","23","28173","49","49","49","08/10/17 12:52:42","Default description","yes","<openexp._canvas.legacy.legacy object at 0x048B77F0>","<openexp._canvas.legacy.legacy object at 0x048C37B0>","<openexp._canvas.legacy.legacy object at 0x048AF410>","<openexp._canvas.legacy.legacy object at 0x049A59D0>","<openexp._canvas.legacy.legacy object at 0x049764B0>","<openexp._canvas.legacy.legacy object at 0x048B30B0>","<openexp._canvas.legacy.legacy object at 0x04977A50>","75","IndividualPriorityWithDis_v1.osexp","C:/Userdata/Michel/SpatialProb/IndividualPriorityMaps/Experiment2","no","mono","no","18","no","white","no","yes","0.09","98","1050","legacy","315","24","24","1","C:/Userdata/Michel/SpatialProb/IndividualPriorityMaps/Experiment2/data/subject-2.csv","legacy","9","192","25","Jazzy James","3.1.3","yes","598477b2b83f69022949e7e9","47","green","rectangular","green","rectangular","0","/","1009","space","11253","11253","(80, 80, 80)","(0, 122, 0)","(179, 0, 0)","(155, 155, 155)","2","legacy","experiment","[1, 2, 3, 4, 5, 6, 7, 0]","/","2500","3000","0","8","252.758751519","1024","2","48000","-16","main","[(0, -252), (178, -178), (252, 0), (178, 178), (0, 252), (-178, 178), (-252, 0), (-178, -178)]","[]","2","even","5","809188","880117","880117","716277","715269","1746","734369","734369","1746","1746","727530","943088","1745","880117","942076","941319","941319","NA","752","study_X","0","11253","1","yes","1680"
"undefined","undefined","11253","11253","black","no","legacy","legacy","legacy","0","green","(0, 122, 0)","color","present","highProb","circular","same","swap","swap","swap","red","(179, 0, 0)","highProbShape","highProbShape","circular","uniform","1","undefined","0.125","1","1","150.5625","1","24","28908","0","0","0","0","0","0","0","0","50","0","1","0.125","150.5625","24","28908","50","50","50","08/10/17 12:52:42","Default description","yes","<openexp._canvas.legacy.legacy object at 0x048B77F0>","<openexp._canvas.legacy.legacy object at 0x048C37B0>","<openexp._canvas.legacy.legacy object at 0x048AF410>","<openexp._canvas.legacy.legacy object at 0x049A59D0>","<openexp._canvas.legacy.legacy object at 0x049764B0>","<openexp._canvas.legacy.legacy object at 0x048C6230>","<openexp._canvas.legacy.legacy object at 0x04977A50>","75","IndividualPriorityWithDis_v1.osexp","C:/Userdata/Michel/SpatialProb/IndividualPriorityMaps/Experiment2","no","mono","no","18","no","white","no","yes","0.09","98","1050","legacy","315","25","25","1","C:/Userdata/Michel/SpatialProb/IndividualPriorityMaps/Experiment2/data/subject-2.csv","legacy","9","192","25","Jazzy James","3.1.3","yes","598477b2b83f69022949e7e9","47","green","circular","red","circular","0","/","735","space","11253","11253","(80, 80, 80)","(0, 122, 0)","(179, 0, 0)","(155, 155, 155)","2","legacy","experiment","[1, 2, 3, 4, 5, 6, 7, 0]","/","2500","3000","0","8","252.758751519","1024","2","48000","-16","main","[(0, -252), (178, -178), (252, 0), (178, 178), (0, 252), (-178, 178), (-252, 0), (-178, -178)]","[]","2","even","5","809188","880117","880117","716277","715269","1746","734369","734369","1746","1746","727530","945008","1745","880117","944271","943513","943513","NA","752","study_X","0","11253","1","yes","1680"
"undefined","undefined","11253","11253","black","no","legacy","legacy","legacy","0","red","(179, 0, 0)","color","absent","lowProb4","rectangular","swap","swap","same","swap","red","(179, 0, 0)","highProbShape","highProbShape","rectangular","uniform","1","undefined","0.130208333333","1","1","153.9375","1","25","29556","0","0","0","0","0","0","0","0","51","0","1","0.130208333333","153.9375","25","29556","51","51","51","08/10/17 12:52:42","Default description","yes","<openexp._canvas.legacy.legacy object at 0x048B77F0>","<openexp._canvas.legacy.legacy object at 0x048C37B0>","<openexp._canvas.legacy.legacy object at 0x048AF410>","<openexp._canvas.legacy.legacy object at 0x049A59D0>","<openexp._canvas.legacy.legacy object at 0x049764B0>","<openexp._canvas.legacy.legacy object at 0x048B3350>","<openexp._canvas.legacy.legacy object at 0x04977A50>","75","IndividualPriorityWithDis_v1.osexp","C:/Userdata/Michel/SpatialProb/IndividualPriorityMaps/Experiment2","no","mono","no","18","no","white","no","yes","0.09","98","1050","legacy","315","26","26","1","C:/Userdata/Michel/SpatialProb/IndividualPriorityMaps/Experiment2/data/subject-2.csv","legacy","9","192","25","Jazzy James","3.1.3","yes","598477b2b83f69022949e7e9","47","red","rectangular","red","rectangular","0","/","648","space","11253","11253","(80, 80, 80)","(0, 122, 0)","(179, 0, 0)","(155, 155, 155)","2","legacy","experiment","[1, 2, 3, 4, 5, 6, 7, 0]","/","2500","3000","0","8","252.758751519","1024","2","48000","-16","main","[(0, -252), (178, -178), (252, 0), (178, 178), (0, 252), (-178, 178), (-252, 0), (-178, -178)]","[]","2","even","5","809188","880117","880117","716277","715269","1746","734369","734369","1746","1746","727530","946832","1745","880117","946181","945423","945423","NA","752","study_X","0","11253","1","yes","1680"
"undefined","undefined","11253","11253","black","no","legacy","legacy","legacy","0","red","(179, 0, 0)","color","present","highProb","rectangular","same","same","swap","same","green","(0, 122, 0)","lowProb","lowProb5","rectangular","uniform","1","undefined","0.135416666667","1","1","159.046875","1","26","30537","0","0","0","0","0","0","0","0","52","0","1","0.135416666667","159.046875","26","30537","52","52","52","08/10/17 12:52:42","Default description","yes","<openexp._canvas.legacy.legacy object at 0x048B77F0>","<openexp._canvas.legacy.legacy object at 0x048C37B0>","<openexp._canvas.legacy.legacy object at 0x048AF410>","<openexp._canvas.legacy.legacy object at 0x049A59D0>","<openexp._canvas.legacy.legacy object at 0x049764B0>","<openexp._canvas.legacy.legacy object at 0x048C3310>","<openexp._canvas.legacy.legacy object at 0x04977A50>","75","IndividualPriorityWithDis_v1.osexp","C:/Userdata/Michel/SpatialProb/IndividualPriorityMaps/Experiment2","no","mono","no","18","no","white","no","yes","0.09","98","1050","legacy","45","27","27","1","C:/Userdata/Michel/SpatialProb/IndividualPriorityMaps/Experiment2/data/subject-2.csv","legacy","9","192","25","Jazzy James","3.1.3","yes","598477b2b83f69022949e7e9","47","red","rectangular","green","rectangular","0","\","981","space","11253","11253","(80, 80, 80)","(0, 122, 0)","(179, 0, 0)","(155, 155, 155)","2","legacy","experiment","[1, 2, 3, 4, 5, 6, 7, 0]","\","2500","3000","0","8","252.758751519","1024","2","48000","-16","main","[(0, -252), (178, -178), (252, 0), (178, 178), (0, 252), (-178, 178), (-252, 0), (-178, -178)]","[]","2","even","7","809188","880117","880117","716277","715269","1746","734369","734369","1746","1746","727530","948992","1745","880117","948007","947250","947250","NA","752","study_X","0","11253","1","yes","1680"
"undefined","undefined","11253","11253","black","no","legacy","legacy","legacy","0","red","(179, 0, 0)","color","present","highProb","circular","same","swap","same","swap","green","(0, 122, 0)","lowProb","lowProb3","circular","uniform","1","undefined","0.140625","1","1","169.723958333","1","27","32587","0","0","0","0","0","0","0","0","53","0","1","0.140625","169.723958333","27","32587","53","53","53","08/10/17 12:52:42","Default description","yes","<openexp._canvas.legacy.legacy object at 0x048B77F0>","<openexp._canvas.legacy.legacy object at 0x048C37B0>","<openexp._canvas.legacy.legacy object at 0x048AF410>","<openexp._canvas.legacy.legacy object at 0x049A59D0>","<openexp._canvas.legacy.legacy object at 0x049764B0>","<openexp._canvas.legacy.legacy object at 0x048AF690>","<openexp._canvas.legacy.legacy object at 0x04977A50>","75","IndividualPriorityWithDis_v1.osexp","C:/Userdata/Michel/SpatialProb/IndividualPriorityMaps/Experiment2","no","mono","no","18","no","white","no","yes","0.09","98","1050","legacy","315","28","28","1","C:/Userdata/Michel/SpatialProb/IndividualPriorityMaps/Experiment2/data/subject-2.csv","legacy","9","192","25","Jazzy James","3.1.3","yes","598477b2b83f69022949e7e9","47","red","circular","green","circular","0","/","2050","space","11253","11253","(80, 80, 80)","(0, 122, 0)","(179, 0, 0)","(155, 155, 155)","2","legacy","experiment","[1, 2, 3, 4, 5, 6, 7, 0]","/","2500","3000","0","8","252.758751519","1024","2","48000","-16","main","[(0, -252), (178, -178), (252, 0), (178, 178), (0, 252), (-178, 178), (-252, 0), (-178, -178)]","[]","2","even","4","809188","880117","880117","716277","715269","1746","734369","734369","1746","1746","727530","952225","1745","880117","950171","949414","949414","NA","752","study_X","0","11253","1","yes","1680"
"undefined","undefined","11253","11253","black","no","legacy","legacy","legacy","0","red","(179, 0, 0)","color","present","highProb","rectangular","same","swap","same","swap","green","(0, 122, 0)","lowProb","lowProb2","rectangular","uniform","1","undefined","0.145833333333","1","1","174.307291667","1","28","33467","0","0","0","0","0","0","0","0","54","0","1","0.145833333333","174.307291667","28","33467","54","54","54","08/10/17 12:52:42","Default description","yes","<openexp._canvas.legacy.legacy object at 0x048B77F0>","<openexp._canvas.legacy.legacy object at 0x048C37B0>","<openexp._canvas.legacy.legacy object at 0x048AF410>","<openexp._canvas.legacy.legacy object at 0x049A59D0>","<openexp._canvas.legacy.legacy object at 0x049764B0>","<openexp._canvas.legacy.legacy object at 0x048B7E70>","<openexp._canvas.legacy.legacy object at 0x04977A50>","75","IndividualPriorityWithDis_v1.osexp","C:/Userdata/Michel/SpatialProb/IndividualPriorityMaps/Experiment2","no","mono","no","18","no","white","no","yes","0.09","98","1050","legacy","45","29","29","1","C:/Userdata/Michel/SpatialProb/IndividualPriorityMaps/Experiment2/data/subject-2.csv","legacy","9","192","25","Jazzy James","3.1.3","yes","598477b2b83f69022949e7e9","47","red","rectangular","green","rectangular","0","\","880","space","11253","11253","(80, 80, 80)","(0, 122, 0)","(179, 0, 0)","(155, 155, 155)","2","legacy","experiment","[1, 2, 3, 4, 5, 6, 7, 0]","\","2500","3000","0","8","252.758751519","1024","2","48000","-16","main","[(0, -252), (178, -178), (252, 0), (178, 178), (0, 252), (-178, 178), (-252, 0), (-178, -178)]","[]","2","even","3","809188","880117","880117","716277","715269","1746","734369","734369","1746","1746","727530","954280","1745","880117","953397","952640","952640","NA","752","study_X","0","11253","1","yes","1680"
"undefined","undefined","11253","11253","black","no","legacy","legacy","legacy","0","green","(0, 122, 0)","shape","present","lowProb4","rectangular","swap","same","same","swap","green","(0, 122, 0)","lowProb","lowProb5","circular","uniform","1","undefined","0.151041666667","1","1","179.734375","1","29","34509","0","0","0","0","0","0","0","0","55","0","1","0.151041666667","179.734375","29","34509","55","55","55","08/10/17 12:52:42","Default description","yes","<openexp._canvas.legacy.legacy object at 0x048B77F0>","<openexp._canvas.legacy.legacy object at 0x048C37B0>","<openexp._canvas.legacy.legacy object at 0x048AF410>","<openexp._canvas.legacy.legacy object at 0x049A59D0>","<openexp._canvas.legacy.legacy object at 0x049764B0>","<openexp._canvas.legacy.legacy object at 0x049A6210>","<openexp._canvas.legacy.legacy object at 0x04977A50>","75","IndividualPriorityWithDis_v1.osexp","C:/Userdata/Michel/SpatialProb/IndividualPriorityMaps/Experiment2","no","mono","no","18","no","white","no","yes","0.09","98","1050","legacy","45","30","30","1","C:/Userdata/Michel/SpatialProb/IndividualPriorityMaps/Experiment2/data/subject-2.csv","legacy","9","192","25","Jazzy James","3.1.3","yes","598477b2b83f69022949e7e9","47","green","rectangular","green","circular","0","\","1042","space","11253","11253","(80, 80, 80)","(0, 122, 0)","(179, 0, 0)","(155, 155, 155)","2","legacy","experiment","[1, 2, 3, 4, 5, 6, 7, 0]","\","2500","3000","0","8","252.758751519","1024","2","48000","-16","main","[(0, -252), (178, -178), (252, 0), (178, 178), (0, 252), (-178, 178), (-252, 0), (-178, -178)]","[]","2","even","7","809188","880117","880117","716277","715269","1746","734369","734369","1746","1746","727530","956504","1745","880117","955459","954701","954701","NA","752","study_X","0","11253","1","yes","1680"
"undefined","undefined","11253","11253","black","no","legacy","legacy","legacy","0","red","(179, 0, 0)","color","present","highProb","circular","swap","swap","same","same","green","(0, 122, 0)","lowProb","lowProb2","circular","uniform","0","undefined","0.151041666667","1","1","188.020833333","1","29","36100","0","0","0","0","0","0","0","0","56","0","1","0.151041666667","188.020833333","29","36100","56","56","56","08/10/17 12:52:42","Default description","yes","<openexp._canvas.legacy.legacy object at 0x048B77F0>","<openexp._canvas.legacy.legacy object at 0x048C37B0>","<openexp._canvas.legacy.legacy object at 0x048AF410>","<openexp._canvas.legacy.legacy object at 0x049A59D0>","<openexp._canvas.legacy.legacy object at 0x049764B0>","<openexp._canvas.legacy.legacy object at 0x048C6310>","<openexp._canvas.legacy.legacy object at 0x04977A50>","75","IndividualPriorityWithDis_v1.osexp","C:/Userdata/Michel/SpatialProb/IndividualPriorityMaps/Experiment2","no","mono","no","18","no","white","no","yes","0.09","98","1050","legacy","315","31","31","1","C:/Userdata/Michel/SpatialProb/IndividualPriorityMaps/Experiment2/data/subject-2.csv","legacy","9","192","25","Jazzy James","3.1.3","yes","598477b2b83f69022949e7e9","47","red","circular","green","circular","0","\","1591","space","11253","11253","(80, 80, 80)","(0, 122, 0)","(179, 0, 0)","(155, 155, 155)","2","legacy","experiment","[1, 2, 3, 4, 5, 6, 7, 0]","/","2500","3000","0","8","252.758751519","1024","2","48000","-16","main","[(0, -252), (178, -178), (252, 0), (178, 178), (0, 252), (-178, 178), (-252, 0), (-178, -178)]","[]","2","even","3","809188","880117","880117","716277","715269","1746","734369","734369","1746","1746","727530","959288","1745","880117","957694","956936","956936","NA","752","study_X","0","11253","1","yes","1680"
"undefined","undefined","11253","11253","black","no","legacy","legacy","legacy","0","green","(0, 122, 0)","shape","present","highProb","circular","swap","same","same","swap","green","(0, 122, 0)","highProbColor","highProbColor","rectangular","uniform","1","undefined","0.15625","1","1","193","1","30","37056","0","0","0","0","0","0","0","0","57","0","1","0.15625","193","30","37056","57","57","57","08/10/17 12:52:42","Default description","yes","<openexp._canvas.legacy.legacy object at 0x048B77F0>","<openexp._canvas.legacy.legacy object at 0x048C37B0>","<openexp._canvas.legacy.legacy object at 0x048AF410>","<openexp._canvas.legacy.legacy object at 0x049A59D0>","<openexp._canvas.legacy.legacy object at 0x049764B0>","<openexp._canvas.legacy.legacy object at 0x048B41D0>","<openexp._canvas.legacy.legacy object at 0x04977A50>","75","IndividualPriorityWithDis_v1.osexp","C:/Userdata/Michel/SpatialProb/IndividualPriorityMaps/Experiment2","no","mono","no","18","no","white","no","yes","0.09","98","1050","legacy","315","32","32","1","C:/Userdata/Michel/SpatialProb/IndividualPriorityMaps/Experiment2/data/subject-2.csv","legacy","9","192","25","Jazzy James","3.1.3","yes","598477b2b83f69022949e7e9","47","green","circular","green","rectangular","0","/","956","space","11253","11253","(80, 80, 80)","(0, 122, 0)","(179, 0, 0)","(155, 155, 155)","2","legacy","experiment","[1, 2, 3, 4, 5, 6, 7, 0]","/","2500","3000","0","8","252.758751519","1024","2","48000","-16","main","[(0, -252), (178, -178), (252, 0), (178, 178), (0, 252), (-178, 178), (-252, 0), (-178, -178)]","[]","2","even","1","809188","880117","880117","716277","715269","1746","734369","734369","1746","1746","727530","961416","1745","880117","960457","959699","959699","NA","752","study_X","0","11253","1","yes","1680"
"undefined","undefined","11253","11253","black","no","legacy","legacy","legacy","0","red","(179, 0, 0)","shape","present","highProb","rectangular","swap","swap","swap","swap","red","(179, 0, 0)","lowProb","lowProb1","circular","uniform","1","undefined","0.161458333333","1","1","202.416666667","1","31","38864","0","0","0","0","0","0","0","0","58","0","1","0.161458333333","202.416666667","31","38864","58","58","58","08/10/17 12:52:42","Default description","yes","<openexp._canvas.legacy.legacy object at 0x048B77F0>","<openexp._canvas.legacy.legacy object at 0x048C37B0>","<openexp._canvas.legacy.legacy object at 0x048AF410>","<openexp._canvas.legacy.legacy object at 0x049A59D0>","<openexp._canvas.legacy.legacy object at 0x049764B0>","<openexp._canvas.legacy.legacy object at 0x048BE970>","<openexp._canvas.legacy.legacy object at 0x04977A50>","75","IndividualPriorityWithDis_v1.osexp","C:/Userdata/Michel/SpatialProb/IndividualPriorityMaps/Experiment2","no","mono","no","18","no","white","no","yes","0.09","98","1050","legacy","315","33","33","1","C:/Userdata/Michel/SpatialProb/IndividualPriorityMaps/Experiment2/data/subject-2.csv","legacy","9","192","25","Jazzy James","3.1.3","yes","598477b2b83f69022949e7e9","47","red","rectangular","red","circular","0","/","1808","space","11253","11253","(80, 80, 80)","(0, 122, 0)","(179, 0, 0)","(155, 155, 155)","2","legacy","experiment","[1, 2, 3, 4, 5, 6, 7, 0]","/","2500","3000","0","8","252.758751519","1024","2","48000","-16","main","[(0, -252), (178, -178), (252, 0), (178, 178), (0, 252), (-178, 178), (-252, 0), (-178, -178)]","[]","2","even","2","809188","880117","880117","716277","715269","1746","734369","734369","1746","1746","727530","964408","1745","880117","962596","961838","961838","NA","752","study_X","0","11253","1","yes","1680"
"undefined","undefined","11253","11253","black","no","legacy","legacy","legacy","0","green","(0, 122, 0)","color","absent","lowProb6","rectangular","swap","same","swap","swap","green","(0, 122, 0)","lowProb","lowProb2","rectangular","uniform","1","undefined","0.166666666667","1","1","207.026041667","1","32","39749","0","0","0","0","0","0","0","0","59","0","1","0.166666666667","207.026041667","32","39749","59","59","59","08/10/17 12:52:42","Default description","yes","<openexp._canvas.legacy.legacy object at 0x048B77F0>","<openexp._canvas.legacy.legacy object at 0x048C37B0>","<openexp._canvas.legacy.legacy object at 0x048AF410>","<openexp._canvas.legacy.legacy object at 0x049A59D0>","<openexp._canvas.legacy.legacy object at 0x049764B0>","<openexp._canvas.legacy.legacy object at 0x048C3910>","<openexp._canvas.legacy.legacy object at 0x04977A50>","75","IndividualPriorityWithDis_v1.osexp","C:/Userdata/Michel/SpatialProb/IndividualPriorityMaps/Experiment2","no","mono","no","18","no","white","no","yes","0.09","98","1050","legacy","45","34","34","1","C:/Userdata/Michel/SpatialProb/IndividualPriorityMaps/Experiment2/data/subject-2.csv","legacy","9","192","25","Jazzy James","3.1.3","yes","598477b2b83f69022949e7e9","47","green","rectangular","green","rectangular","0","\","885","space","11253","11253","(80, 80, 80)","(0, 122, 0)","(179, 0, 0)","(155, 155, 155)","2","legacy","experiment","[1, 2, 3, 4, 5, 6, 7, 0]","\","2500","3000","0","8","252.758751519","1024","2","48000","-16","main","[(0, -252), (178, -178), (252, 0), (178, 178), (0, 252), (-178, 178), (-252, 0), (-178, -178)]","[]","2","even","3","809188","880117","880117","716277","715269","1746","734369","734369","1746","1746","727530","966464","1745","880117","965575","964817","964817","NA","752","study_X","0","11253","1","yes","1680"
"undefined","undefined","11253","11253","black","no","legacy","legacy","legacy","0","green","(0, 122, 0)","color","present","highProb","circular","same","swap","swap","swap","red","(179, 0, 0)","lowProb","lowProb5","circular","uniform","1","undefined","0.171875","1","1","211.484375","1","33","40605","0","0","0","0","0","0","0","0","60","0","1","0.171875","211.484375","33","40605","60","60","60","08/10/17 12:52:42","Default description","yes","<openexp._canvas.legacy.legacy object at 0x048B77F0>","<openexp._canvas.legacy.legacy object at 0x048C37B0>","<openexp._canvas.legacy.legacy object at 0x048AF410>","<openexp._canvas.legacy.legacy object at 0x049A59D0>","<openexp._canvas.legacy.legacy object at 0x049764B0>","<openexp._canvas.legacy.legacy object at 0x048C6170>","<openexp._canvas.legacy.legacy object at 0x04977A50>","75","IndividualPriorityWithDis_v1.osexp","C:/Userdata/Michel/SpatialProb/IndividualPriorityMaps/Experiment2","no","mono","no","18","no","white","no","yes","0.09","98","1050","legacy","45","35","35","1","C:/Userdata/Michel/SpatialProb/IndividualPriorityMaps/Experiment2/data/subject-2.csv","legacy","9","192","25","Jazzy James","3.1.3","yes","598477b2b83f69022949e7e9","47","green","circular","red","circular","0","\","856","space","11253","11253","(80, 80, 80)","(0, 122, 0)","(179, 0, 0)","(155, 155, 155)","2","legacy","experiment","[1, 2, 3, 4, 5, 6, 7, 0]","\","2500","3000","0","8","252.758751519","1024","2","48000","-16","main","[(0, -252), (178, -178), (252, 0), (178, 178), (0, 252), (-178, 178), (-252, 0), (-178, -178)]","[]","2","even","7","809188","880117","880117","716277","715269","1746","734369","734369","1746","1746","727530","968512","1745","880117","967652","966894","966894","NA","752","study_X","0","11253","1","yes","1680"
"undefined","undefined","11253","11253","black","no","legacy","legacy","legacy","0","green","(0, 122, 0)","color","present","highProb","circular","same","same","same","same","red","(179, 0, 0)","lowProb","lowProb5","circular","uniform","0","undefined","0.171875","1","1","220.307291667","1","33","42299","0","0","0","0","0","0","0","0","61","0","1","0.171875","220.307291667","33","42299","61","61","61","08/10/17 12:52:42","Default description","yes","<openexp._canvas.legacy.legacy object at 0x048B77F0>","<openexp._canvas.legacy.legacy object at 0x048C37B0>","<openexp._canvas.legacy.legacy object at 0x048AF410>","<openexp._canvas.legacy.legacy object at 0x049A59D0>","<openexp._canvas.legacy.legacy object at 0x049764B0>","<openexp._canvas.legacy.legacy object at 0x048AF250>","<openexp._canvas.legacy.legacy object at 0x04977A50>","75","IndividualPriorityWithDis_v1.osexp","C:/Userdata/Michel/SpatialProb/IndividualPriorityMaps/Experiment2","no","mono","no","18","no","white","no","yes","0.09","98","1050","legacy","315","36","36","1","C:/Userdata/Michel/SpatialProb/IndividualPriorityMaps/Experiment2/data/subject-2.csv","legacy","9","192","25","Jazzy James","3.1.3","yes","598477b2b83f69022949e7e9","47","green","circular","red","circular","0","\","1694","space","11253","11253","(80, 80, 80)","(0, 122, 0)","(179, 0, 0)","(155, 155, 155)","2","legacy","experiment","[1, 2, 3, 4, 5, 6, 7, 0]","/","2500","3000","0","8","252.758751519","1024","2","48000","-16","main","[(0, -252), (178, -178), (252, 0), (178, 178), (0, 252), (-178, 178), (-252, 0), (-178, -178)]","[]","2","even","7","809188","880117","880117","716277","715269","1746","734369","734369","1746","1746","727530","971432","1745","880117","969735","968977","968977","NA","752","study_X","0","11253","1","yes","1680"
"undefined","undefined","11253","11253","black","no","legacy","legacy","legacy","0","green","(0, 122, 0)","color","present","highProb","circular","same","same","same","same","red","(179, 0, 0)","lowProb","lowProb1","circular","uniform","1","undefined","0.177083333333","1","1","225.963541667","1","34","43385","0","0","0","0","0","0","0","0","62","0","1","0.177083333333","225.963541667","34","43385","62","62","62","08/10/17 12:52:42","Default description","yes","<openexp._canvas.legacy.legacy object at 0x048B77F0>","<openexp._canvas.legacy.legacy object at 0x048C37B0>","<openexp._canvas.legacy.legacy object at 0x048AF410>","<openexp._canvas.legacy.legacy object at 0x049A59D0>","<openexp._canvas.legacy.legacy object at 0x049764B0>","<openexp._canvas.legacy.legacy object at 0x049A5830>","<openexp._canvas.legacy.legacy object at 0x04977A50>","75","IndividualPriorityWithDis_v1.osexp","C:/Userdata/Michel/SpatialProb/IndividualPriorityMaps/Experiment2","no","mono","no","18","no","white","no","yes","0.09","98","1050","legacy","45","37","37","1","C:/Userdata/Michel/SpatialProb/IndividualPriorityMaps/Experiment2/data/subject-2.csv","legacy","9","192","25","Jazzy James","3.1.3","yes","598477b2b83f69022949e7e9","47","green","circular","red","circular","0","\","1086","space","11253","11253","(80, 80, 80)","(0, 122, 0)","(179, 0, 0)","(155, 155, 155)","2","legacy","experiment","[1, 2, 3, 4, 5, 6, 7, 0]","\","2500","3000","0","8","252.758751519","1024","2","48000","-16","main","[(0, -252), (178, -178), (252, 0), (178, 178), (0, 252), (-178, 178), (-252, 0), (-178, -178)]","[]","2","even","2","809188","880117","880117","716277","715269","1746","734369","734369","1746","1746","727530","973704","1745","880117","972615","971857","971857","NA","752","study_X","0","11253","1","yes","1680"
"undefined","undefined","11253","11253","black","no","legacy","legacy","legacy","0","red","(179, 0, 0)","color","present","highProb","rectangular","swap","swap","swap","swap","green","(0, 122, 0)","lowProb","lowProb6","rectangular","uniform","1","undefined","0.182291666667","1","1","237.026041667","1","35","45509","0","0","0","0","0","0","0","0","63","0","1","0.182291666667","237.026041667","35","45509","63","63","63","08/10/17 12:52:42","Default description","yes","<openexp._canvas.legacy.legacy object at 0x048B77F0>","<openexp._canvas.legacy.legacy object at 0x048C37B0>","<openexp._canvas.legacy.legacy object at 0x048AF410>","<openexp._canvas.legacy.legacy object at 0x049A59D0>","<openexp._canvas.legacy.legacy object at 0x049764B0>","<openexp._canvas.legacy.legacy object at 0x048BE110>","<openexp._canvas.legacy.legacy object at 0x04977A50>","75","IndividualPriorityWithDis_v1.osexp","C:/Userdata/Michel/SpatialProb/IndividualPriorityMaps/Experiment2","no","mono","no","18","no","white","no","yes","0.09","98","1050","legacy","45","38","38","1","C:/Userdata/Michel/SpatialProb/IndividualPriorityMaps/Experiment2/data/subject-2.csv","legacy","9","192","25","Jazzy James","3.1.3","yes","598477b2b83f69022949e7e9","47","red","rectangular","green","rectangular","0","\","2124","space","11253","11253","(80, 80, 80)","(0, 122, 0)","(179, 0, 0)","(155, 155, 155)","2","legacy","experiment","[1, 2, 3, 4, 5, 6, 7, 0]","\","2500","3000","0","8","252.758751519","1024","2","48000","-16","main","[(0, -252), (178, -178), (252, 0), (178, 178), (0, 252), (-178, 178), (-252, 0), (-178, -178)]","[]","2","even","0","809188","880117","880117","716277","715269","1746","734369","734369","1746","1746","727530","977032","1745","880117","974906","974149","974149","NA","752","study_X","0","11253","1","yes","1680"
"undefined","undefined","11253","11253","black","no","legacy","legacy","legacy","0","green","(0, 122, 0)","color","present","highProb","circular","swap","swap","swap","swap","red","(179, 0, 0)","lowProb","lowProb4","circular","uniform","1","undefined","0.1875","1","1","242.583333333","1","36","46576","0","0","0","0","0","0","0","0","64","0","1","0.1875","242.583333333","36","46576","64","64","64","08/10/17 12:52:42","Default description","yes","<openexp._canvas.legacy.legacy object at 0x048B77F0>","<openexp._canvas.legacy.legacy object at 0x048C37B0>","<openexp._canvas.legacy.legacy object at 0x048AF410>","<openexp._canvas.legacy.legacy object at 0x049A59D0>","<openexp._canvas.legacy.legacy object at 0x049764B0>","<openexp._canvas.legacy.legacy object at 0x049A5570>","<openexp._canvas.legacy.legacy object at 0x04977A50>","75","IndividualPriorityWithDis_v1.osexp","C:/Userdata/Michel/SpatialProb/IndividualPriorityMaps/Experiment2","no","mono","no","18","no","white","no","yes","0.09","98","1050","legacy","45","39","39","1","C:/Userdata/Michel/SpatialProb/IndividualPriorityMaps/Experiment2/data/subject-2.csv","legacy","9","192","25","Jazzy James","3.1.3","yes","598477b2b83f69022949e7e9","47","green","circular","red","circular","0","\","1067","space","11253","11253","(80, 80, 80)","(0, 122, 0)","(179, 0, 0)","(155, 155, 155)","2","legacy","experiment","[1, 2, 3, 4, 5, 6, 7, 0]","\","2500","3000","0","8","252.758751519","1024","2","48000","-16","main","[(0, -252), (178, -178), (252, 0), (178, 178), (0, 252), (-178, 178), (-252, 0), (-178, -178)]","[]","2","even","6","809188","880117","880117","716277","715269","1746","734369","734369","1746","1746","727530","979288","1745","880117","978217","977459","977459","NA","752","study_X","0","11253","1","yes","1680"
"undefined","undefined","11253","11253","black","no","legacy","legacy","legacy","0","red","(179, 0, 0)","color","absent","lowProb4","rectangular","swap","swap","same","swap","red","(179, 0, 0)","lowProb","lowProb5","rectangular","uniform","1","undefined","0.192708333333","1","1","247.552083333","1","37","47530","0","0","0","0","0","0","0","0","65","0","1","0.192708333333","247.552083333","37","47530","65","65","65","08/10/17 12:52:42","Default description","yes","<openexp._canvas.legacy.legacy object at 0x048B77F0>","<openexp._canvas.legacy.legacy object at 0x048C37B0>","<openexp._canvas.legacy.legacy object at 0x048AF410>","<openexp._canvas.legacy.legacy object at 0x049A59D0>","<openexp._canvas.legacy.legacy object at 0x049764B0>","<openexp._canvas.legacy.legacy object at 0x049A6350>","<openexp._canvas.legacy.legacy object at 0x04977A50>","75","IndividualPriorityWithDis_v1.osexp","C:/Userdata/Michel/SpatialProb/IndividualPriorityMaps/Experiment2","no","mono","no","18","no","white","no","yes","0.09","98","1050","legacy","45","40","40","1","C:/Userdata/Michel/SpatialProb/IndividualPriorityMaps/Experiment2/data/subject-2.csv","legacy","9","192","25","Jazzy James","3.1.3","yes","598477b2b83f69022949e7e9","47","red","rectangular","red","rectangular","0","\","954","space","11253","11253","(80, 80, 80)","(0, 122, 0)","(179, 0, 0)","(155, 155, 155)","2","legacy","experiment","[1, 2, 3, 4, 5, 6, 7, 0]","\","2500","3000","0","8","252.758751519","1024","2","48000","-16","main","[(0, -252), (178, -178), (252, 0), (178, 178), (0, 252), (-178, 178), (-252, 0), (-178, -178)]","[]","2","even","7","809188","880117","880117","716277","715269","1746","734369","734369","1746","1746","727530","981440","1745","880117","980482","979724","979724","NA","752","study_X","0","11253","1","yes","1680"
"undefined","undefined","11253","11253","black","no","legacy","legacy","legacy","0","red","(179, 0, 0)","shape","present","highProb","rectangular","same","same","same","swap","red","(179, 0, 0)","lowProb","lowProb6","circular","uniform","1","undefined","0.197916666667","1","1","254.380208333","1","38","48841","0","0","0","0","0","0","0","0","66","0","1","0.197916666667","254.380208333","38","48841","66","66","66","08/10/17 12:52:42","Default description","yes","<openexp._canvas.legacy.legacy object at 0x048B77F0>","<openexp._canvas.legacy.legacy object at 0x048C37B0>","<openexp._canvas.legacy.legacy object at 0x048AF410>","<openexp._canvas.legacy.legacy object at 0x049A59D0>","<openexp._canvas.legacy.legacy object at 0x049764B0>","<openexp._canvas.legacy.legacy object at 0x048B3BB0>","<openexp._canvas.legacy.legacy object at 0x04977A50>","75","IndividualPriorityWithDis_v1.osexp","C:/Userdata/Michel/SpatialProb/IndividualPriorityMaps/Experiment2","no","mono","no","18","no","white","no","yes","0.09","98","1050","legacy","315","41","41","1","C:/Userdata/Michel/SpatialProb/IndividualPriorityMaps/Experiment2/data/subject-2.csv","legacy","9","192","25","Jazzy James","3.1.3","yes","598477b2b83f69022949e7e9","47","red","rectangular","red","circular","0","/","1311","space","11253","11253","(80, 80, 80)","(0, 122, 0)","(179, 0, 0)","(155, 155, 155)","2","legacy","experiment","[1, 2, 3, 4, 5, 6, 7, 0]","/","2500","3000","0","8","252.758751519","1024","2","48000","-16","main","[(0, -252), (178, -178), (252, 0), (178, 178), (0, 252), (-178, 178), (-252, 0), (-178, -178)]","[]","2","even","0","809188","880117","880117","716277","715269","1746","734369","734369","1746","1746","727530","983936","1745","880117","982621","981863","981863","NA","752","study_X","0","11253","1","yes","1680"
"undefined","undefined","11253","11253","black","no","legacy","legacy","legacy","0","green","(0, 122, 0)","color","absent","highProb","circular","swap","swap","swap","same","green","(0, 122, 0)","lowProb","lowProb2","circular","uniform","1","undefined","0.203125","1","1","259.635416667","1","39","49850","0","0","0","0","0","0","0","0","67","0","1","0.203125","259.635416667","39","49850","67","67","67","08/10/17 12:52:42","Default description","yes","<openexp._canvas.legacy.legacy object at 0x048B77F0>","<openexp._canvas.legacy.legacy object at 0x048C37B0>","<openexp._canvas.legacy.legacy object at 0x048AF410>","<openexp._canvas.legacy.legacy object at 0x049A59D0>","<openexp._canvas.legacy.legacy object at 0x049764B0>","<openexp._canvas.legacy.legacy object at 0x048C6BD0>","<openexp._canvas.legacy.legacy object at 0x04977A50>","75","IndividualPriorityWithDis_v1.osexp","C:/Userdata/Michel/SpatialProb/IndividualPriorityMaps/Experiment2","no","mono","no","18","no","white","no","yes","0.09","98","1050","legacy","45","42","42","1","C:/Userdata/Michel/SpatialProb/IndividualPriorityMaps/Experiment2/data/subject-2.csv","legacy","9","192","25","Jazzy James","3.1.3","yes","598477b2b83f69022949e7e9","47","green","circular","green","circular","0","\","1009","space","11253","11253","(80, 80, 80)","(0, 122, 0)","(179, 0, 0)","(155, 155, 155)","2","legacy","experiment","[1, 2, 3, 4, 5, 6, 7, 0]","\","2500","3000","0","8","252.758751519","1024","2","48000","-16","main","[(0, -252), (178, -178), (252, 0), (178, 178), (0, 252), (-178, 178), (-252, 0), (-178, -178)]","[]","2","even","3","809188","880117","880117","716277","715269","1746","734369","734369","1746","1746","727530","986136","1745","880117","985125","984368","984368","NA","752","study_X","0","11253","1","yes","1680"
"undefined","undefined","11253","11253","black","no","legacy","legacy","legacy","0","green","(0, 122, 0)","shape","present","lowProb5","circular","same","same","same","swap","green","(0, 122, 0)","lowProb","lowProb2","rectangular","uniform","1","undefined","0.208333333333","1","1","263.588541667","1","40","50609","0","0","0","0","0","0","0","0","68","0","1","0.208333333333","263.588541667","40","50609","68","68","68","08/10/17 12:52:42","Default description","yes","<openexp._canvas.legacy.legacy object at 0x048B77F0>","<openexp._canvas.legacy.legacy object at 0x048C37B0>","<openexp._canvas.legacy.legacy object at 0x048AF410>","<openexp._canvas.legacy.legacy object at 0x049A59D0>","<openexp._canvas.legacy.legacy object at 0x049764B0>","<openexp._canvas.legacy.legacy object at 0x048C6F50>","<openexp._canvas.legacy.legacy object at 0x04977A50>","75","IndividualPriorityWithDis_v1.osexp","C:/Userdata/Michel/SpatialProb/IndividualPriorityMaps/Experiment2","no","mono","no","18","no","white","no","yes","0.09","98","1050","legacy","315","43","43","1","C:/Userdata/Michel/SpatialProb/IndividualPriorityMaps/Experiment2/data/subject-2.csv","legacy","9","192","25","Jazzy James","3.1.3","yes","598477b2b83f69022949e7e9","47","green","circular","green","rectangular","0","/","759","space","11253","11253","(80, 80, 80)","(0, 122, 0)","(179, 0, 0)","(155, 155, 155)","2","legacy","experiment","[1, 2, 3, 4, 5, 6, 7, 0]","/","2500","3000","0","8","252.758751519","1024","2","48000","-16","main","[(0, -252), (178, -178), (252, 0), (178, 178), (0, 252), (-178, 178), (-252, 0), (-178, -178)]","[]","2","even","3","809188","880117","880117","716277","715269","1746","734369","734369","1746","1746","727530","988080","1745","880117","987319","986561","986561","NA","752","study_X","0","11253","1","yes","1680"
"undefined","undefined","11253","11253","black","no","legacy","legacy","legacy","0","green","(0, 122, 0)","color","present","highProb","circular","same","same","swap","swap","red","(179, 0, 0)","lowProb","lowProb1","circular","uniform","1","undefined","0.213541666667","1","1","270.869791667","1","41","52007","0","0","0","0","0","0","0","0","69","0","1","0.213541666667","270.869791667","41","52007","69","69","69","08/10/17 12:52:42","Default description","yes","<openexp._canvas.legacy.legacy object at 0x048B77F0>","<openexp._canvas.legacy.legacy object at 0x048C37B0>","<openexp._canvas.legacy.legacy object at 0x048AF410>","<openexp._canvas.legacy.legacy object at 0x049A59D0>","<openexp._canvas.legacy.legacy object at 0x049764B0>","<openexp._canvas.legacy.legacy object at 0x048AF250>","<openexp._canvas.legacy.legacy object at 0x04977A50>","75","IndividualPriorityWithDis_v1.osexp","C:/Userdata/Michel/SpatialProb/IndividualPriorityMaps/Experiment2","no","mono","no","18","no","white","no","yes","0.09","98","1050","legacy","315","44","44","1","C:/Userdata/Michel/SpatialProb/IndividualPriorityMaps/Experiment2/data/subject-2.csv","legacy","9","192","25","Jazzy James","3.1.3","yes","598477b2b83f69022949e7e9","47","green","circular","red","circular","0","/","1398","space","11253","11253","(80, 80, 80)","(0, 122, 0)","(179, 0, 0)","(155, 155, 155)","2","legacy","experiment","[1, 2, 3, 4, 5, 6, 7, 0]","/","2500","3000","0","8","252.758751519","1024","2","48000","-16","main","[(0, -252), (178, -178), (252, 0), (178, 178), (0, 252), (-178, 178), (-252, 0), (-178, -178)]","[]","2","even","2","809188","880117","880117","716277","715269","1746","734369","734369","1746","1746","727530","990664","1745","880117","989263","988505","988505","NA","752","study_X","0","11253","1","yes","1680"
"undefined","undefined","11253","11253","black","no","legacy","legacy","legacy","0","green","(0, 122, 0)","shape","present","highProb","rectangular","same","swap","swap","same","green","(0, 122, 0)","lowProb","lowProb2","circular","uniform","0","undefined","0.213541666667","1","1","277.9375","1","41","53364","0","0","0","0","0","0","0","0","70","0","1","0.213541666667","277.9375","41","53364","70","70","70","08/10/17 12:52:42","Default description","yes","<openexp._canvas.legacy.legacy object at 0x048B77F0>","<openexp._canvas.legacy.legacy object at 0x048C37B0>","<openexp._canvas.legacy.legacy object at 0x048AF410>","<openexp._canvas.legacy.legacy object at 0x049A59D0>","<openexp._canvas.legacy.legacy object at 0x049764B0>","<openexp._canvas.legacy.legacy object at 0x048CD130>","<openexp._canvas.legacy.legacy object at 0x04977A50>","75","IndividualPriorityWithDis_v1.osexp","C:/Userdata/Michel/SpatialProb/IndividualPriorityMaps/Experiment2","no","mono","no","18","no","white","no","yes","0.09","98","1050","legacy","315","45","45","1","C:/Userdata/Michel/SpatialProb/IndividualPriorityMaps/Experiment2/data/subject-2.csv","legacy","9","192","25","Jazzy James","3.1.3","yes","598477b2b83f69022949e7e9","47","green","rectangular","green","circular","0","\","1357","space","11253","11253","(80, 80, 80)","(0, 122, 0)","(179, 0, 0)","(155, 155, 155)","2","legacy","experiment","[1, 2, 3, 4, 5, 6, 7, 0]","/","2500","3000","0","8","252.758751519","1024","2","48000","-16","main","[(0, -252), (178, -178), (252, 0), (178, 178), (0, 252), (-178, 178), (-252, 0), (-178, -178)]","[]","2","even","3","809188","880117","880117","716277","715269","1746","734369","734369","1746","1746","727530","993208","1745","880117","991848","991090","991090","NA","752","study_X","0","11253","1","yes","1680"
"undefined","undefined","11253","11253","black","no","legacy","legacy","legacy","0","green","(0, 122, 0)","shape","present","highProb","rectangular","same","same","same","same","green","(0, 122, 0)","lowProb","lowProb4","circular","uniform","0","undefined","0.213541666667","1","1","286.130208333","1","41","54937","0","0","0","0","0","0","0","0","71","0","1","0.213541666667","286.130208333","41","54937","71","71","71","08/10/17 12:52:42","Default description","yes","<openexp._canvas.legacy.legacy object at 0x048B77F0>","<openexp._canvas.legacy.legacy object at 0x048C37B0>","<openexp._canvas.legacy.legacy object at 0x048AF410>","<openexp._canvas.legacy.legacy object at 0x049A59D0>","<openexp._canvas.legacy.legacy object at 0x049764B0>","<openexp._canvas.legacy.legacy object at 0x048B4E30>","<openexp._canvas.legacy.legacy object at 0x04977A50>","75","IndividualPriorityWithDis_v1.osexp","C:/Userdata/Michel/SpatialProb/IndividualPriorityMaps/Experiment2","no","mono","no","18","no","white","no","yes","0.09","98","1050","legacy","45","46","46","1","C:/Userdata/Michel/SpatialProb/IndividualPriorityMaps/Experiment2/data/subject-2.csv","legacy","9","192","25","Jazzy James","3.1.3","yes","598477b2b83f69022949e7e9","47","green","rectangular","green","circular","0","/","1573","space","11253","11253","(80, 80, 80)","(0, 122, 0)","(179, 0, 0)","(155, 155, 155)","2","legacy","experiment","[1, 2, 3, 4, 5, 6, 7, 0]","\","2500","3000","0","8","252.758751519","1024","2","48000","-16","main","[(0, -252), (178, -178), (252, 0), (178, 178), (0, 252), (-178, 178), (-252, 0), (-178, -178)]","[]","2","even","6","809188","880117","880117","716277","715269","1746","734369","734369","1746","1746","727530","995968","1745","880117","994391","993633","993633","NA","752","study_X","0","11253","1","yes","1680"
"undefined","undefined","11253","11253","black","no","legacy","legacy","legacy","0","red","(179, 0, 0)","shape","present","lowProb6","rectangular","swap","same","swap","same","red","(179, 0, 0)","highProbColor","highProbColor","circular","uniform","0","undefined","0.213541666667","1","1","299.151041667","1","41","57437","0","0","0","0","0","0","0","0","72","0","1","0.213541666667","299.151041667","41","57437","72","72","72","08/10/17 12:52:42","Default description","yes","<openexp._canvas.legacy.legacy object at 0x048B77F0>","<openexp._canvas.legacy.legacy object at 0x048C37B0>","<openexp._canvas.legacy.legacy object at 0x048AF410>","<openexp._canvas.legacy.legacy object at 0x049A59D0>","<openexp._canvas.legacy.legacy object at 0x049764B0>","<openexp._canvas.legacy.legacy object at 0x048C69D0>","<openexp._canvas.legacy.legacy object at 0x04977A50>","75","IndividualPriorityWithDis_v1.osexp","C:/Userdata/Michel/SpatialProb/IndividualPriorityMaps/Experiment2","no","mono","no","18","no","white","no","yes","0.09","98","1050","legacy","45","47","47","1","C:/Userdata/Michel/SpatialProb/IndividualPriorityMaps/Experiment2/data/subject-2.csv","legacy","9","192","25","Jazzy James","3.1.3","yes","598477b2b83f69022949e7e9","47","red","rectangular","red","circular","0","None","2500","space","11253","11253","(80, 80, 80)","(0, 122, 0)","(179, 0, 0)","(155, 155, 155)","2","legacy","experiment","[1, 2, 3, 4, 5, 6, 7, 0]","\","2500","3000","0","8","252.758751519","1024","2","48000","-16","main","[(0, -252), (178, -178), (252, 0), (178, 178), (0, 252), (-178, 178), (-252, 0), (-178, -178)]","[]","2","even","1","809188","880117","880117","716277","715269","1746","734369","734369","1746","1746","727530","999651","1745","880117","997149","996392","996392","NA","752","study_X","0","11253","1","yes","1680"
"undefined","undefined","11253","11253","black","no","legacy","legacy","legacy","0","red","(179, 0, 0)","shape","present","highProb","rectangular","same","same","same","same","red","(179, 0, 0)","lowProb","lowProb1","circular","uniform","0","undefined","0.213541666667","1","1","312.171875","1","41","59937","0","0","0","0","0","0","0","0","73","0","1","0.213541666667","312.171875","41","59937","73","73","73","08/10/17 12:52:42","Default description","yes","<openexp._canvas.legacy.legacy object at 0x048B77F0>","<openexp._canvas.legacy.legacy object at 0x048C37B0>","<openexp._canvas.legacy.legacy object at 0x048AF410>","<openexp._canvas.legacy.legacy object at 0x049A59D0>","<openexp._canvas.legacy.legacy object at 0x049764B0>","<openexp._canvas.legacy.legacy object at 0x048B3550>","<openexp._canvas.legacy.legacy object at 0x04977A50>","75","IndividualPriorityWithDis_v1.osexp","C:/Userdata/Michel/SpatialProb/IndividualPriorityMaps/Experiment2","no","mono","no","18","no","white","no","yes","0.09","98","1050","legacy","315","48","48","1","C:/Userdata/Michel/SpatialProb/IndividualPriorityMaps/Experiment2/data/subject-2.csv","legacy","9","192","25","Jazzy James","3.1.3","yes","598477b2b83f69022949e7e9","47","red","rectangular","red","circular","0","None","2500","space","11253","11253","(80, 80, 80)","(0, 122, 0)","(179, 0, 0)","(155, 155, 155)","2","legacy","experiment","[1, 2, 3, 4, 5, 6, 7, 0]","/","2500","3000","0","8","252.758751519","1024","2","48000","-16","main","[(0, -252), (178, -178), (252, 0), (178, 178), (0, 252), (-178, 178), (-252, 0), (-178, -178)]","[]","2","even","2","809188","880117","880117","716277","715269","1746","734369","734369","1746","1746","727530","1003338","1745","880117","1000835","1000077","1000077","NA","752","study_X","0","11253","1","yes","1680"
"undefined","undefined","11253","11253","black","no","legacy","legacy","legacy","0","green","(0, 122, 0)","color","present","highProb","rectangular","swap","same","same","swap","red","(179, 0, 0)","lowProb","lowProb4","rectangular","uniform","1","undefined","0.21875","1","1","318.125","1","42","61080","0","0","0","0","0","0","0","0","74","0","1","0.21875","318.125","42","61080","74","74","74","08/10/17 12:52:42","Default description","yes","<openexp._canvas.legacy.legacy object at 0x048B77F0>","<openexp._canvas.legacy.legacy object at 0x048C37B0>","<openexp._canvas.legacy.legacy object at 0x048AF410>","<openexp._canvas.legacy.legacy object at 0x049A59D0>","<openexp._canvas.legacy.legacy object at 0x049764B0>","<openexp._canvas.legacy.legacy object at 0x048B4490>","<openexp._canvas.legacy.legacy object at 0x04977A50>","75","IndividualPriorityWithDis_v1.osexp","C:/Userdata/Michel/SpatialProb/IndividualPriorityMaps/Experiment2","no","mono","no","18","no","white","no","yes","0.09","98","1050","legacy","45","49","49","1","C:/Userdata/Michel/SpatialProb/IndividualPriorityMaps/Experiment2/data/subject-2.csv","legacy","9","192","25","Jazzy James","3.1.3","yes","598477b2b83f69022949e7e9","47","green","rectangular","red","rectangular","0","\","1143","space","11253","11253","(80, 80, 80)","(0, 122, 0)","(179, 0, 0)","(155, 155, 155)","2","legacy","experiment","[1, 2, 3, 4, 5, 6, 7, 0]","\","2500","3000","0","8","252.758751519","1024","2","48000","-16","main","[(0, -252), (178, -178), (252, 0), (178, 178), (0, 252), (-178, 178), (-252, 0), (-178, -178)]","[]","2","even","6","809188","880117","880117","716277","715269","1746","734369","734369","1746","1746","727530","1005656","1745","880117","1004510","1003752","1003752","NA","752","study_X","0","11253","1","yes","1680"
"undefined","undefined","11253","11253","black","no","legacy","legacy","legacy","0","green","(0, 122, 0)","color","present","lowProb2","circular","same","swap","same","swap","red","(179, 0, 0)","lowProb","lowProb6","circular","uniform","1","undefined","0.223958333333","1","1","330.994791667","1","43","63551","0","0","0","0","0","0","0","0","75","0","1","0.223958333333","330.994791667","43","63551","75","75","75","08/10/17 12:52:42","Default description","yes","<openexp._canvas.legacy.legacy object at 0x048B77F0>","<openexp._canvas.legacy.legacy object at 0x048C37B0>","<openexp._canvas.legacy.legacy object at 0x048AF410>","<openexp._canvas.legacy.legacy object at 0x049A59D0>","<openexp._canvas.legacy.legacy object at 0x049764B0>","<openexp._canvas.legacy.legacy object at 0x048C6F70>","<openexp._canvas.legacy.legacy object at 0x04977A50>","75","IndividualPriorityWithDis_v1.osexp","C:/Userdata/Michel/SpatialProb/IndividualPriorityMaps/Experiment2","no","mono","no","18","no","white","no","yes","0.09","98","1050","legacy","45","50","50","1","C:/Userdata/Michel/SpatialProb/IndividualPriorityMaps/Experiment2/data/subject-2.csv","legacy","9","192","25","Jazzy James","3.1.3","yes","598477b2b83f69022949e7e9","47","green","circular","red","circular","0","\","2471","space","11253","11253","(80, 80, 80)","(0, 122, 0)","(179, 0, 0)","(155, 155, 155)","2","legacy","experiment","[1, 2, 3, 4, 5, 6, 7, 0]","\","2500","3000","0","8","252.758751519","1024","2","48000","-16","main","[(0, -252), (178, -178), (252, 0), (178, 178), (0, 252), (-178, 178), (-252, 0), (-178, -178)]","[]","2","even","0","809188","880117","880117","716277","715269","1746","734369","734369","1746","1746","727530","1009336","1745","880117","1006862","1006105","1006105","NA","752","study_X","0","11253","1","yes","1680"
"undefined","undefined","11253","11253","black","no","legacy","legacy","legacy","0","red","(179, 0, 0)","color","present","lowProb5","rectangular","swap","swap","swap","swap","green","(0, 122, 0)","lowProb","lowProb6","rectangular","uniform","0","undefined","0.223958333333","1","1","344.015625","1","43","66051","0","0","0","0","0","0","0","0","76","0","1","0.223958333333","344.015625","43","66051","76","76","76","08/10/17 12:52:42","Default description","yes","<openexp._canvas.legacy.legacy object at 0x048B77F0>","<openexp._canvas.legacy.legacy object at 0x048C37B0>","<openexp._canvas.legacy.legacy object at 0x048AF410>","<openexp._canvas.legacy.legacy object at 0x049A59D0>","<openexp._canvas.legacy.legacy object at 0x049764B0>","<openexp._canvas.legacy.legacy object at 0x049A5A30>","<openexp._canvas.legacy.legacy object at 0x04977A50>","75","IndividualPriorityWithDis_v1.osexp","C:/Userdata/Michel/SpatialProb/IndividualPriorityMaps/Experiment2","no","mono","no","18","no","white","no","yes","0.09","98","1050","legacy","315","51","51","1","C:/Userdata/Michel/SpatialProb/IndividualPriorityMaps/Experiment2/data/subject-2.csv","legacy","9","192","25","Jazzy James","3.1.3","yes","598477b2b83f69022949e7e9","47","red","rectangular","green","rectangular","0","None","2500","space","11253","11253","(80, 80, 80)","(0, 122, 0)","(179, 0, 0)","(155, 155, 155)","2","legacy","experiment","[1, 2, 3, 4, 5, 6, 7, 0]","/","2500","3000","0","8","252.758751519","1024","2","48000","-16","main","[(0, -252), (178, -178), (252, 0), (178, 178), (0, 252), (-178, 178), (-252, 0), (-178, -178)]","[]","2","even","0","809188","880117","880117","716277","715269","1746","734369","734369","1746","1746","727530","1013017","1745","880117","1010514","1009756","1009757","NA","752","study_X","0","11253","1","yes","1680"
"undefined","undefined","11253","11253","black","no","legacy","legacy","legacy","0","green","(0, 122, 0)","shape","present","lowProb2","circular","swap","swap","same","same","green","(0, 122, 0)","lowProb","lowProb1","rectangular","uniform","1","undefined","0.229166666667","1","1","348.130208333","1","44","66841","0","0","0","0","0","0","0","0","77","0","1","0.229166666667","348.130208333","44","66841","77","77","77","08/10/17 12:52:42","Default description","yes","<openexp._canvas.legacy.legacy object at 0x048B77F0>","<openexp._canvas.legacy.legacy object at 0x048C37B0>","<openexp._canvas.legacy.legacy object at 0x048AF410>","<openexp._canvas.legacy.legacy object at 0x049A59D0>","<openexp._canvas.legacy.legacy object at 0x049764B0>","<openexp._canvas.legacy.legacy object at 0x049A0DD0>","<openexp._canvas.legacy.legacy object at 0x04977A50>","75","IndividualPriorityWithDis_v1.osexp","C:/Userdata/Michel/SpatialProb/IndividualPriorityMaps/Experiment2","no","mono","no","18","no","white","no","yes","0.09","98","1050","legacy","315","52","52","1","C:/Userdata/Michel/SpatialProb/IndividualPriorityMaps/Experiment2/data/subject-2.csv","legacy","9","192","25","Jazzy James","3.1.3","yes","598477b2b83f69022949e7e9","47","green","circular","green","rectangular","0","/","790","space","11253","11253","(80, 80, 80)","(0, 122, 0)","(179, 0, 0)","(155, 155, 155)","2","legacy","experiment","[1, 2, 3, 4, 5, 6, 7, 0]","/","2500","3000","0","8","252.758751519","1024","2","48000","-16","main","[(0, -252), (178, -178), (252, 0), (178, 178), (0, 252), (-178, 178), (-252, 0), (-178, -178)]","[]","2","even","2","809188","880117","880117","716277","715269","1746","734369","734369","1746","1746","727530","1014976","1745","880117","1014182","1013424","1013425","NA","752","study_X","0","11253","1","yes","1680"
"undefined","undefined","11253","11253","black","no","legacy","legacy","legacy","0","green","(0, 122, 0)","color","present","highProb","rectangular","same","swap","swap","same","red","(179, 0, 0)","lowProb","lowProb3","rectangular","uniform","1","undefined","0.234375","1","1","359.046875","1","45","68937","0","0","0","0","0","0","0","0","78","0","1","0.234375","359.046875","45","68937","78","78","78","08/10/17 12:52:42","Default description","yes","<openexp._canvas.legacy.legacy object at 0x048B77F0>","<openexp._canvas.legacy.legacy object at 0x048C37B0>","<openexp._canvas.legacy.legacy object at 0x048AF410>","<openexp._canvas.legacy.legacy object at 0x049A59D0>","<openexp._canvas.legacy.legacy object at 0x049764B0>","<openexp._canvas.legacy.legacy object at 0x048C6C70>","<openexp._canvas.legacy.legacy object at 0x04977A50>","75","IndividualPriorityWithDis_v1.osexp","C:/Userdata/Michel/SpatialProb/IndividualPriorityMaps/Experiment2","no","mono","no","18","no","white","no","yes","0.09","98","1050","legacy","45","53","53","1","C:/Userdata/Michel/SpatialProb/IndividualPriorityMaps/Experiment2/data/subject-2.csv","legacy","9","192","25","Jazzy James","3.1.3","yes","598477b2b83f69022949e7e9","47","green","rectangular","red","rectangular","0","\","2096","space","11253","11253","(80, 80, 80)","(0, 122, 0)","(179, 0, 0)","(155, 155, 155)","2","legacy","experiment","[1, 2, 3, 4, 5, 6, 7, 0]","\","2500","3000","0","8","252.758751519","1024","2","48000","-16","main","[(0, -252), (178, -178), (252, 0), (178, 178), (0, 252), (-178, 178), (-252, 0), (-178, -178)]","[]","2","even","4","809188","880117","880117","716277","715269","1746","734369","734369","1746","1746","727530","1018247","1745","880117","1016148","1015391","1015391","NA","752","study_X","0","11253","1","yes","1680"
