"acc","accuracy","average_response_time","avg_rt","background","bidi","canvas_backend","clock_backend","color_backend","compensation","cond_disColor","cond_disColorRGB","cond_disFeature","cond_disPresent","cond_disProbability","cond_disShape","cond_primingDisColor","cond_primingDisShape","cond_primingTarColor","cond_primingTarShape","cond_tarColor","cond_tarColorRGB","cond_tarLocation","cond_tarLocationLong","cond_tarShape","coordinates","correct","correct_continuePress","count_blockAcc","count_blockFeed","count_blockLoop","count_blockRT","count_blockSeq","count_blockSumCorrect","count_blockSumRT","count_continuePress","count_example","count_expSettings","count_exp_mainLoop","count_experiment","count_instructions","count_instructions1","count_instructions2","count_log","count_main","count_prepCanvas","count_totalAcc","count_totalRT","count_totalSumCorrect","count_totalSumRT","count_trialResp","count_trialSeq","count_trialTask","datetime","description","disable_garbage_collection","dispBlank","dispBlockStart","dispFeedBlock","dispFix","dispInstructions","dispSearch","dispStartScreen","distance2screen","experiment_file","experiment_path","font_bold","font_family","font_italic","font_size","font_underline","foreground","form_clicks","fullscreen","gaborFreq","gaborSize","height","keyboard_backend","lineOriTar","live_row","live_row_blockLoop","live_row_exp_mainLoop","logfile","mouse_backend","noExpBlocks","noExpTrials","noPracTrials","opensesame_codename","opensesame_version","osf_always_upload_experiment","osf_id","physical_screensize","previousDisColor","previousDisShape","previousTarColor","previousTarShape","repeat_cycle","response","responseTime","response_continuePress","response_time","response_time_continuePress","rgb_gray","rgb_green","rgb_red","rgb_white","round_decimals","sampler_backend","set_blockType","set_counterPositions","set_respCorrect","set_respTimeoutExp","set_respTimeoutPrac","set_rotation","set_setSize","sizeImaginary","sound_buf_size","sound_channels","sound_freq","sound_sample_size","start","stimPositions","stimuli","subject_nr","subject_parity","tarIdx","time_blockFeed","time_blockLoop","time_blockSeq","time_continuePress","time_example","time_expSettings","time_exp_mainLoop","time_experiment","time_instructions","time_instructions1","time_instructions2","time_log","time_main","time_prepCanvas","time_trialResp","time_trialSeq","time_trialTask","timing_EEGwait","timing_fix","title","total_correct","total_response_time","total_responses","uniform_coordinates","width"
"undefined","undefined","5517","5517","black","no","legacy","legacy","legacy","0","green","(0, 122, 0)","color","present","highProb","rectangular","swap","same","same","swap","red","(179, 0, 0)","lowProb","lowProb6","rectangular","uniform","1","undefined","0.00520833333333","1","1","5.32291666667","1","1","1022","0","0","0","0","0","0","0","0","25","0","1","0.00520833333333","5.32291666667","1","1022","25","25","25","08/17/17 17:04:01","Default description","yes","<openexp._canvas.legacy.legacy object at 0x048E27F0>","<openexp._canvas.legacy.legacy object at 0x048ED7B0>","<openexp._canvas.legacy.legacy object at 0x048DA510>","<openexp._canvas.legacy.legacy object at 0x049D09D0>","<openexp._canvas.legacy.legacy object at 0x049A14B0>","<openexp._canvas.legacy.legacy object at 0x048DE550>","<openexp._canvas.legacy.legacy object at 0x049A2A50>","75","IndividualPriorityWithDis_v1.osexp","C:/Userdata/Michel/SpatialProb/IndividualPriorityMaps/Experiment2","no","mono","no","18","no","white","no","yes","0.09","98","1050","legacy","45","0","0","1","C:/Userdata/Michel/SpatialProb/IndividualPriorityMaps/Experiment2/data/subject-7.csv","legacy","9","192","25","Jazzy James","3.1.3","yes","598477b2b83f69022949e7e9","47","green","rectangular","red","rectangular","0","\","1022","space","5517","5517","(80, 80, 80)","(0, 122, 0)","(179, 0, 0)","(155, 155, 155)","2","legacy","experiment","[6, 7, 0, 1, 2, 3, 4, 5]","\","2500","3000","0","8","252.758751519","1024","2","48000","-16","main","[(0, -252), (178, -178), (252, 0), (178, 178), (0, 252), (-178, 178), (-252, 0), (-178, -178)]","[]","7","odd","5","234866","266115","266115","140763","139756","1770","164975","164975","1770","1770","146280","273432","1766","266115","272407","266504","266505","NA","827","study_X","0","5517","1","yes","1680"
"undefined","undefined","5517","5517","black","no","legacy","legacy","legacy","0","red","(179, 0, 0)","shape","present","highProb","circular","swap","swap","same","same","red","(179, 0, 0)","lowProb","lowProb1","rectangular","uniform","1","undefined","0.0104166666667","1","1","9.125","1","2","1752","0","0","0","0","0","0","0","0","26","0","1","0.0104166666667","9.125","2","1752","26","26","26","08/17/17 17:04:01","Default description","yes","<openexp._canvas.legacy.legacy object at 0x048E27F0>","<openexp._canvas.legacy.legacy object at 0x048ED7B0>","<openexp._canvas.legacy.legacy object at 0x048DA510>","<openexp._canvas.legacy.legacy object at 0x049D09D0>","<openexp._canvas.legacy.legacy object at 0x049A14B0>","<openexp._canvas.legacy.legacy object at 0x048EDFB0>","<openexp._canvas.legacy.legacy object at 0x049A2A50>","75","IndividualPriorityWithDis_v1.osexp","C:/Userdata/Michel/SpatialProb/IndividualPriorityMaps/Experiment2","no","mono","no","18","no","white","no","yes","0.09","98","1050","legacy","315","1","1","1","C:/Userdata/Michel/SpatialProb/IndividualPriorityMaps/Experiment2/data/subject-7.csv","legacy","9","192","25","Jazzy James","3.1.3","yes","598477b2b83f69022949e7e9","47","red","circular","red","rectangular","0","/","730","space","5517","5517","(80, 80, 80)","(0, 122, 0)","(179, 0, 0)","(155, 155, 155)","2","legacy","experiment","[6, 7, 0, 1, 2, 3, 4, 5]","/","2500","3000","0","8","252.758751519","1024","2","48000","-16","main","[(0, -252), (178, -178), (252, 0), (178, 178), (0, 252), (-178, 178), (-252, 0), (-178, -178)]","[]","7","odd","7","234866","266115","266115","140763","139756","1770","164975","164975","1770","1770","146280","275432","1766","266115","274698","273865","273865","NA","827","study_X","0","5517","1","yes","1680"
"undefined","undefined","5517","5517","black","no","legacy","legacy","legacy","0","green","(0, 122, 0)","color","absent","highProb","circular","swap","same","swap","swap","green","(0, 122, 0)","lowProb","lowProb2","circular","uniform","1","undefined","0.015625","1","1","13.2135416667","1","3","2537","0","0","0","0","0","0","0","0","27","0","1","0.015625","13.2135416667","3","2537","27","27","27","08/17/17 17:04:01","Default description","yes","<openexp._canvas.legacy.legacy object at 0x048E27F0>","<openexp._canvas.legacy.legacy object at 0x048ED7B0>","<openexp._canvas.legacy.legacy object at 0x048DA510>","<openexp._canvas.legacy.legacy object at 0x049D09D0>","<openexp._canvas.legacy.legacy object at 0x049A14B0>","<openexp._canvas.legacy.legacy object at 0x048DF950>","<openexp._canvas.legacy.legacy object at 0x049A2A50>","75","IndividualPriorityWithDis_v1.osexp","C:/Userdata/Michel/SpatialProb/IndividualPriorityMaps/Experiment2","no","mono","no","18","no","white","no","yes","0.09","98","1050","legacy","45","2","2","1","C:/Userdata/Michel/SpatialProb/IndividualPriorityMaps/Experiment2/data/subject-7.csv","legacy","9","192","25","Jazzy James","3.1.3","yes","598477b2b83f69022949e7e9","47","green","circular","green","circular","0","\","785","space","5517","5517","(80, 80, 80)","(0, 122, 0)","(179, 0, 0)","(155, 155, 155)","2","legacy","experiment","[6, 7, 0, 1, 2, 3, 4, 5]","\","2500","3000","0","8","252.758751519","1024","2","48000","-16","main","[(0, -252), (178, -178), (252, 0), (178, 178), (0, 252), (-178, 178), (-252, 0), (-178, -178)]","[]","7","odd","0","234866","266115","266115","140763","139756","1770","164975","164975","1770","1770","146280","277496","1766","266115","276707","275874","275874","NA","827","study_X","0","5517","1","yes","1680"
"undefined","undefined","5517","5517","black","no","legacy","legacy","legacy","0","red","(179, 0, 0)","color","present","lowProb6","circular","swap","same","same","same","green","(0, 122, 0)","highProbColor","highProbColor","circular","uniform","1","undefined","0.0208333333333","1","1","20.15625","1","4","3870","0","0","0","0","0","0","0","0","28","0","1","0.0208333333333","20.15625","4","3870","28","28","28","08/17/17 17:04:01","Default description","yes","<openexp._canvas.legacy.legacy object at 0x048E27F0>","<openexp._canvas.legacy.legacy object at 0x048ED7B0>","<openexp._canvas.legacy.legacy object at 0x048DA510>","<openexp._canvas.legacy.legacy object at 0x049D09D0>","<openexp._canvas.legacy.legacy object at 0x049A14B0>","<openexp._canvas.legacy.legacy object at 0x048DA250>","<openexp._canvas.legacy.legacy object at 0x049A2A50>","75","IndividualPriorityWithDis_v1.osexp","C:/Userdata/Michel/SpatialProb/IndividualPriorityMaps/Experiment2","no","mono","no","18","no","white","no","yes","0.09","98","1050","legacy","315","3","3","1","C:/Userdata/Michel/SpatialProb/IndividualPriorityMaps/Experiment2/data/subject-7.csv","legacy","9","192","25","Jazzy James","3.1.3","yes","598477b2b83f69022949e7e9","47","red","circular","green","circular","0","/","1333","space","5517","5517","(80, 80, 80)","(0, 122, 0)","(179, 0, 0)","(155, 155, 155)","2","legacy","experiment","[6, 7, 0, 1, 2, 3, 4, 5]","/","2500","3000","0","8","252.758751519","1024","2","48000","-16","main","[(0, -252), (178, -178), (252, 0), (178, 178), (0, 252), (-178, 178), (-252, 0), (-178, -178)]","[]","7","odd","6","234866","266115","266115","140763","139756","1770","164975","164975","1770","1770","146280","280112","1766","266115","278775","277942","277942","NA","827","study_X","0","5517","1","yes","1680"
"undefined","undefined","5517","5517","black","no","legacy","legacy","legacy","0","red","(179, 0, 0)","shape","absent","lowProb6","circular","same","same","swap","same","red","(179, 0, 0)","lowProb","lowProb4","circular","uniform","1","undefined","0.0260416666667","1","1","22.84375","1","5","4386","0","0","0","0","0","0","0","0","29","0","1","0.0260416666667","22.84375","5","4386","29","29","29","08/17/17 17:04:01","Default description","yes","<openexp._canvas.legacy.legacy object at 0x048E27F0>","<openexp._canvas.legacy.legacy object at 0x048ED7B0>","<openexp._canvas.legacy.legacy object at 0x048DA510>","<openexp._canvas.legacy.legacy object at 0x049D09D0>","<openexp._canvas.legacy.legacy object at 0x049A14B0>","<openexp._canvas.legacy.legacy object at 0x048DFF50>","<openexp._canvas.legacy.legacy object at 0x049A2A50>","75","IndividualPriorityWithDis_v1.osexp","C:/Userdata/Michel/SpatialProb/IndividualPriorityMaps/Experiment2","no","mono","no","18","no","white","no","yes","0.09","98","1050","legacy","315","4","4","1","C:/Userdata/Michel/SpatialProb/IndividualPriorityMaps/Experiment2/data/subject-7.csv","legacy","9","192","25","Jazzy James","3.1.3","yes","598477b2b83f69022949e7e9","47","red","circular","red","circular","0","/","516","space","5517","5517","(80, 80, 80)","(0, 122, 0)","(179, 0, 0)","(155, 155, 155)","2","legacy","experiment","[6, 7, 0, 1, 2, 3, 4, 5]","/","2500","3000","0","8","252.758751519","1024","2","48000","-16","main","[(0, -252), (178, -178), (252, 0), (178, 178), (0, 252), (-178, 178), (-252, 0), (-178, -178)]","[]","7","odd","3","234866","266115","266115","140763","139756","1770","164975","164975","1770","1770","146280","281903","1766","266115","281384","280551","280551","NA","827","study_X","0","5517","1","yes","1680"
"undefined","undefined","5517","5517","black","no","legacy","legacy","legacy","0","red","(179, 0, 0)","color","present","highProb","rectangular","same","swap","swap","swap","green","(0, 122, 0)","lowProb","lowProb4","rectangular","uniform","1","undefined","0.03125","1","1","25.1145833333","1","6","4822","0","0","0","0","0","0","0","0","30","0","1","0.03125","25.1145833333","6","4822","30","30","30","08/17/17 17:04:01","Default description","yes","<openexp._canvas.legacy.legacy object at 0x048E27F0>","<openexp._canvas.legacy.legacy object at 0x048ED7B0>","<openexp._canvas.legacy.legacy object at 0x048DA510>","<openexp._canvas.legacy.legacy object at 0x049D09D0>","<openexp._canvas.legacy.legacy object at 0x049A14B0>","<openexp._canvas.legacy.legacy object at 0x049D02B0>","<openexp._canvas.legacy.legacy object at 0x049A2A50>","75","IndividualPriorityWithDis_v1.osexp","C:/Userdata/Michel/SpatialProb/IndividualPriorityMaps/Experiment2","no","mono","no","18","no","white","no","yes","0.09","98","1050","legacy","315","5","5","1","C:/Userdata/Michel/SpatialProb/IndividualPriorityMaps/Experiment2/data/subject-7.csv","legacy","9","192","25","Jazzy James","3.1.3","yes","598477b2b83f69022949e7e9","47","red","rectangular","green","rectangular","0","/","436","space","5517","5517","(80, 80, 80)","(0, 122, 0)","(179, 0, 0)","(155, 155, 155)","2","legacy","experiment","[6, 7, 0, 1, 2, 3, 4, 5]","/","2500","3000","0","8","252.758751519","1024","2","48000","-16","main","[(0, -252), (178, -178), (252, 0), (178, 178), (0, 252), (-178, 178), (-252, 0), (-178, -178)]","[]","7","odd","3","234866","266115","266115","140763","139756","1770","164975","164975","1770","1770","146280","283599","1766","266115","283160","282327","282327","NA","827","study_X","0","5517","1","yes","1680"
"undefined","undefined","5517","5517","black","no","legacy","legacy","legacy","0","red","(179, 0, 0)","shape","present","highProb","rectangular","same","same","swap","swap","red","(179, 0, 0)","lowProb","lowProb6","circular","uniform","1","undefined","0.0364583333333","1","1","31.6770833333","1","7","6082","0","0","0","0","0","0","0","0","31","0","1","0.0364583333333","31.6770833333","7","6082","31","31","31","08/17/17 17:04:01","Default description","yes","<openexp._canvas.legacy.legacy object at 0x048E27F0>","<openexp._canvas.legacy.legacy object at 0x048ED7B0>","<openexp._canvas.legacy.legacy object at 0x048DA510>","<openexp._canvas.legacy.legacy object at 0x049D09D0>","<openexp._canvas.legacy.legacy object at 0x049A14B0>","<openexp._canvas.legacy.legacy object at 0x048DAED0>","<openexp._canvas.legacy.legacy object at 0x049A2A50>","75","IndividualPriorityWithDis_v1.osexp","C:/Userdata/Michel/SpatialProb/IndividualPriorityMaps/Experiment2","no","mono","no","18","no","white","no","yes","0.09","98","1050","legacy","315","6","6","1","C:/Userdata/Michel/SpatialProb/IndividualPriorityMaps/Experiment2/data/subject-7.csv","legacy","9","192","25","Jazzy James","3.1.3","yes","598477b2b83f69022949e7e9","47","red","rectangular","red","circular","0","/","1260","space","5517","5517","(80, 80, 80)","(0, 122, 0)","(179, 0, 0)","(155, 155, 155)","2","legacy","experiment","[6, 7, 0, 1, 2, 3, 4, 5]","/","2500","3000","0","8","252.758751519","1024","2","48000","-16","main","[(0, -252), (178, -178), (252, 0), (178, 178), (0, 252), (-178, 178), (-252, 0), (-178, -178)]","[]","7","odd","5","234866","266115","266115","140763","139756","1770","164975","164975","1770","1770","146280","286119","1766","266115","284857","284024","284024","NA","827","study_X","0","5517","1","yes","1680"
"undefined","undefined","5517","5517","black","no","legacy","legacy","legacy","0","red","(179, 0, 0)","color","present","highProb","rectangular","same","same","swap","swap","green","(0, 122, 0)","lowProb","lowProb4","rectangular","uniform","1","undefined","0.0416666666667","1","1","33.9010416667","1","8","6509","0","0","0","0","0","0","0","0","32","0","1","0.0416666666667","33.9010416667","8","6509","32","32","32","08/17/17 17:04:01","Default description","yes","<openexp._canvas.legacy.legacy object at 0x048E27F0>","<openexp._canvas.legacy.legacy object at 0x048ED7B0>","<openexp._canvas.legacy.legacy object at 0x048DA510>","<openexp._canvas.legacy.legacy object at 0x049D09D0>","<openexp._canvas.legacy.legacy object at 0x049A14B0>","<openexp._canvas.legacy.legacy object at 0x048DE550>","<openexp._canvas.legacy.legacy object at 0x049A2A50>","75","IndividualPriorityWithDis_v1.osexp","C:/Userdata/Michel/SpatialProb/IndividualPriorityMaps/Experiment2","no","mono","no","18","no","white","no","yes","0.09","98","1050","legacy","315","7","7","1","C:/Userdata/Michel/SpatialProb/IndividualPriorityMaps/Experiment2/data/subject-7.csv","legacy","9","192","25","Jazzy James","3.1.3","yes","598477b2b83f69022949e7e9","47","red","rectangular","green","rectangular","0","/","427","space","5517","5517","(80, 80, 80)","(0, 122, 0)","(179, 0, 0)","(155, 155, 155)","2","legacy","experiment","[6, 7, 0, 1, 2, 3, 4, 5]","/","2500","3000","0","8","252.758751519","1024","2","48000","-16","main","[(0, -252), (178, -178), (252, 0), (178, 178), (0, 252), (-178, 178), (-252, 0), (-178, -178)]","[]","7","odd","3","234866","266115","266115","140763","139756","1770","164975","164975","1770","1770","146280","287807","1766","266115","287377","286545","286545","NA","827","study_X","0","5517","1","yes","1680"
"undefined","undefined","5517","5517","black","no","legacy","legacy","legacy","0","green","(0, 122, 0)","color","present","lowProb4","rectangular","swap","same","swap","same","red","(179, 0, 0)","lowProb","lowProb3","rectangular","uniform","1","undefined","0.046875","1","1","36.1041666667","1","9","6932","0","0","0","0","0","0","0","0","33","0","1","0.046875","36.1041666667","9","6932","33","33","33","08/17/17 17:04:01","Default description","yes","<openexp._canvas.legacy.legacy object at 0x048E27F0>","<openexp._canvas.legacy.legacy object at 0x048ED7B0>","<openexp._canvas.legacy.legacy object at 0x048DA510>","<openexp._canvas.legacy.legacy object at 0x049D09D0>","<openexp._canvas.legacy.legacy object at 0x049A14B0>","<openexp._canvas.legacy.legacy object at 0x049D0AB0>","<openexp._canvas.legacy.legacy object at 0x049A2A50>","75","IndividualPriorityWithDis_v1.osexp","C:/Userdata/Michel/SpatialProb/IndividualPriorityMaps/Experiment2","no","mono","no","18","no","white","no","yes","0.09","98","1050","legacy","315","8","8","1","C:/Userdata/Michel/SpatialProb/IndividualPriorityMaps/Experiment2/data/subject-7.csv","legacy","9","192","25","Jazzy James","3.1.3","yes","598477b2b83f69022949e7e9","47","green","rectangular","red","rectangular","0","/","423","space","5517","5517","(80, 80, 80)","(0, 122, 0)","(179, 0, 0)","(155, 155, 155)","2","legacy","experiment","[6, 7, 0, 1, 2, 3, 4, 5]","/","2500","3000","0","8","252.758751519","1024","2","48000","-16","main","[(0, -252), (178, -178), (252, 0), (178, 178), (0, 252), (-178, 178), (-252, 0), (-178, -178)]","[]","7","odd","1","234866","266115","266115","140763","139756","1770","164975","164975","1770","1770","146280","289479","1766","266115","289054","288221","288221","NA","827","study_X","0","5517","1","yes","1680"
"undefined","undefined","5517","5517","black","no","legacy","legacy","legacy","0","green","(0, 122, 0)","color","present","lowProb3","rectangular","same","same","same","same","red","(179, 0, 0)","highProbShape","highProbShape","rectangular","uniform","1","undefined","0.0520833333333","1","1","43.8125","1","10","8412","0","0","0","0","0","0","0","0","34","0","1","0.0520833333333","43.8125","10","8412","34","34","34","08/17/17 17:04:01","Default description","yes","<openexp._canvas.legacy.legacy object at 0x048E27F0>","<openexp._canvas.legacy.legacy object at 0x048ED7B0>","<openexp._canvas.legacy.legacy object at 0x048DA510>","<openexp._canvas.legacy.legacy object at 0x049D09D0>","<openexp._canvas.legacy.legacy object at 0x049A14B0>","<openexp._canvas.legacy.legacy object at 0x048E96D0>","<openexp._canvas.legacy.legacy object at 0x049A2A50>","75","IndividualPriorityWithDis_v1.osexp","C:/Userdata/Michel/SpatialProb/IndividualPriorityMaps/Experiment2","no","mono","no","18","no","white","no","yes","0.09","98","1050","legacy","315","9","9","1","C:/Userdata/Michel/SpatialProb/IndividualPriorityMaps/Experiment2/data/subject-7.csv","legacy","9","192","25","Jazzy James","3.1.3","yes","598477b2b83f69022949e7e9","47","green","rectangular","red","rectangular","0","/","1480","space","5517","5517","(80, 80, 80)","(0, 122, 0)","(179, 0, 0)","(155, 155, 155)","2","legacy","experiment","[6, 7, 0, 1, 2, 3, 4, 5]","/","2500","3000","0","8","252.758751519","1024","2","48000","-16","main","[(0, -252), (178, -178), (252, 0), (178, 178), (0, 252), (-178, 178), (-252, 0), (-178, -178)]","[]","7","odd","2","234866","266115","266115","140763","139756","1770","164975","164975","1770","1770","146280","292216","1766","266115","290732","289899","289899","NA","827","study_X","0","5517","1","yes","1680"
"undefined","undefined","5517","5517","black","no","legacy","legacy","legacy","0","green","(0, 122, 0)","color","present","highProb","circular","same","swap","same","swap","red","(179, 0, 0)","lowProb","lowProb2","circular","uniform","1","undefined","0.0572916666667","1","1","53.2239583333","1","11","10219","0","0","0","0","0","0","0","0","35","0","1","0.0572916666667","53.2239583333","11","10219","35","35","35","08/17/17 17:04:01","Default description","yes","<openexp._canvas.legacy.legacy object at 0x048E27F0>","<openexp._canvas.legacy.legacy object at 0x048ED7B0>","<openexp._canvas.legacy.legacy object at 0x048DA510>","<openexp._canvas.legacy.legacy object at 0x049D09D0>","<openexp._canvas.legacy.legacy object at 0x049A14B0>","<openexp._canvas.legacy.legacy object at 0x048DA790>","<openexp._canvas.legacy.legacy object at 0x049A2A50>","75","IndividualPriorityWithDis_v1.osexp","C:/Userdata/Michel/SpatialProb/IndividualPriorityMaps/Experiment2","no","mono","no","18","no","white","no","yes","0.09","98","1050","legacy","315","10","10","1","C:/Userdata/Michel/SpatialProb/IndividualPriorityMaps/Experiment2/data/subject-7.csv","legacy","9","192","25","Jazzy James","3.1.3","yes","598477b2b83f69022949e7e9","47","green","circular","red","circular","0","/","1807","space","5517","5517","(80, 80, 80)","(0, 122, 0)","(179, 0, 0)","(155, 155, 155)","2","legacy","experiment","[6, 7, 0, 1, 2, 3, 4, 5]","/","2500","3000","0","8","252.758751519","1024","2","48000","-16","main","[(0, -252), (178, -178), (252, 0), (178, 178), (0, 252), (-178, 178), (-252, 0), (-178, -178)]","[]","7","odd","0","234866","266115","266115","140763","139756","1770","164975","164975","1770","1770","146280","295288","1766","266115","293477","292644","292644","NA","827","study_X","0","5517","1","yes","1680"
"undefined","undefined","5517","5517","black","no","legacy","legacy","legacy","0","red","(179, 0, 0)","shape","present","lowProb5","circular","swap","same","same","swap","red","(179, 0, 0)","lowProb","lowProb3","rectangular","uniform","1","undefined","0.0625","1","1","59.4947916667","1","12","11423","0","0","0","0","0","0","0","0","36","0","1","0.0625","59.4947916667","12","11423","36","36","36","08/17/17 17:04:01","Default description","yes","<openexp._canvas.legacy.legacy object at 0x048E27F0>","<openexp._canvas.legacy.legacy object at 0x048ED7B0>","<openexp._canvas.legacy.legacy object at 0x048DA510>","<openexp._canvas.legacy.legacy object at 0x049D09D0>","<openexp._canvas.legacy.legacy object at 0x049A14B0>","<openexp._canvas.legacy.legacy object at 0x048DEBF0>","<openexp._canvas.legacy.legacy object at 0x049A2A50>","75","IndividualPriorityWithDis_v1.osexp","C:/Userdata/Michel/SpatialProb/IndividualPriorityMaps/Experiment2","no","mono","no","18","no","white","no","yes","0.09","98","1050","legacy","315","11","11","1","C:/Userdata/Michel/SpatialProb/IndividualPriorityMaps/Experiment2/data/subject-7.csv","legacy","9","192","25","Jazzy James","3.1.3","yes","598477b2b83f69022949e7e9","47","red","circular","red","rectangular","0","/","1204","space","5517","5517","(80, 80, 80)","(0, 122, 0)","(179, 0, 0)","(155, 155, 155)","2","legacy","experiment","[6, 7, 0, 1, 2, 3, 4, 5]","/","2500","3000","0","8","252.758751519","1024","2","48000","-16","main","[(0, -252), (178, -178), (252, 0), (178, 178), (0, 252), (-178, 178), (-252, 0), (-178, -178)]","[]","7","odd","1","234866","266115","266115","140763","139756","1770","164975","164975","1770","1770","146280","297735","1766","266115","296528","295697","295697","NA","827","study_X","0","5517","1","yes","1680"
"undefined","undefined","5517","5517","black","no","legacy","legacy","legacy","0","red","(179, 0, 0)","color","present","highProb","circular","same","same","swap","swap","green","(0, 122, 0)","lowProb","lowProb3","circular","uniform","1","undefined","0.0677083333333","1","1","62.6614583333","1","13","12031","0","0","0","0","0","0","0","0","37","0","1","0.0677083333333","62.6614583333","13","12031","37","37","37","08/17/17 17:04:01","Default description","yes","<openexp._canvas.legacy.legacy object at 0x048E27F0>","<openexp._canvas.legacy.legacy object at 0x048ED7B0>","<openexp._canvas.legacy.legacy object at 0x048DA510>","<openexp._canvas.legacy.legacy object at 0x049D09D0>","<openexp._canvas.legacy.legacy object at 0x049A14B0>","<openexp._canvas.legacy.legacy object at 0x049D0DD0>","<openexp._canvas.legacy.legacy object at 0x049A2A50>","75","IndividualPriorityWithDis_v1.osexp","C:/Userdata/Michel/SpatialProb/IndividualPriorityMaps/Experiment2","no","mono","no","18","no","white","no","yes","0.09","98","1050","legacy","315","12","12","1","C:/Userdata/Michel/SpatialProb/IndividualPriorityMaps/Experiment2/data/subject-7.csv","legacy","9","192","25","Jazzy James","3.1.3","yes","598477b2b83f69022949e7e9","47","red","circular","green","circular","0","/","608","space","5517","5517","(80, 80, 80)","(0, 122, 0)","(179, 0, 0)","(155, 155, 155)","2","legacy","experiment","[6, 7, 0, 1, 2, 3, 4, 5]","/","2500","3000","0","8","252.758751519","1024","2","48000","-16","main","[(0, -252), (178, -178), (252, 0), (178, 178), (0, 252), (-178, 178), (-252, 0), (-178, -178)]","[]","7","odd","1","234866","266115","266115","140763","139756","1770","164975","164975","1770","1770","146280","299591","1766","266115","298980","298147","298147","NA","827","study_X","0","5517","1","yes","1680"
"undefined","undefined","5517","5517","black","no","legacy","legacy","legacy","0","green","(0, 122, 0)","color","present","highProb","rectangular","swap","swap","swap","swap","red","(179, 0, 0)","lowProb","lowProb2","rectangular","uniform","1","undefined","0.0729166666667","1","1","69.1458333333","1","14","13276","0","0","0","0","0","0","0","0","38","0","1","0.0729166666667","69.1458333333","14","13276","38","38","38","08/17/17 17:04:01","Default description","yes","<openexp._canvas.legacy.legacy object at 0x048E27F0>","<openexp._canvas.legacy.legacy object at 0x048ED7B0>","<openexp._canvas.legacy.legacy object at 0x048DA510>","<openexp._canvas.legacy.legacy object at 0x049D09D0>","<openexp._canvas.legacy.legacy object at 0x049A14B0>","<openexp._canvas.legacy.legacy object at 0x048E2D30>","<openexp._canvas.legacy.legacy object at 0x049A2A50>","75","IndividualPriorityWithDis_v1.osexp","C:/Userdata/Michel/SpatialProb/IndividualPriorityMaps/Experiment2","no","mono","no","18","no","white","no","yes","0.09","98","1050","legacy","315","13","13","1","C:/Userdata/Michel/SpatialProb/IndividualPriorityMaps/Experiment2/data/subject-7.csv","legacy","9","192","25","Jazzy James","3.1.3","yes","598477b2b83f69022949e7e9","47","green","rectangular","red","rectangular","0","/","1245","space","5517","5517","(80, 80, 80)","(0, 122, 0)","(179, 0, 0)","(155, 155, 155)","2","legacy","experiment","[6, 7, 0, 1, 2, 3, 4, 5]","/","2500","3000","0","8","252.758751519","1024","2","48000","-16","main","[(0, -252), (178, -178), (252, 0), (178, 178), (0, 252), (-178, 178), (-252, 0), (-178, -178)]","[]","7","odd","0","234866","266115","266115","140763","139756","1770","164975","164975","1770","1770","146280","302095","1766","266115","300848","300016","300016","NA","827","study_X","0","5517","1","yes","1680"
"undefined","undefined","5517","5517","black","no","legacy","legacy","legacy","0","red","(179, 0, 0)","shape","present","highProb","rectangular","swap","same","same","swap","red","(179, 0, 0)","lowProb","lowProb5","circular","uniform","1","undefined","0.078125","1","1","79.6927083333","1","15","15301","0","0","0","0","0","0","0","0","39","0","1","0.078125","79.6927083333","15","15301","39","39","39","08/17/17 17:04:01","Default description","yes","<openexp._canvas.legacy.legacy object at 0x048E27F0>","<openexp._canvas.legacy.legacy object at 0x048ED7B0>","<openexp._canvas.legacy.legacy object at 0x048DA510>","<openexp._canvas.legacy.legacy object at 0x049D09D0>","<openexp._canvas.legacy.legacy object at 0x049A14B0>","<openexp._canvas.legacy.legacy object at 0x048DF110>","<openexp._canvas.legacy.legacy object at 0x049A2A50>","75","IndividualPriorityWithDis_v1.osexp","C:/Userdata/Michel/SpatialProb/IndividualPriorityMaps/Experiment2","no","mono","no","18","no","white","no","yes","0.09","98","1050","legacy","315","14","14","1","C:/Userdata/Michel/SpatialProb/IndividualPriorityMaps/Experiment2/data/subject-7.csv","legacy","9","192","25","Jazzy James","3.1.3","yes","598477b2b83f69022949e7e9","47","red","rectangular","red","circular","0","/","2025","space","5517","5517","(80, 80, 80)","(0, 122, 0)","(179, 0, 0)","(155, 155, 155)","2","legacy","experiment","[6, 7, 0, 1, 2, 3, 4, 5]","/","2500","3000","0","8","252.758751519","1024","2","48000","-16","main","[(0, -252), (178, -178), (252, 0), (178, 178), (0, 252), (-178, 178), (-252, 0), (-178, -178)]","[]","7","odd","4","234866","266115","266115","140763","139756","1770","164975","164975","1770","1770","146280","305399","1766","266115","303372","302539","302539","NA","827","study_X","0","5517","1","yes","1680"
"undefined","undefined","5517","5517","black","no","legacy","legacy","legacy","0","red","(179, 0, 0)","shape","present","highProb","circular","same","swap","same","swap","red","(179, 0, 0)","lowProb","lowProb5","rectangular","uniform","1","undefined","0.0833333333333","1","1","91.2864583333","1","16","17527","0","0","0","0","0","0","0","0","40","0","1","0.0833333333333","91.2864583333","16","17527","40","40","40","08/17/17 17:04:01","Default description","yes","<openexp._canvas.legacy.legacy object at 0x048E27F0>","<openexp._canvas.legacy.legacy object at 0x048ED7B0>","<openexp._canvas.legacy.legacy object at 0x048DA510>","<openexp._canvas.legacy.legacy object at 0x049D09D0>","<openexp._canvas.legacy.legacy object at 0x049A14B0>","<openexp._canvas.legacy.legacy object at 0x048DE7D0>","<openexp._canvas.legacy.legacy object at 0x049A2A50>","75","IndividualPriorityWithDis_v1.osexp","C:/Userdata/Michel/SpatialProb/IndividualPriorityMaps/Experiment2","no","mono","no","18","no","white","no","yes","0.09","98","1050","legacy","315","15","15","1","C:/Userdata/Michel/SpatialProb/IndividualPriorityMaps/Experiment2/data/subject-7.csv","legacy","9","192","25","Jazzy James","3.1.3","yes","598477b2b83f69022949e7e9","47","red","circular","red","rectangular","0","/","2226","space","5517","5517","(80, 80, 80)","(0, 122, 0)","(179, 0, 0)","(155, 155, 155)","2","legacy","experiment","[6, 7, 0, 1, 2, 3, 4, 5]","/","2500","3000","0","8","252.758751519","1024","2","48000","-16","main","[(0, -252), (178, -178), (252, 0), (178, 178), (0, 252), (-178, 178), (-252, 0), (-178, -178)]","[]","7","odd","4","234866","266115","266115","140763","139756","1770","164975","164975","1770","1770","146280","308896","1766","266115","306667","305835","305835","NA","827","study_X","0","5517","1","yes","1680"
"undefined","undefined","5517","5517","black","no","legacy","legacy","legacy","0","red","(179, 0, 0)","shape","present","lowProb2","rectangular","same","swap","same","swap","red","(179, 0, 0)","lowProb","lowProb4","circular","uniform","1","undefined","0.0885416666667","1","1","94.3072916667","1","17","18107","0","0","0","0","0","0","0","0","41","0","1","0.0885416666667","94.3072916667","17","18107","41","41","41","08/17/17 17:04:01","Default description","yes","<openexp._canvas.legacy.legacy object at 0x048E27F0>","<openexp._canvas.legacy.legacy object at 0x048ED7B0>","<openexp._canvas.legacy.legacy object at 0x048DA510>","<openexp._canvas.legacy.legacy object at 0x049D09D0>","<openexp._canvas.legacy.legacy object at 0x049A14B0>","<openexp._canvas.legacy.legacy object at 0x048DAAF0>","<openexp._canvas.legacy.legacy object at 0x049A2A50>","75","IndividualPriorityWithDis_v1.osexp","C:/Userdata/Michel/SpatialProb/IndividualPriorityMaps/Experiment2","no","mono","no","18","no","white","no","yes","0.09","98","1050","legacy","315","16","16","1","C:/Userdata/Michel/SpatialProb/IndividualPriorityMaps/Experiment2/data/subject-7.csv","legacy","9","192","25","Jazzy James","3.1.3","yes","598477b2b83f69022949e7e9","47","red","rectangular","red","circular","0","/","580","space","5517","5517","(80, 80, 80)","(0, 122, 0)","(179, 0, 0)","(155, 155, 155)","2","legacy","experiment","[6, 7, 0, 1, 2, 3, 4, 5]","/","2500","3000","0","8","252.758751519","1024","2","48000","-16","main","[(0, -252), (178, -178), (252, 0), (178, 178), (0, 252), (-178, 178), (-252, 0), (-178, -178)]","[]","7","odd","3","234866","266115","266115","140763","139756","1770","164975","164975","1770","1770","146280","310728","1766","266115","310145","309312","309312","NA","827","study_X","0","5517","1","yes","1680"
"undefined","undefined","5517","5517","black","no","legacy","legacy","legacy","0","red","(179, 0, 0)","shape","present","highProb","circular","same","swap","same","swap","red","(179, 0, 0)","lowProb","lowProb4","rectangular","uniform","1","undefined","0.09375","1","1","97.34375","1","18","18690","0","0","0","0","0","0","0","0","42","0","1","0.09375","97.34375","18","18690","42","42","42","08/17/17 17:04:01","Default description","yes","<openexp._canvas.legacy.legacy object at 0x048E27F0>","<openexp._canvas.legacy.legacy object at 0x048ED7B0>","<openexp._canvas.legacy.legacy object at 0x048DA510>","<openexp._canvas.legacy.legacy object at 0x049D09D0>","<openexp._canvas.legacy.legacy object at 0x049A14B0>","<openexp._canvas.legacy.legacy object at 0x048DFAF0>","<openexp._canvas.legacy.legacy object at 0x049A2A50>","75","IndividualPriorityWithDis_v1.osexp","C:/Userdata/Michel/SpatialProb/IndividualPriorityMaps/Experiment2","no","mono","no","18","no","white","no","yes","0.09","98","1050","legacy","45","17","17","1","C:/Userdata/Michel/SpatialProb/IndividualPriorityMaps/Experiment2/data/subject-7.csv","legacy","9","192","25","Jazzy James","3.1.3","yes","598477b2b83f69022949e7e9","47","red","circular","red","rectangular","0","\","583","space","5517","5517","(80, 80, 80)","(0, 122, 0)","(179, 0, 0)","(155, 155, 155)","2","legacy","experiment","[6, 7, 0, 1, 2, 3, 4, 5]","\","2500","3000","0","8","252.758751519","1024","2","48000","-16","main","[(0, -252), (178, -178), (252, 0), (178, 178), (0, 252), (-178, 178), (-252, 0), (-178, -178)]","[]","7","odd","3","234866","266115","266115","140763","139756","1770","164975","164975","1770","1770","146280","312567","1766","266115","311981","311148","311148","NA","827","study_X","0","5517","1","yes","1680"
"undefined","undefined","5517","5517","black","no","legacy","legacy","legacy","0","green","(0, 122, 0)","shape","absent","lowProb2","rectangular","swap","swap","swap","same","green","(0, 122, 0)","lowProb","lowProb3","rectangular","uniform","1","undefined","0.0989583333333","1","1","103.526041667","1","19","19877","0","0","0","0","0","0","0","0","43","0","1","0.0989583333333","103.526041667","19","19877","43","43","43","08/17/17 17:04:01","Default description","yes","<openexp._canvas.legacy.legacy object at 0x048E27F0>","<openexp._canvas.legacy.legacy object at 0x048ED7B0>","<openexp._canvas.legacy.legacy object at 0x048DA510>","<openexp._canvas.legacy.legacy object at 0x049D09D0>","<openexp._canvas.legacy.legacy object at 0x049A14B0>","<openexp._canvas.legacy.legacy object at 0x048DAED0>","<openexp._canvas.legacy.legacy object at 0x049A2A50>","75","IndividualPriorityWithDis_v1.osexp","C:/Userdata/Michel/SpatialProb/IndividualPriorityMaps/Experiment2","no","mono","no","18","no","white","no","yes","0.09","98","1050","legacy","45","18","18","1","C:/Userdata/Michel/SpatialProb/IndividualPriorityMaps/Experiment2/data/subject-7.csv","legacy","9","192","25","Jazzy James","3.1.3","yes","598477b2b83f69022949e7e9","47","green","rectangular","green","rectangular","0","\","1187","space","5517","5517","(80, 80, 80)","(0, 122, 0)","(179, 0, 0)","(155, 155, 155)","2","legacy","experiment","[6, 7, 0, 1, 2, 3, 4, 5]","\","2500","3000","0","8","252.758751519","1024","2","48000","-16","main","[(0, -252), (178, -178), (252, 0), (178, 178), (0, 252), (-178, 178), (-252, 0), (-178, -178)]","[]","7","odd","1","234866","266115","266115","140763","139756","1770","164975","164975","1770","1770","146280","315007","1766","266115","313817","312985","312985","NA","827","study_X","0","5517","1","yes","1680"
"undefined","undefined","5517","5517","black","no","legacy","legacy","legacy","0","red","(179, 0, 0)","color","absent","lowProb4","rectangular","swap","same","swap","same","red","(179, 0, 0)","highProbShape","highProbShape","rectangular","uniform","1","undefined","0.104166666667","1","1","109.572916667","1","20","21038","0","0","0","0","0","0","0","0","44","0","1","0.104166666667","109.572916667","20","21038","44","44","44","08/17/17 17:04:01","Default description","yes","<openexp._canvas.legacy.legacy object at 0x048E27F0>","<openexp._canvas.legacy.legacy object at 0x048ED7B0>","<openexp._canvas.legacy.legacy object at 0x048DA510>","<openexp._canvas.legacy.legacy object at 0x049D09D0>","<openexp._canvas.legacy.legacy object at 0x049A14B0>","<openexp._canvas.legacy.legacy object at 0x049D1170>","<openexp._canvas.legacy.legacy object at 0x049A2A50>","75","IndividualPriorityWithDis_v1.osexp","C:/Userdata/Michel/SpatialProb/IndividualPriorityMaps/Experiment2","no","mono","no","18","no","white","no","yes","0.09","98","1050","legacy","45","19","19","1","C:/Userdata/Michel/SpatialProb/IndividualPriorityMaps/Experiment2/data/subject-7.csv","legacy","9","192","25","Jazzy James","3.1.3","yes","598477b2b83f69022949e7e9","47","red","rectangular","red","rectangular","0","\","1161","space","5517","5517","(80, 80, 80)","(0, 122, 0)","(179, 0, 0)","(155, 155, 155)","2","legacy","experiment","[6, 7, 0, 1, 2, 3, 4, 5]","\","2500","3000","0","8","252.758751519","1024","2","48000","-16","main","[(0, -252), (178, -178), (252, 0), (178, 178), (0, 252), (-178, 178), (-252, 0), (-178, -178)]","[]","7","odd","2","234866","266115","266115","140763","139756","1770","164975","164975","1770","1770","146280","317415","1766","266115","316251","315418","315418","NA","827","study_X","0","5517","1","yes","1680"
"undefined","undefined","5517","5517","black","no","legacy","legacy","legacy","0","red","(179, 0, 0)","shape","present","highProb","circular","same","swap","same","same","red","(179, 0, 0)","lowProb","lowProb1","rectangular","uniform","1","undefined","0.109375","1","1","116.46875","1","21","22362","0","0","0","0","0","0","0","0","45","0","1","0.109375","116.46875","21","22362","45","45","45","08/17/17 17:04:01","Default description","yes","<openexp._canvas.legacy.legacy object at 0x048E27F0>","<openexp._canvas.legacy.legacy object at 0x048ED7B0>","<openexp._canvas.legacy.legacy object at 0x048DA510>","<openexp._canvas.legacy.legacy object at 0x049D09D0>","<openexp._canvas.legacy.legacy object at 0x049A14B0>","<openexp._canvas.legacy.legacy object at 0x048EDF70>","<openexp._canvas.legacy.legacy object at 0x049A2A50>","75","IndividualPriorityWithDis_v1.osexp","C:/Userdata/Michel/SpatialProb/IndividualPriorityMaps/Experiment2","no","mono","no","18","no","white","no","yes","0.09","98","1050","legacy","45","20","20","1","C:/Userdata/Michel/SpatialProb/IndividualPriorityMaps/Experiment2/data/subject-7.csv","legacy","9","192","25","Jazzy James","3.1.3","yes","598477b2b83f69022949e7e9","47","red","circular","red","rectangular","0","\","1324","space","5517","5517","(80, 80, 80)","(0, 122, 0)","(179, 0, 0)","(155, 155, 155)","2","legacy","experiment","[6, 7, 0, 1, 2, 3, 4, 5]","\","2500","3000","0","8","252.758751519","1024","2","48000","-16","main","[(0, -252), (178, -178), (252, 0), (178, 178), (0, 252), (-178, 178), (-252, 0), (-178, -178)]","[]","7","odd","7","234866","266115","266115","140763","139756","1770","164975","164975","1770","1770","146280","319999","1766","266115","318672","317839","317839","NA","827","study_X","0","5517","1","yes","1680"
"undefined","undefined","5517","5517","black","no","legacy","legacy","legacy","0","red","(179, 0, 0)","shape","present","highProb","rectangular","same","swap","same","swap","red","(179, 0, 0)","lowProb","lowProb5","circular","uniform","1","undefined","0.114583333333","1","1","122.473958333","1","22","23515","0","0","0","0","0","0","0","0","46","0","1","0.114583333333","122.473958333","22","23515","46","46","46","08/17/17 17:04:01","Default description","yes","<openexp._canvas.legacy.legacy object at 0x048E27F0>","<openexp._canvas.legacy.legacy object at 0x048ED7B0>","<openexp._canvas.legacy.legacy object at 0x048DA510>","<openexp._canvas.legacy.legacy object at 0x049D09D0>","<openexp._canvas.legacy.legacy object at 0x049A14B0>","<openexp._canvas.legacy.legacy object at 0x048E45B0>","<openexp._canvas.legacy.legacy object at 0x049A2A50>","75","IndividualPriorityWithDis_v1.osexp","C:/Userdata/Michel/SpatialProb/IndividualPriorityMaps/Experiment2","no","mono","no","18","no","white","no","yes","0.09","98","1050","legacy","315","21","21","1","C:/Userdata/Michel/SpatialProb/IndividualPriorityMaps/Experiment2/data/subject-7.csv","legacy","9","192","25","Jazzy James","3.1.3","yes","598477b2b83f69022949e7e9","47","red","rectangular","red","circular","0","/","1153","space","5517","5517","(80, 80, 80)","(0, 122, 0)","(179, 0, 0)","(155, 155, 155)","2","legacy","experiment","[6, 7, 0, 1, 2, 3, 4, 5]","/","2500","3000","0","8","252.758751519","1024","2","48000","-16","main","[(0, -252), (178, -178), (252, 0), (178, 178), (0, 252), (-178, 178), (-252, 0), (-178, -178)]","[]","7","odd","4","234866","266115","266115","140763","139756","1770","164975","164975","1770","1770","146280","322415","1766","266115","321258","320425","320425","NA","827","study_X","0","5517","1","yes","1680"
"undefined","undefined","5517","5517","black","no","legacy","legacy","legacy","0","green","(0, 122, 0)","color","present","highProbOther","circular","swap","swap","same","same","red","(179, 0, 0)","lowProb","lowProb5","circular","uniform","1","undefined","0.119791666667","1","1","128.192708333","1","23","24613","0","0","0","0","0","0","0","0","47","0","1","0.119791666667","128.192708333","23","24613","47","47","47","08/17/17 17:04:01","Default description","yes","<openexp._canvas.legacy.legacy object at 0x048E27F0>","<openexp._canvas.legacy.legacy object at 0x048ED7B0>","<openexp._canvas.legacy.legacy object at 0x048DA510>","<openexp._canvas.legacy.legacy object at 0x049D09D0>","<openexp._canvas.legacy.legacy object at 0x049A14B0>","<openexp._canvas.legacy.legacy object at 0x048DF1F0>","<openexp._canvas.legacy.legacy object at 0x049A2A50>","75","IndividualPriorityWithDis_v1.osexp","C:/Userdata/Michel/SpatialProb/IndividualPriorityMaps/Experiment2","no","mono","no","18","no","white","no","yes","0.09","98","1050","legacy","315","22","22","1","C:/Userdata/Michel/SpatialProb/IndividualPriorityMaps/Experiment2/data/subject-7.csv","legacy","9","192","25","Jazzy James","3.1.3","yes","598477b2b83f69022949e7e9","47","green","circular","red","circular","0","/","1098","space","5517","5517","(80, 80, 80)","(0, 122, 0)","(179, 0, 0)","(155, 155, 155)","2","legacy","experiment","[6, 7, 0, 1, 2, 3, 4, 5]","/","2500","3000","0","8","252.758751519","1024","2","48000","-16","main","[(0, -252), (178, -178), (252, 0), (178, 178), (0, 252), (-178, 178), (-252, 0), (-178, -178)]","[]","7","odd","4","234866","266115","266115","140763","139756","1770","164975","164975","1770","1770","146280","324791","1766","266115","323689","322856","322856","NA","827","study_X","0","5517","1","yes","1680"
"undefined","undefined","5517","5517","black","no","legacy","legacy","legacy","0","green","(0, 122, 0)","shape","present","highProb","rectangular","same","swap","swap","same","green","(0, 122, 0)","lowProb","lowProb5","circular","uniform","1","undefined","0.125","1","1","133.265625","1","24","25587","0","0","0","0","0","0","0","0","48","0","1","0.125","133.265625","24","25587","48","48","48","08/17/17 17:04:01","Default description","yes","<openexp._canvas.legacy.legacy object at 0x048E27F0>","<openexp._canvas.legacy.legacy object at 0x048ED7B0>","<openexp._canvas.legacy.legacy object at 0x048DA510>","<openexp._canvas.legacy.legacy object at 0x049D09D0>","<openexp._canvas.legacy.legacy object at 0x049A14B0>","<openexp._canvas.legacy.legacy object at 0x049D1250>","<openexp._canvas.legacy.legacy object at 0x049A2A50>","75","IndividualPriorityWithDis_v1.osexp","C:/Userdata/Michel/SpatialProb/IndividualPriorityMaps/Experiment2","no","mono","no","18","no","white","no","yes","0.09","98","1050","legacy","315","23","23","1","C:/Userdata/Michel/SpatialProb/IndividualPriorityMaps/Experiment2/data/subject-7.csv","legacy","9","192","25","Jazzy James","3.1.3","yes","598477b2b83f69022949e7e9","47","green","rectangular","green","circular","0","/","974","space","5517","5517","(80, 80, 80)","(0, 122, 0)","(179, 0, 0)","(155, 155, 155)","2","legacy","experiment","[6, 7, 0, 1, 2, 3, 4, 5]","/","2500","3000","0","8","252.758751519","1024","2","48000","-16","main","[(0, -252), (178, -178), (252, 0), (178, 178), (0, 252), (-178, 178), (-252, 0), (-178, -178)]","[]","7","odd","4","234866","266115","266115","140763","139756","1770","164975","164975","1770","1770","146280","327032","1766","266115","326054","325222","325222","NA","827","study_X","0","5517","1","yes","1680"
"undefined","undefined","5517","5517","black","no","legacy","legacy","legacy","0","green","(0, 122, 0)","shape","present","highProb","rectangular","same","same","same","same","green","(0, 122, 0)","lowProb","lowProb6","circular","uniform","1","undefined","0.130208333333","1","1","136.447916667","1","25","26198","0","0","0","0","0","0","0","0","49","0","1","0.130208333333","136.447916667","25","26198","49","49","49","08/17/17 17:04:01","Default description","yes","<openexp._canvas.legacy.legacy object at 0x048E27F0>","<openexp._canvas.legacy.legacy object at 0x048ED7B0>","<openexp._canvas.legacy.legacy object at 0x048DA510>","<openexp._canvas.legacy.legacy object at 0x049D09D0>","<openexp._canvas.legacy.legacy object at 0x049A14B0>","<openexp._canvas.legacy.legacy object at 0x048EDD90>","<openexp._canvas.legacy.legacy object at 0x049A2A50>","75","IndividualPriorityWithDis_v1.osexp","C:/Userdata/Michel/SpatialProb/IndividualPriorityMaps/Experiment2","no","mono","no","18","no","white","no","yes","0.09","98","1050","legacy","315","24","24","1","C:/Userdata/Michel/SpatialProb/IndividualPriorityMaps/Experiment2/data/subject-7.csv","legacy","9","192","25","Jazzy James","3.1.3","yes","598477b2b83f69022949e7e9","47","green","rectangular","green","circular","0","/","611","space","5517","5517","(80, 80, 80)","(0, 122, 0)","(179, 0, 0)","(155, 155, 155)","2","legacy","experiment","[6, 7, 0, 1, 2, 3, 4, 5]","/","2500","3000","0","8","252.758751519","1024","2","48000","-16","main","[(0, -252), (178, -178), (252, 0), (178, 178), (0, 252), (-178, 178), (-252, 0), (-178, -178)]","[]","7","odd","5","234866","266115","266115","140763","139756","1770","164975","164975","1770","1770","146280","328895","1766","266115","328281","327449","327449","NA","827","study_X","0","5517","1","yes","1680"
"undefined","undefined","5517","5517","black","no","legacy","legacy","legacy","0","red","(179, 0, 0)","shape","present","lowProb3","rectangular","swap","same","swap","same","red","(179, 0, 0)","highProbShape","highProbShape","circular","uniform","1","undefined","0.135416666667","1","1","140.354166667","1","26","26948","0","0","0","0","0","0","0","0","50","0","1","0.135416666667","140.354166667","26","26948","50","50","50","08/17/17 17:04:01","Default description","yes","<openexp._canvas.legacy.legacy object at 0x048E27F0>","<openexp._canvas.legacy.legacy object at 0x048ED7B0>","<openexp._canvas.legacy.legacy object at 0x048DA510>","<openexp._canvas.legacy.legacy object at 0x049D09D0>","<openexp._canvas.legacy.legacy object at 0x049A14B0>","<openexp._canvas.legacy.legacy object at 0x049CBE10>","<openexp._canvas.legacy.legacy object at 0x049A2A50>","75","IndividualPriorityWithDis_v1.osexp","C:/Userdata/Michel/SpatialProb/IndividualPriorityMaps/Experiment2","no","mono","no","18","no","white","no","yes","0.09","98","1050","legacy","315","25","25","1","C:/Userdata/Michel/SpatialProb/IndividualPriorityMaps/Experiment2/data/subject-7.csv","legacy","9","192","25","Jazzy James","3.1.3","yes","598477b2b83f69022949e7e9","47","red","rectangular","red","circular","0","/","750","space","5517","5517","(80, 80, 80)","(0, 122, 0)","(179, 0, 0)","(155, 155, 155)","2","legacy","experiment","[6, 7, 0, 1, 2, 3, 4, 5]","/","2500","3000","0","8","252.758751519","1024","2","48000","-16","main","[(0, -252), (178, -178), (252, 0), (178, 178), (0, 252), (-178, 178), (-252, 0), (-178, -178)]","[]","7","odd","2","234866","266115","266115","140763","139756","1770","164975","164975","1770","1770","146280","330903","1766","266115","330150","329317","329317","NA","827","study_X","0","5517","1","yes","1680"
"undefined","undefined","5517","5517","black","no","legacy","legacy","legacy","0","red","(179, 0, 0)","shape","present","highProb","circular","same","swap","same","swap","red","(179, 0, 0)","highProbColor","highProbColor","rectangular","uniform","1","undefined","0.140625","1","1","148.828125","1","27","28575","0","0","0","0","0","0","0","0","51","0","1","0.140625","148.828125","27","28575","51","51","51","08/17/17 17:04:01","Default description","yes","<openexp._canvas.legacy.legacy object at 0x048E27F0>","<openexp._canvas.legacy.legacy object at 0x048ED7B0>","<openexp._canvas.legacy.legacy object at 0x048DA510>","<openexp._canvas.legacy.legacy object at 0x049D09D0>","<openexp._canvas.legacy.legacy object at 0x049A14B0>","<openexp._canvas.legacy.legacy object at 0x048F15B0>","<openexp._canvas.legacy.legacy object at 0x049A2A50>","75","IndividualPriorityWithDis_v1.osexp","C:/Userdata/Michel/SpatialProb/IndividualPriorityMaps/Experiment2","no","mono","no","18","no","white","no","yes","0.09","98","1050","legacy","315","26","26","1","C:/Userdata/Michel/SpatialProb/IndividualPriorityMaps/Experiment2/data/subject-7.csv","legacy","9","192","25","Jazzy James","3.1.3","yes","598477b2b83f69022949e7e9","47","red","circular","red","rectangular","0","/","1627","space","5517","5517","(80, 80, 80)","(0, 122, 0)","(179, 0, 0)","(155, 155, 155)","2","legacy","experiment","[6, 7, 0, 1, 2, 3, 4, 5]","/","2500","3000","0","8","252.758751519","1024","2","48000","-16","main","[(0, -252), (178, -178), (252, 0), (178, 178), (0, 252), (-178, 178), (-252, 0), (-178, -178)]","[]","7","odd","6","234866","266115","266115","140763","139756","1770","164975","164975","1770","1770","146280","333775","1766","266115","332145","331312","331312","NA","827","study_X","0","5517","1","yes","1680"
"undefined","undefined","5517","5517","black","no","legacy","legacy","legacy","0","green","(0, 122, 0)","color","present","highProb","rectangular","swap","swap","same","same","red","(179, 0, 0)","highProbShape","highProbShape","rectangular","uniform","1","undefined","0.145833333333","1","1","153.197916667","1","28","29414","0","0","0","0","0","0","0","0","52","0","1","0.145833333333","153.197916667","28","29414","52","52","52","08/17/17 17:04:01","Default description","yes","<openexp._canvas.legacy.legacy object at 0x048E27F0>","<openexp._canvas.legacy.legacy object at 0x048ED7B0>","<openexp._canvas.legacy.legacy object at 0x048DA510>","<openexp._canvas.legacy.legacy object at 0x049D09D0>","<openexp._canvas.legacy.legacy object at 0x049A14B0>","<openexp._canvas.legacy.legacy object at 0x048DED70>","<openexp._canvas.legacy.legacy object at 0x049A2A50>","75","IndividualPriorityWithDis_v1.osexp","C:/Userdata/Michel/SpatialProb/IndividualPriorityMaps/Experiment2","no","mono","no","18","no","white","no","yes","0.09","98","1050","legacy","45","27","27","1","C:/Userdata/Michel/SpatialProb/IndividualPriorityMaps/Experiment2/data/subject-7.csv","legacy","9","192","25","Jazzy James","3.1.3","yes","598477b2b83f69022949e7e9","47","green","rectangular","red","rectangular","0","\","839","space","5517","5517","(80, 80, 80)","(0, 122, 0)","(179, 0, 0)","(155, 155, 155)","2","legacy","experiment","[6, 7, 0, 1, 2, 3, 4, 5]","\","2500","3000","0","8","252.758751519","1024","2","48000","-16","main","[(0, -252), (178, -178), (252, 0), (178, 178), (0, 252), (-178, 178), (-252, 0), (-178, -178)]","[]","7","odd","2","234866","266115","266115","140763","139756","1770","164975","164975","1770","1770","146280","335855","1766","266115","335013","334180","334181","NA","827","study_X","0","5517","1","yes","1680"
"undefined","undefined","5517","5517","black","no","legacy","legacy","legacy","0","green","(0, 122, 0)","shape","present","lowProb4","circular","same","swap","swap","same","green","(0, 122, 0)","lowProb","lowProb6","rectangular","uniform","1","undefined","0.151041666667","1","1","156.151041667","1","29","29981","0","0","0","0","0","0","0","0","53","0","1","0.151041666667","156.151041667","29","29981","53","53","53","08/17/17 17:04:01","Default description","yes","<openexp._canvas.legacy.legacy object at 0x048E27F0>","<openexp._canvas.legacy.legacy object at 0x048ED7B0>","<openexp._canvas.legacy.legacy object at 0x048DA510>","<openexp._canvas.legacy.legacy object at 0x049D09D0>","<openexp._canvas.legacy.legacy object at 0x049A14B0>","<openexp._canvas.legacy.legacy object at 0x048DF730>","<openexp._canvas.legacy.legacy object at 0x049A2A50>","75","IndividualPriorityWithDis_v1.osexp","C:/Userdata/Michel/SpatialProb/IndividualPriorityMaps/Experiment2","no","mono","no","18","no","white","no","yes","0.09","98","1050","legacy","315","28","28","1","C:/Userdata/Michel/SpatialProb/IndividualPriorityMaps/Experiment2/data/subject-7.csv","legacy","9","192","25","Jazzy James","3.1.3","yes","598477b2b83f69022949e7e9","47","green","circular","green","rectangular","0","/","567","space","5517","5517","(80, 80, 80)","(0, 122, 0)","(179, 0, 0)","(155, 155, 155)","2","legacy","experiment","[6, 7, 0, 1, 2, 3, 4, 5]","/","2500","3000","0","8","252.758751519","1024","2","48000","-16","main","[(0, -252), (178, -178), (252, 0), (178, 178), (0, 252), (-178, 178), (-252, 0), (-178, -178)]","[]","7","odd","5","234866","266115","266115","140763","139756","1770","164975","164975","1770","1770","146280","337719","1766","266115","337148","336315","336315","NA","827","study_X","0","5517","1","yes","1680"
"undefined","undefined","5517","5517","black","no","legacy","legacy","legacy","0","green","(0, 122, 0)","color","present","highProb","circular","same","same","swap","swap","red","(179, 0, 0)","highProbShape","highProbShape","circular","uniform","1","undefined","0.15625","1","1","159.119791667","1","30","30551","0","0","0","0","0","0","0","0","54","0","1","0.15625","159.119791667","30","30551","54","54","54","08/17/17 17:04:01","Default description","yes","<openexp._canvas.legacy.legacy object at 0x048E27F0>","<openexp._canvas.legacy.legacy object at 0x048ED7B0>","<openexp._canvas.legacy.legacy object at 0x048DA510>","<openexp._canvas.legacy.legacy object at 0x049D09D0>","<openexp._canvas.legacy.legacy object at 0x049A14B0>","<openexp._canvas.legacy.legacy object at 0x048EDD90>","<openexp._canvas.legacy.legacy object at 0x049A2A50>","75","IndividualPriorityWithDis_v1.osexp","C:/Userdata/Michel/SpatialProb/IndividualPriorityMaps/Experiment2","no","mono","no","18","no","white","no","yes","0.09","98","1050","legacy","315","29","29","1","C:/Userdata/Michel/SpatialProb/IndividualPriorityMaps/Experiment2/data/subject-7.csv","legacy","9","192","25","Jazzy James","3.1.3","yes","598477b2b83f69022949e7e9","47","green","circular","red","circular","0","/","570","space","5517","5517","(80, 80, 80)","(0, 122, 0)","(179, 0, 0)","(155, 155, 155)","2","legacy","experiment","[6, 7, 0, 1, 2, 3, 4, 5]","/","2500","3000","0","8","252.758751519","1024","2","48000","-16","main","[(0, -252), (178, -178), (252, 0), (178, 178), (0, 252), (-178, 178), (-252, 0), (-178, -178)]","[]","7","odd","2","234866","266115","266115","140763","139756","1770","164975","164975","1770","1770","146280","339551","1766","266115","338977","338144","338144","NA","827","study_X","0","5517","1","yes","1680"
"undefined","undefined","5517","5517","black","no","legacy","legacy","legacy","0","green","(0, 122, 0)","shape","present","highProb","circular","same","same","swap","swap","green","(0, 122, 0)","highProbColor","highProbColor","rectangular","uniform","1","undefined","0.161458333333","1","1","167.442708333","1","31","32149","0","0","0","0","0","0","0","0","55","0","1","0.161458333333","167.442708333","31","32149","55","55","55","08/17/17 17:04:01","Default description","yes","<openexp._canvas.legacy.legacy object at 0x048E27F0>","<openexp._canvas.legacy.legacy object at 0x048ED7B0>","<openexp._canvas.legacy.legacy object at 0x048DA510>","<openexp._canvas.legacy.legacy object at 0x049D09D0>","<openexp._canvas.legacy.legacy object at 0x049A14B0>","<openexp._canvas.legacy.legacy object at 0x048ED3B0>","<openexp._canvas.legacy.legacy object at 0x049A2A50>","75","IndividualPriorityWithDis_v1.osexp","C:/Userdata/Michel/SpatialProb/IndividualPriorityMaps/Experiment2","no","mono","no","18","no","white","no","yes","0.09","98","1050","legacy","45","30","30","1","C:/Userdata/Michel/SpatialProb/IndividualPriorityMaps/Experiment2/data/subject-7.csv","legacy","9","192","25","Jazzy James","3.1.3","yes","598477b2b83f69022949e7e9","47","green","circular","green","rectangular","0","\","1598","space","5517","5517","(80, 80, 80)","(0, 122, 0)","(179, 0, 0)","(155, 155, 155)","2","legacy","experiment","[6, 7, 0, 1, 2, 3, 4, 5]","\","2500","3000","0","8","252.758751519","1024","2","48000","-16","main","[(0, -252), (178, -178), (252, 0), (178, 178), (0, 252), (-178, 178), (-252, 0), (-178, -178)]","[]","7","odd","6","234866","266115","266115","140763","139756","1770","164975","164975","1770","1770","146280","342407","1766","266115","340805","339972","339972","NA","827","study_X","0","5517","1","yes","1680"
"undefined","undefined","5517","5517","black","no","legacy","legacy","legacy","0","green","(0, 122, 0)","color","present","lowProb2","circular","same","same","swap","swap","red","(179, 0, 0)","lowProb","lowProb6","circular","uniform","1","undefined","0.166666666667","1","1","170.947916667","1","32","32822","0","0","0","0","0","0","0","0","56","0","1","0.166666666667","170.947916667","32","32822","56","56","56","08/17/17 17:04:01","Default description","yes","<openexp._canvas.legacy.legacy object at 0x048E27F0>","<openexp._canvas.legacy.legacy object at 0x048ED7B0>","<openexp._canvas.legacy.legacy object at 0x048DA510>","<openexp._canvas.legacy.legacy object at 0x049D09D0>","<openexp._canvas.legacy.legacy object at 0x049A14B0>","<openexp._canvas.legacy.legacy object at 0x048DED90>","<openexp._canvas.legacy.legacy object at 0x049A2A50>","75","IndividualPriorityWithDis_v1.osexp","C:/Userdata/Michel/SpatialProb/IndividualPriorityMaps/Experiment2","no","mono","no","18","no","white","no","yes","0.09","98","1050","legacy","315","31","31","1","C:/Userdata/Michel/SpatialProb/IndividualPriorityMaps/Experiment2/data/subject-7.csv","legacy","9","192","25","Jazzy James","3.1.3","yes","598477b2b83f69022949e7e9","47","green","circular","red","circular","0","/","673","space","5517","5517","(80, 80, 80)","(0, 122, 0)","(179, 0, 0)","(155, 155, 155)","2","legacy","experiment","[6, 7, 0, 1, 2, 3, 4, 5]","/","2500","3000","0","8","252.758751519","1024","2","48000","-16","main","[(0, -252), (178, -178), (252, 0), (178, 178), (0, 252), (-178, 178), (-252, 0), (-178, -178)]","[]","7","odd","5","234866","266115","266115","140763","139756","1770","164975","164975","1770","1770","146280","344343","1766","266115","343667","342834","342834","NA","827","study_X","0","5517","1","yes","1680"
"undefined","undefined","5517","5517","black","no","legacy","legacy","legacy","0","red","(179, 0, 0)","color","present","highProb","rectangular","swap","swap","swap","swap","green","(0, 122, 0)","lowProb","lowProb1","rectangular","uniform","1","undefined","0.171875","1","1","177.307291667","1","33","34043","0","0","0","0","0","0","0","0","57","0","1","0.171875","177.307291667","33","34043","57","57","57","08/17/17 17:04:01","Default description","yes","<openexp._canvas.legacy.legacy object at 0x048E27F0>","<openexp._canvas.legacy.legacy object at 0x048ED7B0>","<openexp._canvas.legacy.legacy object at 0x048DA510>","<openexp._canvas.legacy.legacy object at 0x049D09D0>","<openexp._canvas.legacy.legacy object at 0x049A14B0>","<openexp._canvas.legacy.legacy object at 0x049D14D0>","<openexp._canvas.legacy.legacy object at 0x049A2A50>","75","IndividualPriorityWithDis_v1.osexp","C:/Userdata/Michel/SpatialProb/IndividualPriorityMaps/Experiment2","no","mono","no","18","no","white","no","yes","0.09","98","1050","legacy","45","32","32","1","C:/Userdata/Michel/SpatialProb/IndividualPriorityMaps/Experiment2/data/subject-7.csv","legacy","9","192","25","Jazzy James","3.1.3","yes","598477b2b83f69022949e7e9","47","red","rectangular","green","rectangular","0","\","1221","space","5517","5517","(80, 80, 80)","(0, 122, 0)","(179, 0, 0)","(155, 155, 155)","2","legacy","experiment","[6, 7, 0, 1, 2, 3, 4, 5]","\","2500","3000","0","8","252.758751519","1024","2","48000","-16","main","[(0, -252), (178, -178), (252, 0), (178, 178), (0, 252), (-178, 178), (-252, 0), (-178, -178)]","[]","7","odd","7","234866","266115","266115","140763","139756","1770","164975","164975","1770","1770","146280","346807","1766","266115","345584","344752","344752","NA","827","study_X","0","5517","1","yes","1680"
"undefined","undefined","5517","5517","black","no","legacy","legacy","legacy","0","green","(0, 122, 0)","shape","present","lowProb3","rectangular","swap","same","same","swap","green","(0, 122, 0)","highProbColor","highProbColor","circular","uniform","1","undefined","0.177083333333","1","1","181.59375","1","34","34866","0","0","0","0","0","0","0","0","58","0","1","0.177083333333","181.59375","34","34866","58","58","58","08/17/17 17:04:01","Default description","yes","<openexp._canvas.legacy.legacy object at 0x048E27F0>","<openexp._canvas.legacy.legacy object at 0x048ED7B0>","<openexp._canvas.legacy.legacy object at 0x048DA510>","<openexp._canvas.legacy.legacy object at 0x049D09D0>","<openexp._canvas.legacy.legacy object at 0x049A14B0>","<openexp._canvas.legacy.legacy object at 0x048F8150>","<openexp._canvas.legacy.legacy object at 0x049A2A50>","75","IndividualPriorityWithDis_v1.osexp","C:/Userdata/Michel/SpatialProb/IndividualPriorityMaps/Experiment2","no","mono","no","18","no","white","no","yes","0.09","98","1050","legacy","315","33","33","1","C:/Userdata/Michel/SpatialProb/IndividualPriorityMaps/Experiment2/data/subject-7.csv","legacy","9","192","25","Jazzy James","3.1.3","yes","598477b2b83f69022949e7e9","47","green","rectangular","green","circular","0","/","823","space","5517","5517","(80, 80, 80)","(0, 122, 0)","(179, 0, 0)","(155, 155, 155)","2","legacy","experiment","[6, 7, 0, 1, 2, 3, 4, 5]","/","2500","3000","0","8","252.758751519","1024","2","48000","-16","main","[(0, -252), (178, -178), (252, 0), (178, 178), (0, 252), (-178, 178), (-252, 0), (-178, -178)]","[]","7","odd","6","234866","266115","266115","140763","139756","1770","164975","164975","1770","1770","146280","348895","1766","266115","348070","347237","347237","NA","827","study_X","0","5517","1","yes","1680"
"undefined","undefined","5517","5517","black","no","legacy","legacy","legacy","0","red","(179, 0, 0)","shape","absent","highProb","circular","swap","swap","swap","same","red","(179, 0, 0)","lowProb","lowProb2","circular","uniform","1","undefined","0.182291666667","1","1","184.552083333","1","35","35434","0","0","0","0","0","0","0","0","59","0","1","0.182291666667","184.552083333","35","35434","59","59","59","08/17/17 17:04:01","Default description","yes","<openexp._canvas.legacy.legacy object at 0x048E27F0>","<openexp._canvas.legacy.legacy object at 0x048ED7B0>","<openexp._canvas.legacy.legacy object at 0x048DA510>","<openexp._canvas.legacy.legacy object at 0x049D09D0>","<openexp._canvas.legacy.legacy object at 0x049A14B0>","<openexp._canvas.legacy.legacy object at 0x048DE3B0>","<openexp._canvas.legacy.legacy object at 0x049A2A50>","75","IndividualPriorityWithDis_v1.osexp","C:/Userdata/Michel/SpatialProb/IndividualPriorityMaps/Experiment2","no","mono","no","18","no","white","no","yes","0.09","98","1050","legacy","315","34","34","1","C:/Userdata/Michel/SpatialProb/IndividualPriorityMaps/Experiment2/data/subject-7.csv","legacy","9","192","25","Jazzy James","3.1.3","yes","598477b2b83f69022949e7e9","47","red","circular","red","circular","0","/","568","space","5517","5517","(80, 80, 80)","(0, 122, 0)","(179, 0, 0)","(155, 155, 155)","2","legacy","experiment","[6, 7, 0, 1, 2, 3, 4, 5]","/","2500","3000","0","8","252.758751519","1024","2","48000","-16","main","[(0, -252), (178, -178), (252, 0), (178, 178), (0, 252), (-178, 178), (-252, 0), (-178, -178)]","[]","7","odd","0","234866","266115","266115","140763","139756","1770","164975","164975","1770","1770","146280","350727","1766","266115","350156","349323","349323","NA","827","study_X","0","5517","1","yes","1680"
"undefined","undefined","5517","5517","black","no","legacy","legacy","legacy","0","green","(0, 122, 0)","color","absent","highProb","circular","swap","same","swap","same","green","(0, 122, 0)","lowProb","lowProb5","circular","uniform","1","undefined","0.1875","1","1","189.520833333","1","36","36388","0","0","0","0","0","0","0","0","60","0","1","0.1875","189.520833333","36","36388","60","60","60","08/17/17 17:04:01","Default description","yes","<openexp._canvas.legacy.legacy object at 0x048E27F0>","<openexp._canvas.legacy.legacy object at 0x048ED7B0>","<openexp._canvas.legacy.legacy object at 0x048DA510>","<openexp._canvas.legacy.legacy object at 0x049D09D0>","<openexp._canvas.legacy.legacy object at 0x049A14B0>","<openexp._canvas.legacy.legacy object at 0x049D1290>","<openexp._canvas.legacy.legacy object at 0x049A2A50>","75","IndividualPriorityWithDis_v1.osexp","C:/Userdata/Michel/SpatialProb/IndividualPriorityMaps/Experiment2","no","mono","no","18","no","white","no","yes","0.09","98","1050","legacy","315","35","35","1","C:/Userdata/Michel/SpatialProb/IndividualPriorityMaps/Experiment2/data/subject-7.csv","legacy","9","192","25","Jazzy James","3.1.3","yes","598477b2b83f69022949e7e9","47","green","circular","green","circular","0","/","954","space","5517","5517","(80, 80, 80)","(0, 122, 0)","(179, 0, 0)","(155, 155, 155)","2","legacy","experiment","[6, 7, 0, 1, 2, 3, 4, 5]","/","2500","3000","0","8","252.758751519","1024","2","48000","-16","main","[(0, -252), (178, -178), (252, 0), (178, 178), (0, 252), (-178, 178), (-252, 0), (-178, -178)]","[]","7","odd","4","234866","266115","266115","140763","139756","1770","164975","164975","1770","1770","146280","352943","1766","266115","351985","351152","351152","NA","827","study_X","0","5517","1","yes","1680"
"undefined","undefined","5517","5517","black","no","legacy","legacy","legacy","0","red","(179, 0, 0)","color","present","highProb","rectangular","swap","swap","same","swap","green","(0, 122, 0)","lowProb","lowProb3","rectangular","uniform","1","undefined","0.192708333333","1","1","193.078125","1","37","37071","0","0","0","0","0","0","0","0","61","0","1","0.192708333333","193.078125","37","37071","61","61","61","08/17/17 17:04:01","Default description","yes","<openexp._canvas.legacy.legacy object at 0x048E27F0>","<openexp._canvas.legacy.legacy object at 0x048ED7B0>","<openexp._canvas.legacy.legacy object at 0x048DA510>","<openexp._canvas.legacy.legacy object at 0x049D09D0>","<openexp._canvas.legacy.legacy object at 0x049A14B0>","<openexp._canvas.legacy.legacy object at 0x048DAA30>","<openexp._canvas.legacy.legacy object at 0x049A2A50>","75","IndividualPriorityWithDis_v1.osexp","C:/Userdata/Michel/SpatialProb/IndividualPriorityMaps/Experiment2","no","mono","no","18","no","white","no","yes","0.09","98","1050","legacy","45","36","36","1","C:/Userdata/Michel/SpatialProb/IndividualPriorityMaps/Experiment2/data/subject-7.csv","legacy","9","192","25","Jazzy James","3.1.3","yes","598477b2b83f69022949e7e9","47","red","rectangular","green","rectangular","0","\","683","space","5517","5517","(80, 80, 80)","(0, 122, 0)","(179, 0, 0)","(155, 155, 155)","2","legacy","experiment","[6, 7, 0, 1, 2, 3, 4, 5]","\","2500","3000","0","8","252.758751519","1024","2","48000","-16","main","[(0, -252), (178, -178), (252, 0), (178, 178), (0, 252), (-178, 178), (-252, 0), (-178, -178)]","[]","7","odd","1","234866","266115","266115","140763","139756","1770","164975","164975","1770","1770","146280","354903","1766","266115","354216","353383","353383","NA","827","study_X","0","5517","1","yes","1680"
"undefined","undefined","5517","5517","black","no","legacy","legacy","legacy","0","red","(179, 0, 0)","shape","present","lowProb1","rectangular","same","same","swap","swap","red","(179, 0, 0)","lowProb","lowProb4","circular","uniform","1","undefined","0.197916666667","1","1","198.0625","1","38","38028","0","0","0","0","0","0","0","0","62","0","1","0.197916666667","198.0625","38","38028","62","62","62","08/17/17 17:04:01","Default description","yes","<openexp._canvas.legacy.legacy object at 0x048E27F0>","<openexp._canvas.legacy.legacy object at 0x048ED7B0>","<openexp._canvas.legacy.legacy object at 0x048DA510>","<openexp._canvas.legacy.legacy object at 0x049D09D0>","<openexp._canvas.legacy.legacy object at 0x049A14B0>","<openexp._canvas.legacy.legacy object at 0x048ED970>","<openexp._canvas.legacy.legacy object at 0x049A2A50>","75","IndividualPriorityWithDis_v1.osexp","C:/Userdata/Michel/SpatialProb/IndividualPriorityMaps/Experiment2","no","mono","no","18","no","white","no","yes","0.09","98","1050","legacy","315","37","37","1","C:/Userdata/Michel/SpatialProb/IndividualPriorityMaps/Experiment2/data/subject-7.csv","legacy","9","192","25","Jazzy James","3.1.3","yes","598477b2b83f69022949e7e9","47","red","rectangular","red","circular","0","/","957","space","5517","5517","(80, 80, 80)","(0, 122, 0)","(179, 0, 0)","(155, 155, 155)","2","legacy","experiment","[6, 7, 0, 1, 2, 3, 4, 5]","/","2500","3000","0","8","252.758751519","1024","2","48000","-16","main","[(0, -252), (178, -178), (252, 0), (178, 178), (0, 252), (-178, 178), (-252, 0), (-178, -178)]","[]","7","odd","3","234866","266115","266115","140763","139756","1770","164975","164975","1770","1770","146280","357135","1766","266115","356174","355341","355341","NA","827","study_X","0","5517","1","yes","1680"
"undefined","undefined","5517","5517","black","no","legacy","legacy","legacy","0","green","(0, 122, 0)","shape","present","highProbOther","rectangular","swap","same","swap","same","green","(0, 122, 0)","lowProb","lowProb1","circular","uniform","1","undefined","0.203125","1","1","202.390625","1","39","38859","0","0","0","0","0","0","0","0","63","0","1","0.203125","202.390625","39","38859","63","63","63","08/17/17 17:04:01","Default description","yes","<openexp._canvas.legacy.legacy object at 0x048E27F0>","<openexp._canvas.legacy.legacy object at 0x048ED7B0>","<openexp._canvas.legacy.legacy object at 0x048DA510>","<openexp._canvas.legacy.legacy object at 0x049D09D0>","<openexp._canvas.legacy.legacy object at 0x049A14B0>","<openexp._canvas.legacy.legacy object at 0x048DEA70>","<openexp._canvas.legacy.legacy object at 0x049A2A50>","75","IndividualPriorityWithDis_v1.osexp","C:/Userdata/Michel/SpatialProb/IndividualPriorityMaps/Experiment2","no","mono","no","18","no","white","no","yes","0.09","98","1050","legacy","315","38","38","1","C:/Userdata/Michel/SpatialProb/IndividualPriorityMaps/Experiment2/data/subject-7.csv","legacy","9","192","25","Jazzy James","3.1.3","yes","598477b2b83f69022949e7e9","47","green","rectangular","green","circular","0","/","831","space","5517","5517","(80, 80, 80)","(0, 122, 0)","(179, 0, 0)","(155, 155, 155)","2","legacy","experiment","[6, 7, 0, 1, 2, 3, 4, 5]","/","2500","3000","0","8","252.758751519","1024","2","48000","-16","main","[(0, -252), (178, -178), (252, 0), (178, 178), (0, 252), (-178, 178), (-252, 0), (-178, -178)]","[]","7","odd","7","234866","266115","266115","140763","139756","1770","164975","164975","1770","1770","146280","359222","1766","266115","358389","357556","357557","NA","827","study_X","0","5517","1","yes","1680"
"undefined","undefined","5517","5517","black","no","legacy","legacy","legacy","0","green","(0, 122, 0)","shape","present","highProbOther","rectangular","same","same","same","same","green","(0, 122, 0)","lowProb","lowProb4","circular","uniform","1","undefined","0.208333333333","1","1","205.442708333","1","40","39445","0","0","0","0","0","0","0","0","64","0","1","0.208333333333","205.442708333","40","39445","64","64","64","08/17/17 17:04:01","Default description","yes","<openexp._canvas.legacy.legacy object at 0x048E27F0>","<openexp._canvas.legacy.legacy object at 0x048ED7B0>","<openexp._canvas.legacy.legacy object at 0x048DA510>","<openexp._canvas.legacy.legacy object at 0x049D09D0>","<openexp._canvas.legacy.legacy object at 0x049A14B0>","<openexp._canvas.legacy.legacy object at 0x048DF190>","<openexp._canvas.legacy.legacy object at 0x049A2A50>","75","IndividualPriorityWithDis_v1.osexp","C:/Userdata/Michel/SpatialProb/IndividualPriorityMaps/Experiment2","no","mono","no","18","no","white","no","yes","0.09","98","1050","legacy","45","39","39","1","C:/Userdata/Michel/SpatialProb/IndividualPriorityMaps/Experiment2/data/subject-7.csv","legacy","9","192","25","Jazzy James","3.1.3","yes","598477b2b83f69022949e7e9","47","green","rectangular","green","circular","0","\","586","space","5517","5517","(80, 80, 80)","(0, 122, 0)","(179, 0, 0)","(155, 155, 155)","2","legacy","experiment","[6, 7, 0, 1, 2, 3, 4, 5]","\","2500","3000","0","8","252.758751519","1024","2","48000","-16","main","[(0, -252), (178, -178), (252, 0), (178, 178), (0, 252), (-178, 178), (-252, 0), (-178, -178)]","[]","7","odd","3","234866","266115","266115","140763","139756","1770","164975","164975","1770","1770","146280","361055","1766","266115","360466","359633","359633","NA","827","study_X","0","5517","1","yes","1680"
"undefined","undefined","5517","5517","black","no","legacy","legacy","legacy","0","red","(179, 0, 0)","shape","present","highProb","circular","swap","swap","swap","swap","red","(179, 0, 0)","lowProb","lowProb4","rectangular","uniform","1","undefined","0.213541666667","1","1","207.96875","1","41","39930","0","0","0","0","0","0","0","0","65","0","1","0.213541666667","207.96875","41","39930","65","65","65","08/17/17 17:04:01","Default description","yes","<openexp._canvas.legacy.legacy object at 0x048E27F0>","<openexp._canvas.legacy.legacy object at 0x048ED7B0>","<openexp._canvas.legacy.legacy object at 0x048DA510>","<openexp._canvas.legacy.legacy object at 0x049D09D0>","<openexp._canvas.legacy.legacy object at 0x049A14B0>","<openexp._canvas.legacy.legacy object at 0x048DAED0>","<openexp._canvas.legacy.legacy object at 0x049A2A50>","75","IndividualPriorityWithDis_v1.osexp","C:/Userdata/Michel/SpatialProb/IndividualPriorityMaps/Experiment2","no","mono","no","18","no","white","no","yes","0.09","98","1050","legacy","45","40","40","1","C:/Userdata/Michel/SpatialProb/IndividualPriorityMaps/Experiment2/data/subject-7.csv","legacy","9","192","25","Jazzy James","3.1.3","yes","598477b2b83f69022949e7e9","47","red","circular","red","rectangular","0","\","485","space","5517","5517","(80, 80, 80)","(0, 122, 0)","(179, 0, 0)","(155, 155, 155)","2","legacy","experiment","[6, 7, 0, 1, 2, 3, 4, 5]","\","2500","3000","0","8","252.758751519","1024","2","48000","-16","main","[(0, -252), (178, -178), (252, 0), (178, 178), (0, 252), (-178, 178), (-252, 0), (-178, -178)]","[]","7","odd","3","234866","266115","266115","140763","139756","1770","164975","164975","1770","1770","146280","362783","1766","266115","362295","361462","361462","NA","827","study_X","0","5517","1","yes","1680"
"undefined","undefined","5517","5517","black","no","legacy","legacy","legacy","0","red","(179, 0, 0)","shape","present","highProb","rectangular","same","swap","same","swap","red","(179, 0, 0)","lowProb","lowProb4","circular","uniform","1","undefined","0.21875","1","1","212.088541667","1","42","40721","0","0","0","0","0","0","0","0","66","0","1","0.21875","212.088541667","42","40721","66","66","66","08/17/17 17:04:01","Default description","yes","<openexp._canvas.legacy.legacy object at 0x048E27F0>","<openexp._canvas.legacy.legacy object at 0x048ED7B0>","<openexp._canvas.legacy.legacy object at 0x048DA510>","<openexp._canvas.legacy.legacy object at 0x049D09D0>","<openexp._canvas.legacy.legacy object at 0x049A14B0>","<openexp._canvas.legacy.legacy object at 0x048E9910>","<openexp._canvas.legacy.legacy object at 0x049A2A50>","75","IndividualPriorityWithDis_v1.osexp","C:/Userdata/Michel/SpatialProb/IndividualPriorityMaps/Experiment2","no","mono","no","18","no","white","no","yes","0.09","98","1050","legacy","315","41","41","1","C:/Userdata/Michel/SpatialProb/IndividualPriorityMaps/Experiment2/data/subject-7.csv","legacy","9","192","25","Jazzy James","3.1.3","yes","598477b2b83f69022949e7e9","47","red","rectangular","red","circular","0","/","791","space","5517","5517","(80, 80, 80)","(0, 122, 0)","(179, 0, 0)","(155, 155, 155)","2","legacy","experiment","[6, 7, 0, 1, 2, 3, 4, 5]","/","2500","3000","0","8","252.758751519","1024","2","48000","-16","main","[(0, -252), (178, -178), (252, 0), (178, 178), (0, 252), (-178, 178), (-252, 0), (-178, -178)]","[]","7","odd","3","234866","266115","266115","140763","139756","1770","164975","164975","1770","1770","146280","364831","1766","266115","364037","363204","363204","NA","827","study_X","0","5517","1","yes","1680"
"undefined","undefined","5517","5517","black","no","legacy","legacy","legacy","0","green","(0, 122, 0)","color","absent","lowProb1","rectangular","swap","same","swap","swap","green","(0, 122, 0)","highProbShape","highProbShape","rectangular","uniform","1","undefined","0.223958333333","1","1","216.765625","1","43","41619","0","0","0","0","0","0","0","0","67","0","1","0.223958333333","216.765625","43","41619","67","67","67","08/17/17 17:04:01","Default description","yes","<openexp._canvas.legacy.legacy object at 0x048E27F0>","<openexp._canvas.legacy.legacy object at 0x048ED7B0>","<openexp._canvas.legacy.legacy object at 0x048DA510>","<openexp._canvas.legacy.legacy object at 0x049D09D0>","<openexp._canvas.legacy.legacy object at 0x049A14B0>","<openexp._canvas.legacy.legacy object at 0x048E40D0>","<openexp._canvas.legacy.legacy object at 0x049A2A50>","75","IndividualPriorityWithDis_v1.osexp","C:/Userdata/Michel/SpatialProb/IndividualPriorityMaps/Experiment2","no","mono","no","18","no","white","no","yes","0.09","98","1050","legacy","315","42","42","1","C:/Userdata/Michel/SpatialProb/IndividualPriorityMaps/Experiment2/data/subject-7.csv","legacy","9","192","25","Jazzy James","3.1.3","yes","598477b2b83f69022949e7e9","47","green","rectangular","green","rectangular","0","/","898","space","5517","5517","(80, 80, 80)","(0, 122, 0)","(179, 0, 0)","(155, 155, 155)","2","legacy","experiment","[6, 7, 0, 1, 2, 3, 4, 5]","/","2500","3000","0","8","252.758751519","1024","2","48000","-16","main","[(0, -252), (178, -178), (252, 0), (178, 178), (0, 252), (-178, 178), (-252, 0), (-178, -178)]","[]","7","odd","2","234866","266115","266115","140763","139756","1770","164975","164975","1770","1770","146280","366967","1766","266115","366067","365234","365234","NA","827","study_X","0","5517","1","yes","1680"
"undefined","undefined","5517","5517","black","no","legacy","legacy","legacy","0","red","(179, 0, 0)","color","present","highProb","circular","swap","swap","same","swap","green","(0, 122, 0)","lowProb","lowProb6","circular","uniform","1","undefined","0.229166666667","1","1","219.78125","1","44","42198","0","0","0","0","0","0","0","0","68","0","1","0.229166666667","219.78125","44","42198","68","68","68","08/17/17 17:04:01","Default description","yes","<openexp._canvas.legacy.legacy object at 0x048E27F0>","<openexp._canvas.legacy.legacy object at 0x048ED7B0>","<openexp._canvas.legacy.legacy object at 0x048DA510>","<openexp._canvas.legacy.legacy object at 0x049D09D0>","<openexp._canvas.legacy.legacy object at 0x049A14B0>","<openexp._canvas.legacy.legacy object at 0x048E4AD0>","<openexp._canvas.legacy.legacy object at 0x049A2A50>","75","IndividualPriorityWithDis_v1.osexp","C:/Userdata/Michel/SpatialProb/IndividualPriorityMaps/Experiment2","no","mono","no","18","no","white","no","yes","0.09","98","1050","legacy","315","43","43","1","C:/Userdata/Michel/SpatialProb/IndividualPriorityMaps/Experiment2/data/subject-7.csv","legacy","9","192","25","Jazzy James","3.1.3","yes","598477b2b83f69022949e7e9","47","red","circular","green","circular","0","/","579","space","5517","5517","(80, 80, 80)","(0, 122, 0)","(179, 0, 0)","(155, 155, 155)","2","legacy","experiment","[6, 7, 0, 1, 2, 3, 4, 5]","/","2500","3000","0","8","252.758751519","1024","2","48000","-16","main","[(0, -252), (178, -178), (252, 0), (178, 178), (0, 252), (-178, 178), (-252, 0), (-178, -178)]","[]","7","odd","5","234866","266115","266115","140763","139756","1770","164975","164975","1770","1770","146280","368823","1766","266115","368240","367407","367407","NA","827","study_X","0","5517","1","yes","1680"
"undefined","undefined","5517","5517","black","no","legacy","legacy","legacy","0","green","(0, 122, 0)","color","present","highProb","rectangular","swap","swap","swap","swap","red","(179, 0, 0)","lowProb","lowProb1","rectangular","uniform","1","undefined","0.234375","1","1","222.645833333","1","45","42748","0","0","0","0","0","0","0","0","69","0","1","0.234375","222.645833333","45","42748","69","69","69","08/17/17 17:04:01","Default description","yes","<openexp._canvas.legacy.legacy object at 0x048E27F0>","<openexp._canvas.legacy.legacy object at 0x048ED7B0>","<openexp._canvas.legacy.legacy object at 0x048DA510>","<openexp._canvas.legacy.legacy object at 0x049D09D0>","<openexp._canvas.legacy.legacy object at 0x049A14B0>","<openexp._canvas.legacy.legacy object at 0x048EDE90>","<openexp._canvas.legacy.legacy object at 0x049A2A50>","75","IndividualPriorityWithDis_v1.osexp","C:/Userdata/Michel/SpatialProb/IndividualPriorityMaps/Experiment2","no","mono","no","18","no","white","no","yes","0.09","98","1050","legacy","45","44","44","1","C:/Userdata/Michel/SpatialProb/IndividualPriorityMaps/Experiment2/data/subject-7.csv","legacy","9","192","25","Jazzy James","3.1.3","yes","598477b2b83f69022949e7e9","47","green","rectangular","red","rectangular","0","\","550","space","5517","5517","(80, 80, 80)","(0, 122, 0)","(179, 0, 0)","(155, 155, 155)","2","legacy","experiment","[6, 7, 0, 1, 2, 3, 4, 5]","\","2500","3000","0","8","252.758751519","1024","2","48000","-16","main","[(0, -252), (178, -178), (252, 0), (178, 178), (0, 252), (-178, 178), (-252, 0), (-178, -178)]","[]","7","odd","7","234866","266115","266115","140763","139756","1770","164975","164975","1770","1770","146280","370639","1766","266115","370086","369253","369253","NA","827","study_X","0","5517","1","yes","1680"
"undefined","undefined","5517","5517","black","no","legacy","legacy","legacy","0","red","(179, 0, 0)","color","present","lowProb5","circular","swap","swap","swap","swap","green","(0, 122, 0)","lowProb","lowProb6","circular","uniform","1","undefined","0.239583333333","1","1","230.057291667","1","46","44171","0","0","0","0","0","0","0","0","70","0","1","0.239583333333","230.057291667","46","44171","70","70","70","08/17/17 17:04:01","Default description","yes","<openexp._canvas.legacy.legacy object at 0x048E27F0>","<openexp._canvas.legacy.legacy object at 0x048ED7B0>","<openexp._canvas.legacy.legacy object at 0x048DA510>","<openexp._canvas.legacy.legacy object at 0x049D09D0>","<openexp._canvas.legacy.legacy object at 0x049A14B0>","<openexp._canvas.legacy.legacy object at 0x048DFE10>","<openexp._canvas.legacy.legacy object at 0x049A2A50>","75","IndividualPriorityWithDis_v1.osexp","C:/Userdata/Michel/SpatialProb/IndividualPriorityMaps/Experiment2","no","mono","no","18","no","white","no","yes","0.09","98","1050","legacy","45","45","45","1","C:/Userdata/Michel/SpatialProb/IndividualPriorityMaps/Experiment2/data/subject-7.csv","legacy","9","192","25","Jazzy James","3.1.3","yes","598477b2b83f69022949e7e9","47","red","circular","green","circular","0","\","1423","space","5517","5517","(80, 80, 80)","(0, 122, 0)","(179, 0, 0)","(155, 155, 155)","2","legacy","experiment","[6, 7, 0, 1, 2, 3, 4, 5]","\","2500","3000","0","8","252.758751519","1024","2","48000","-16","main","[(0, -252), (178, -178), (252, 0), (178, 178), (0, 252), (-178, 178), (-252, 0), (-178, -178)]","[]","7","odd","5","234866","266115","266115","140763","139756","1770","164975","164975","1770","1770","146280","373327","1766","266115","371900","371067","371067","NA","827","study_X","0","5517","1","yes","1680"
"undefined","undefined","5517","5517","black","no","legacy","legacy","legacy","0","green","(0, 122, 0)","shape","absent","highProbOther","rectangular","swap","swap","same","swap","green","(0, 122, 0)","highProbShape","highProbShape","rectangular","uniform","1","undefined","0.244791666667","1","1","236.364583333","1","47","45382","0","0","0","0","0","0","0","0","71","0","1","0.244791666667","236.364583333","47","45382","71","71","71","08/17/17 17:04:01","Default description","yes","<openexp._canvas.legacy.legacy object at 0x048E27F0>","<openexp._canvas.legacy.legacy object at 0x048ED7B0>","<openexp._canvas.legacy.legacy object at 0x048DA510>","<openexp._canvas.legacy.legacy object at 0x049D09D0>","<openexp._canvas.legacy.legacy object at 0x049A14B0>","<openexp._canvas.legacy.legacy object at 0x049CBE90>","<openexp._canvas.legacy.legacy object at 0x049A2A50>","75","IndividualPriorityWithDis_v1.osexp","C:/Userdata/Michel/SpatialProb/IndividualPriorityMaps/Experiment2","no","mono","no","18","no","white","no","yes","0.09","98","1050","legacy","315","46","46","1","C:/Userdata/Michel/SpatialProb/IndividualPriorityMaps/Experiment2/data/subject-7.csv","legacy","9","192","25","Jazzy James","3.1.3","yes","598477b2b83f69022949e7e9","47","green","rectangular","green","rectangular","0","/","1211","space","5517","5517","(80, 80, 80)","(0, 122, 0)","(179, 0, 0)","(155, 155, 155)","2","legacy","experiment","[6, 7, 0, 1, 2, 3, 4, 5]","/","2500","3000","0","8","252.758751519","1024","2","48000","-16","main","[(0, -252), (178, -178), (252, 0), (178, 178), (0, 252), (-178, 178), (-252, 0), (-178, -178)]","[]","7","odd","2","234866","266115","266115","140763","139756","1770","164975","164975","1770","1770","146280","375798","1766","266115","374584","373751","373751","NA","827","study_X","0","5517","1","yes","1680"
"undefined","undefined","5517","5517","black","no","legacy","legacy","legacy","0","green","(0, 122, 0)","shape","present","highProb","circular","same","swap","same","same","green","(0, 122, 0)","lowProb","lowProb5","rectangular","uniform","1","undefined","0.25","1","1","243.567708333","1","48","46765","0","0","0","0","0","0","0","0","72","0","1","0.25","243.567708333","48","46765","72","72","72","08/17/17 17:04:01","Default description","yes","<openexp._canvas.legacy.legacy object at 0x048E27F0>","<openexp._canvas.legacy.legacy object at 0x048ED7B0>","<openexp._canvas.legacy.legacy object at 0x048DA510>","<openexp._canvas.legacy.legacy object at 0x049D09D0>","<openexp._canvas.legacy.legacy object at 0x049A14B0>","<openexp._canvas.legacy.legacy object at 0x049D02B0>","<openexp._canvas.legacy.legacy object at 0x049A2A50>","75","IndividualPriorityWithDis_v1.osexp","C:/Userdata/Michel/SpatialProb/IndividualPriorityMaps/Experiment2","no","mono","no","18","no","white","no","yes","0.09","98","1050","legacy","45","47","47","1","C:/Userdata/Michel/SpatialProb/IndividualPriorityMaps/Experiment2/data/subject-7.csv","legacy","9","192","25","Jazzy James","3.1.3","yes","598477b2b83f69022949e7e9","47","green","circular","green","rectangular","0","\","1383","space","5517","5517","(80, 80, 80)","(0, 122, 0)","(179, 0, 0)","(155, 155, 155)","2","legacy","experiment","[6, 7, 0, 1, 2, 3, 4, 5]","\","2500","3000","0","8","252.758751519","1024","2","48000","-16","main","[(0, -252), (178, -178), (252, 0), (178, 178), (0, 252), (-178, 178), (-252, 0), (-178, -178)]","[]","7","odd","4","234866","266115","266115","140763","139756","1770","164975","164975","1770","1770","146280","378439","1766","266115","377053","376220","376220","NA","827","study_X","0","5517","1","yes","1680"
"undefined","undefined","5517","5517","black","no","legacy","legacy","legacy","0","red","(179, 0, 0)","color","present","highProbOther","circular","swap","same","same","swap","green","(0, 122, 0)","lowProb","lowProb5","circular","uniform","1","undefined","0.255208333333","1","1","247.067708333","1","49","47437","0","0","0","0","0","0","0","0","73","0","1","0.255208333333","247.067708333","49","47437","73","73","73","08/17/17 17:04:01","Default description","yes","<openexp._canvas.legacy.legacy object at 0x048E27F0>","<openexp._canvas.legacy.legacy object at 0x048ED7B0>","<openexp._canvas.legacy.legacy object at 0x048DA510>","<openexp._canvas.legacy.legacy object at 0x049D09D0>","<openexp._canvas.legacy.legacy object at 0x049A14B0>","<openexp._canvas.legacy.legacy object at 0x048F8270>","<openexp._canvas.legacy.legacy object at 0x049A2A50>","75","IndividualPriorityWithDis_v1.osexp","C:/Userdata/Michel/SpatialProb/IndividualPriorityMaps/Experiment2","no","mono","no","18","no","white","no","yes","0.09","98","1050","legacy","315","48","48","1","C:/Userdata/Michel/SpatialProb/IndividualPriorityMaps/Experiment2/data/subject-7.csv","legacy","9","192","25","Jazzy James","3.1.3","yes","598477b2b83f69022949e7e9","47","red","circular","green","circular","0","/","672","space","5517","5517","(80, 80, 80)","(0, 122, 0)","(179, 0, 0)","(155, 155, 155)","2","legacy","experiment","[6, 7, 0, 1, 2, 3, 4, 5]","/","2500","3000","0","8","252.758751519","1024","2","48000","-16","main","[(0, -252), (178, -178), (252, 0), (178, 178), (0, 252), (-178, 178), (-252, 0), (-178, -178)]","[]","7","odd","4","234866","266115","266115","140763","139756","1770","164975","164975","1770","1770","146280","380375","1766","266115","379700","378867","378867","NA","827","study_X","0","5517","1","yes","1680"
"undefined","undefined","5517","5517","black","no","legacy","legacy","legacy","0","green","(0, 122, 0)","color","present","highProb","rectangular","swap","swap","swap","swap","red","(179, 0, 0)","lowProb","lowProb2","rectangular","uniform","1","undefined","0.260416666667","1","1","254.692708333","1","50","48901","0","0","0","0","0","0","0","0","74","0","1","0.260416666667","254.692708333","50","48901","74","74","74","08/17/17 17:04:01","Default description","yes","<openexp._canvas.legacy.legacy object at 0x048E27F0>","<openexp._canvas.legacy.legacy object at 0x048ED7B0>","<openexp._canvas.legacy.legacy object at 0x048DA510>","<openexp._canvas.legacy.legacy object at 0x049D09D0>","<openexp._canvas.legacy.legacy object at 0x049A14B0>","<openexp._canvas.legacy.legacy object at 0x049D1BD0>","<openexp._canvas.legacy.legacy object at 0x049A2A50>","75","IndividualPriorityWithDis_v1.osexp","C:/Userdata/Michel/SpatialProb/IndividualPriorityMaps/Experiment2","no","mono","no","18","no","white","no","yes","0.09","98","1050","legacy","315","49","49","1","C:/Userdata/Michel/SpatialProb/IndividualPriorityMaps/Experiment2/data/subject-7.csv","legacy","9","192","25","Jazzy James","3.1.3","yes","598477b2b83f69022949e7e9","47","green","rectangular","red","rectangular","0","/","1464","space","5517","5517","(80, 80, 80)","(0, 122, 0)","(179, 0, 0)","(155, 155, 155)","2","legacy","experiment","[6, 7, 0, 1, 2, 3, 4, 5]","/","2500","3000","0","8","252.758751519","1024","2","48000","-16","main","[(0, -252), (178, -178), (252, 0), (178, 178), (0, 252), (-178, 178), (-252, 0), (-178, -178)]","[]","7","odd","0","234866","266115","266115","140763","139756","1770","164975","164975","1770","1770","146280","383103","1766","266115","381636","380803","380803","NA","827","study_X","0","5517","1","yes","1680"
"undefined","undefined","5517","5517","black","no","legacy","legacy","legacy","0","red","(179, 0, 0)","shape","present","highProb","rectangular","swap","same","same","swap","red","(179, 0, 0)","lowProb","lowProb4","circular","uniform","1","undefined","0.265625","1","1","257.932291667","1","51","49523","0","0","0","0","0","0","0","0","75","0","1","0.265625","257.932291667","51","49523","75","75","75","08/17/17 17:04:01","Default description","yes","<openexp._canvas.legacy.legacy object at 0x048E27F0>","<openexp._canvas.legacy.legacy object at 0x048ED7B0>","<openexp._canvas.legacy.legacy object at 0x048DA510>","<openexp._canvas.legacy.legacy object at 0x049D09D0>","<openexp._canvas.legacy.legacy object at 0x049A14B0>","<openexp._canvas.legacy.legacy object at 0x048DE330>","<openexp._canvas.legacy.legacy object at 0x049A2A50>","75","IndividualPriorityWithDis_v1.osexp","C:/Userdata/Michel/SpatialProb/IndividualPriorityMaps/Experiment2","no","mono","no","18","no","white","no","yes","0.09","98","1050","legacy","45","50","50","1","C:/Userdata/Michel/SpatialProb/IndividualPriorityMaps/Experiment2/data/subject-7.csv","legacy","9","192","25","Jazzy James","3.1.3","yes","598477b2b83f69022949e7e9","47","red","rectangular","red","circular","0","\","622","space","5517","5517","(80, 80, 80)","(0, 122, 0)","(179, 0, 0)","(155, 155, 155)","2","legacy","experiment","[6, 7, 0, 1, 2, 3, 4, 5]","\","2500","3000","0","8","252.758751519","1024","2","48000","-16","main","[(0, -252), (178, -178), (252, 0), (178, 178), (0, 252), (-178, 178), (-252, 0), (-178, -178)]","[]","7","odd","3","234866","266115","266115","140763","139756","1770","164975","164975","1770","1770","146280","384999","1766","266115","384374","383542","383542","NA","827","study_X","0","5517","1","yes","1680"
"undefined","undefined","5517","5517","black","no","legacy","legacy","legacy","0","green","(0, 122, 0)","color","present","highProb","circular","swap","swap","same","same","red","(179, 0, 0)","lowProb","lowProb4","circular","uniform","1","undefined","0.270833333333","1","1","260.510416667","1","52","50018","0","0","0","0","0","0","0","0","76","0","1","0.270833333333","260.510416667","52","50018","76","76","76","08/17/17 17:04:01","Default description","yes","<openexp._canvas.legacy.legacy object at 0x048E27F0>","<openexp._canvas.legacy.legacy object at 0x048ED7B0>","<openexp._canvas.legacy.legacy object at 0x048DA510>","<openexp._canvas.legacy.legacy object at 0x049D09D0>","<openexp._canvas.legacy.legacy object at 0x049A14B0>","<openexp._canvas.legacy.legacy object at 0x048F1AB0>","<openexp._canvas.legacy.legacy object at 0x049A2A50>","75","IndividualPriorityWithDis_v1.osexp","C:/Userdata/Michel/SpatialProb/IndividualPriorityMaps/Experiment2","no","mono","no","18","no","white","no","yes","0.09","98","1050","legacy","45","51","51","1","C:/Userdata/Michel/SpatialProb/IndividualPriorityMaps/Experiment2/data/subject-7.csv","legacy","9","192","25","Jazzy James","3.1.3","yes","598477b2b83f69022949e7e9","47","green","circular","red","circular","0","\","495","space","5517","5517","(80, 80, 80)","(0, 122, 0)","(179, 0, 0)","(155, 155, 155)","2","legacy","experiment","[6, 7, 0, 1, 2, 3, 4, 5]","\","2500","3000","0","8","252.758751519","1024","2","48000","-16","main","[(0, -252), (178, -178), (252, 0), (178, 178), (0, 252), (-178, 178), (-252, 0), (-178, -178)]","[]","7","odd","3","234866","266115","266115","140763","139756","1770","164975","164975","1770","1770","146280","386743","1766","266115","386244","385411","385411","NA","827","study_X","0","5517","1","yes","1680"
"undefined","undefined","5517","5517","black","no","legacy","legacy","legacy","0","red","(179, 0, 0)","shape","absent","lowProb3","circular","swap","same","same","same","red","(179, 0, 0)","lowProb","lowProb2","circular","uniform","1","undefined","0.276041666667","1","1","264.572916667","1","53","50798","0","0","0","0","0","0","0","0","77","0","1","0.276041666667","264.572916667","53","50798","77","77","77","08/17/17 17:04:01","Default description","yes","<openexp._canvas.legacy.legacy object at 0x048E27F0>","<openexp._canvas.legacy.legacy object at 0x048ED7B0>","<openexp._canvas.legacy.legacy object at 0x048DA510>","<openexp._canvas.legacy.legacy object at 0x049D09D0>","<openexp._canvas.legacy.legacy object at 0x049A14B0>","<openexp._canvas.legacy.legacy object at 0x048F3A50>","<openexp._canvas.legacy.legacy object at 0x049A2A50>","75","IndividualPriorityWithDis_v1.osexp","C:/Userdata/Michel/SpatialProb/IndividualPriorityMaps/Experiment2","no","mono","no","18","no","white","no","yes","0.09","98","1050","legacy","45","52","52","1","C:/Userdata/Michel/SpatialProb/IndividualPriorityMaps/Experiment2/data/subject-7.csv","legacy","9","192","25","Jazzy James","3.1.3","yes","598477b2b83f69022949e7e9","47","red","circular","red","circular","0","\","780","space","5517","5517","(80, 80, 80)","(0, 122, 0)","(179, 0, 0)","(155, 155, 155)","2","legacy","experiment","[6, 7, 0, 1, 2, 3, 4, 5]","\","2500","3000","0","8","252.758751519","1024","2","48000","-16","main","[(0, -252), (178, -178), (252, 0), (178, 178), (0, 252), (-178, 178), (-252, 0), (-178, -178)]","[]","7","odd","0","234866","266115","266115","140763","139756","1770","164975","164975","1770","1770","146280","388791","1766","266115","388007","387175","387175","NA","827","study_X","0","5517","1","yes","1680"
"undefined","undefined","5517","5517","black","no","legacy","legacy","legacy","0","green","(0, 122, 0)","shape","absent","lowProb2","circular","swap","same","swap","same","green","(0, 122, 0)","lowProb","lowProb1","circular","uniform","1","undefined","0.28125","1","1","271.541666667","1","54","52136","0","0","0","0","0","0","0","0","78","0","1","0.28125","271.541666667","54","52136","78","78","78","08/17/17 17:04:01","Default description","yes","<openexp._canvas.legacy.legacy object at 0x048E27F0>","<openexp._canvas.legacy.legacy object at 0x048ED7B0>","<openexp._canvas.legacy.legacy object at 0x048DA510>","<openexp._canvas.legacy.legacy object at 0x049D09D0>","<openexp._canvas.legacy.legacy object at 0x049A14B0>","<openexp._canvas.legacy.legacy object at 0x048DAED0>","<openexp._canvas.legacy.legacy object at 0x049A2A50>","75","IndividualPriorityWithDis_v1.osexp","C:/Userdata/Michel/SpatialProb/IndividualPriorityMaps/Experiment2","no","mono","no","18","no","white","no","yes","0.09","98","1050","legacy","315","53","53","1","C:/Userdata/Michel/SpatialProb/IndividualPriorityMaps/Experiment2/data/subject-7.csv","legacy","9","192","25","Jazzy James","3.1.3","yes","598477b2b83f69022949e7e9","47","green","circular","green","circular","0","/","1338","space","5517","5517","(80, 80, 80)","(0, 122, 0)","(179, 0, 0)","(155, 155, 155)","2","legacy","experiment","[6, 7, 0, 1, 2, 3, 4, 5]","/","2500","3000","0","8","252.758751519","1024","2","48000","-16","main","[(0, -252), (178, -178), (252, 0), (178, 178), (0, 252), (-178, 178), (-252, 0), (-178, -178)]","[]","7","odd","7","234866","266115","266115","140763","139756","1770","164975","164975","1770","1770","146280","391414","1766","266115","390073","389240","389240","NA","827","study_X","0","5517","1","yes","1680"
