"acc","accuracy","average_response_time","avg_rt","background","bidi","canvas_backend","clock_backend","color_backend","compensation","cond_disColor","cond_disColorRGB","cond_disFeature","cond_disPresent","cond_disProbability","cond_disShape","cond_primingDisColor","cond_primingDisShape","cond_primingTarColor","cond_primingTarShape","cond_tarColor","cond_tarColorRGB","cond_tarLocation","cond_tarLocationLong","cond_tarShape","coordinates","correct","correct_continuePress","count_blockAcc","count_blockFeed","count_blockLoop","count_blockRT","count_blockSeq","count_blockSumCorrect","count_blockSumRT","count_continuePress","count_example","count_expSettings","count_exp_mainLoop","count_experiment","count_instructions","count_instructions1","count_instructions2","count_log","count_main","count_prepCanvas","count_totalAcc","count_totalRT","count_totalSumCorrect","count_totalSumRT","count_trialResp","count_trialSeq","count_trialTask","datetime","description","disable_garbage_collection","dispBlank","dispBlockStart","dispFeedBlock","dispFix","dispInstructions","dispSearch","dispStartScreen","distance2screen","experiment_file","experiment_path","font_bold","font_family","font_italic","font_size","font_underline","foreground","form_clicks","fullscreen","gaborFreq","gaborSize","height","keyboard_backend","lineOriTar","live_row","live_row_blockLoop","live_row_exp_mainLoop","logfile","mouse_backend","noExpBlocks","noExpTrials","noPracTrials","opensesame_codename","opensesame_version","osf_always_upload_experiment","osf_id","physical_screensize","previousDisColor","previousDisShape","previousTarColor","previousTarShape","repeat_cycle","response","responseTime","response_continuePress","response_time","response_time_continuePress","rgb_gray","rgb_green","rgb_red","rgb_white","round_decimals","sampler_backend","set_blockType","set_counterPositions","set_respCorrect","set_respTimeoutExp","set_respTimeoutPrac","set_rotation","set_setSize","sizeImaginary","sound_buf_size","sound_channels","sound_freq","sound_sample_size","start","stimPositions","stimuli","subject_nr","subject_parity","tarIdx","time_blockFeed","time_blockLoop","time_blockSeq","time_continuePress","time_example","time_expSettings","time_exp_mainLoop","time_experiment","time_instructions","time_instructions1","time_instructions2","time_log","time_main","time_prepCanvas","time_trialResp","time_trialSeq","time_trialTask","timing_EEGwait","timing_fix","title","total_correct","total_response_time","total_responses","uniform_coordinates","width"
"undefined","undefined","18958","18958","black","no","legacy","legacy","legacy","0","green","(0, 122, 0)","color","present","highProb","rectangular","same","same","same","same","red","(179, 0, 0)","lowProb","lowProb1","rectangular","uniform","1","undefined","0.00520833333333","1","1","3.36979166667","1","1","647","0","0","0","0","0","0","0","0","25","0","1","0.00520833333333","3.36979166667","1","647","25","25","25","08/22/17 10:01:18","Default description","yes","<openexp._canvas.legacy.legacy object at 0x04AE27F0>","<openexp._canvas.legacy.legacy object at 0x04AEE7B0>","<openexp._canvas.legacy.legacy object at 0x04ADA510>","<openexp._canvas.legacy.legacy object at 0x04BD09D0>","<openexp._canvas.legacy.legacy object at 0x04BA14B0>","<openexp._canvas.legacy.legacy object at 0x04ADE550>","<openexp._canvas.legacy.legacy object at 0x04BA2A50>","75","IndividualPriorityWithDis_v1.osexp","C:/Userdata/Michel/SpatialProb/IndividualPriorityMaps/Experiment2","no","mono","no","18","no","white","no","yes","0.09","98","1050","legacy","45","0","0","1","C:/Userdata/Michel/SpatialProb/IndividualPriorityMaps/Experiment2/data/subject-13.csv","legacy","9","192","25","Jazzy James","3.1.3","yes","598477b2b83f69022949e7e9","47","green","rectangular","red","rectangular","0","\","647","space","18958","18958","(80, 80, 80)","(0, 122, 0)","(179, 0, 0)","(155, 155, 155)","2","legacy","experiment","[4, 5, 6, 7, 0, 1, 2, 3]","\","2500","3000","0","8","252.758751519","1024","2","48000","-16","main","[(0, -252), (178, -178), (252, 0), (178, 178), (0, 252), (-178, 178), (-252, 0), (-178, -178)]","[]","13","odd","5","181989","207212","207212","93972","92966","1808","121592","121592","1808","1808","112930","214065","1805","207212","213415","207600","207600","NA","739","study_X","0","18958","1","yes","1680"
"undefined","undefined","18958","18958","black","no","legacy","legacy","legacy","0","green","(0, 122, 0)","shape","present","lowProb3","rectangular","same","same","swap","swap","green","(0, 122, 0)","lowProb","lowProb4","circular","uniform","1","undefined","0.0104166666667","1","1","7.99479166667","1","2","1535","0","0","0","0","0","0","0","0","26","0","1","0.0104166666667","7.99479166667","2","1535","26","26","26","08/22/17 10:01:18","Default description","yes","<openexp._canvas.legacy.legacy object at 0x04AE27F0>","<openexp._canvas.legacy.legacy object at 0x04AEE7B0>","<openexp._canvas.legacy.legacy object at 0x04ADA510>","<openexp._canvas.legacy.legacy object at 0x04BD09D0>","<openexp._canvas.legacy.legacy object at 0x04BA14B0>","<openexp._canvas.legacy.legacy object at 0x04AEEFB0>","<openexp._canvas.legacy.legacy object at 0x04BA2A50>","75","IndividualPriorityWithDis_v1.osexp","C:/Userdata/Michel/SpatialProb/IndividualPriorityMaps/Experiment2","no","mono","no","18","no","white","no","yes","0.09","98","1050","legacy","45","1","1","1","C:/Userdata/Michel/SpatialProb/IndividualPriorityMaps/Experiment2/data/subject-13.csv","legacy","9","192","25","Jazzy James","3.1.3","yes","598477b2b83f69022949e7e9","47","green","rectangular","green","circular","0","\","888","space","18958","18958","(80, 80, 80)","(0, 122, 0)","(179, 0, 0)","(155, 155, 155)","2","legacy","experiment","[4, 5, 6, 7, 0, 1, 2, 3]","\","2500","3000","0","8","252.758751519","1024","2","48000","-16","main","[(0, -252), (178, -178), (252, 0), (178, 178), (0, 252), (-178, 178), (-252, 0), (-178, -178)]","[]","13","odd","1","181989","207212","207212","93972","92966","1808","121592","121592","1808","1808","112930","216137","1805","207212","215247","214502","214502","NA","739","study_X","0","18958","1","yes","1680"
"undefined","undefined","18958","18958","black","no","legacy","legacy","legacy","0","red","(179, 0, 0)","shape","present","highProb","circular","swap","swap","swap","swap","red","(179, 0, 0)","lowProb","lowProb5","rectangular","uniform","1","undefined","0.015625","1","1","14.15625","1","3","2718","0","0","0","0","0","0","0","0","27","0","1","0.015625","14.15625","3","2718","27","27","27","08/22/17 10:01:18","Default description","yes","<openexp._canvas.legacy.legacy object at 0x04AE27F0>","<openexp._canvas.legacy.legacy object at 0x04AEE7B0>","<openexp._canvas.legacy.legacy object at 0x04ADA510>","<openexp._canvas.legacy.legacy object at 0x04BD09D0>","<openexp._canvas.legacy.legacy object at 0x04BA14B0>","<openexp._canvas.legacy.legacy object at 0x04ADF950>","<openexp._canvas.legacy.legacy object at 0x04BA2A50>","75","IndividualPriorityWithDis_v1.osexp","C:/Userdata/Michel/SpatialProb/IndividualPriorityMaps/Experiment2","no","mono","no","18","no","white","no","yes","0.09","98","1050","legacy","45","2","2","1","C:/Userdata/Michel/SpatialProb/IndividualPriorityMaps/Experiment2/data/subject-13.csv","legacy","9","192","25","Jazzy James","3.1.3","yes","598477b2b83f69022949e7e9","47","red","circular","red","rectangular","0","\","1183","space","18958","18958","(80, 80, 80)","(0, 122, 0)","(179, 0, 0)","(155, 155, 155)","2","legacy","experiment","[4, 5, 6, 7, 0, 1, 2, 3]","\","2500","3000","0","8","252.758751519","1024","2","48000","-16","main","[(0, -252), (178, -178), (252, 0), (178, 178), (0, 252), (-178, 178), (-252, 0), (-178, -178)]","[]","13","odd","2","181989","207212","207212","93972","92966","1808","121592","121592","1808","1808","112930","218473","1805","207212","217288","216543","216543","NA","739","study_X","0","18958","1","yes","1680"
"undefined","undefined","18958","18958","black","no","legacy","legacy","legacy","0","green","(0, 122, 0)","color","present","lowProb1","rectangular","swap","swap","same","same","red","(179, 0, 0)","lowProb","lowProb6","rectangular","uniform","1","undefined","0.0208333333333","1","1","18.65625","1","4","3582","0","0","0","0","0","0","0","0","28","0","1","0.0208333333333","18.65625","4","3582","28","28","28","08/22/17 10:01:18","Default description","yes","<openexp._canvas.legacy.legacy object at 0x04AE27F0>","<openexp._canvas.legacy.legacy object at 0x04AEE7B0>","<openexp._canvas.legacy.legacy object at 0x04ADA510>","<openexp._canvas.legacy.legacy object at 0x04BD09D0>","<openexp._canvas.legacy.legacy object at 0x04BA14B0>","<openexp._canvas.legacy.legacy object at 0x04ADA4B0>","<openexp._canvas.legacy.legacy object at 0x04BA2A50>","75","IndividualPriorityWithDis_v1.osexp","C:/Userdata/Michel/SpatialProb/IndividualPriorityMaps/Experiment2","no","mono","no","18","no","white","no","yes","0.09","98","1050","legacy","315","3","3","1","C:/Userdata/Michel/SpatialProb/IndividualPriorityMaps/Experiment2/data/subject-13.csv","legacy","9","192","25","Jazzy James","3.1.3","yes","598477b2b83f69022949e7e9","47","green","rectangular","red","rectangular","0","/","864","space","18958","18958","(80, 80, 80)","(0, 122, 0)","(179, 0, 0)","(155, 155, 155)","2","legacy","experiment","[4, 5, 6, 7, 0, 1, 2, 3]","/","2500","3000","0","8","252.758751519","1024","2","48000","-16","main","[(0, -252), (178, -178), (252, 0), (178, 178), (0, 252), (-178, 178), (-252, 0), (-178, -178)]","[]","13","odd","3","181989","207212","207212","93972","92966","1808","121592","121592","1808","1808","112930","220505","1805","207212","219638","218893","218893","NA","739","study_X","0","18958","1","yes","1680"
"undefined","undefined","18958","18958","black","no","legacy","legacy","legacy","0","green","(0, 122, 0)","shape","absent","lowProb3","rectangular","same","same","swap","same","green","(0, 122, 0)","lowProb","lowProb3","rectangular","uniform","1","undefined","0.0260416666667","1","1","22.171875","1","5","4257","0","0","0","0","0","0","0","0","29","0","1","0.0260416666667","22.171875","5","4257","29","29","29","08/22/17 10:01:18","Default description","yes","<openexp._canvas.legacy.legacy object at 0x04AE27F0>","<openexp._canvas.legacy.legacy object at 0x04AEE7B0>","<openexp._canvas.legacy.legacy object at 0x04ADA510>","<openexp._canvas.legacy.legacy object at 0x04BD09D0>","<openexp._canvas.legacy.legacy object at 0x04BA14B0>","<openexp._canvas.legacy.legacy object at 0x04ADFF50>","<openexp._canvas.legacy.legacy object at 0x04BA2A50>","75","IndividualPriorityWithDis_v1.osexp","C:/Userdata/Michel/SpatialProb/IndividualPriorityMaps/Experiment2","no","mono","no","18","no","white","no","yes","0.09","98","1050","legacy","45","4","4","1","C:/Userdata/Michel/SpatialProb/IndividualPriorityMaps/Experiment2/data/subject-13.csv","legacy","9","192","25","Jazzy James","3.1.3","yes","598477b2b83f69022949e7e9","47","green","rectangular","green","rectangular","0","\","675","space","18958","18958","(80, 80, 80)","(0, 122, 0)","(179, 0, 0)","(155, 155, 155)","2","legacy","experiment","[4, 5, 6, 7, 0, 1, 2, 3]","\","2500","3000","0","8","252.758751519","1024","2","48000","-16","main","[(0, -252), (178, -178), (252, 0), (178, 178), (0, 252), (-178, 178), (-252, 0), (-178, -178)]","[]","13","odd","7","181989","207212","207212","93972","92966","1808","121592","121592","1808","1808","112930","222345","1805","207212","221667","220922","220922","NA","739","study_X","0","18958","1","yes","1680"
"undefined","undefined","18958","18958","black","no","legacy","legacy","legacy","0","red","(179, 0, 0)","shape","present","highProb","rectangular","swap","same","swap","swap","red","(179, 0, 0)","lowProb","lowProb3","circular","uniform","1","undefined","0.03125","1","1","26.6354166667","1","6","5114","0","0","0","0","0","0","0","0","30","0","1","0.03125","26.6354166667","6","5114","30","30","30","08/22/17 10:01:18","Default description","yes","<openexp._canvas.legacy.legacy object at 0x04AE27F0>","<openexp._canvas.legacy.legacy object at 0x04AEE7B0>","<openexp._canvas.legacy.legacy object at 0x04ADA510>","<openexp._canvas.legacy.legacy object at 0x04BD09D0>","<openexp._canvas.legacy.legacy object at 0x04BA14B0>","<openexp._canvas.legacy.legacy object at 0x04BD02B0>","<openexp._canvas.legacy.legacy object at 0x04BA2A50>","75","IndividualPriorityWithDis_v1.osexp","C:/Userdata/Michel/SpatialProb/IndividualPriorityMaps/Experiment2","no","mono","no","18","no","white","no","yes","0.09","98","1050","legacy","45","5","5","1","C:/Userdata/Michel/SpatialProb/IndividualPriorityMaps/Experiment2/data/subject-13.csv","legacy","9","192","25","Jazzy James","3.1.3","yes","598477b2b83f69022949e7e9","47","red","rectangular","red","circular","0","\","857","space","18958","18958","(80, 80, 80)","(0, 122, 0)","(179, 0, 0)","(155, 155, 155)","2","legacy","experiment","[4, 5, 6, 7, 0, 1, 2, 3]","\","2500","3000","0","8","252.758751519","1024","2","48000","-16","main","[(0, -252), (178, -178), (252, 0), (178, 178), (0, 252), (-178, 178), (-252, 0), (-178, -178)]","[]","13","odd","7","181989","207212","207212","93972","92966","1808","121592","121592","1808","1808","112930","224369","1805","207212","223508","222763","222763","NA","739","study_X","0","18958","1","yes","1680"
"undefined","undefined","18958","18958","black","no","legacy","legacy","legacy","0","green","(0, 122, 0)","color","present","highProb","circular","swap","swap","same","same","red","(179, 0, 0)","lowProb","lowProb5","circular","uniform","1","undefined","0.0364583333333","1","1","30.6614583333","1","7","5887","0","0","0","0","0","0","0","0","31","0","1","0.0364583333333","30.6614583333","7","5887","31","31","31","08/22/17 10:01:18","Default description","yes","<openexp._canvas.legacy.legacy object at 0x04AE27F0>","<openexp._canvas.legacy.legacy object at 0x04AEE7B0>","<openexp._canvas.legacy.legacy object at 0x04ADA510>","<openexp._canvas.legacy.legacy object at 0x04BD09D0>","<openexp._canvas.legacy.legacy object at 0x04BA14B0>","<openexp._canvas.legacy.legacy object at 0x04ADAED0>","<openexp._canvas.legacy.legacy object at 0x04BA2A50>","75","IndividualPriorityWithDis_v1.osexp","C:/Userdata/Michel/SpatialProb/IndividualPriorityMaps/Experiment2","no","mono","no","18","no","white","no","yes","0.09","98","1050","legacy","315","6","6","1","C:/Userdata/Michel/SpatialProb/IndividualPriorityMaps/Experiment2/data/subject-13.csv","legacy","9","192","25","Jazzy James","3.1.3","yes","598477b2b83f69022949e7e9","47","green","circular","red","circular","0","/","773","space","18958","18958","(80, 80, 80)","(0, 122, 0)","(179, 0, 0)","(155, 155, 155)","2","legacy","experiment","[4, 5, 6, 7, 0, 1, 2, 3]","/","2500","3000","0","8","252.758751519","1024","2","48000","-16","main","[(0, -252), (178, -178), (252, 0), (178, 178), (0, 252), (-178, 178), (-252, 0), (-178, -178)]","[]","13","odd","2","181989","207212","207212","93972","92966","1808","121592","121592","1808","1808","112930","226305","1805","207212","225528","224783","224783","NA","739","study_X","0","18958","1","yes","1680"
"undefined","undefined","18958","18958","black","no","legacy","legacy","legacy","0","red","(179, 0, 0)","shape","present","highProb","rectangular","swap","swap","same","same","red","(179, 0, 0)","lowProb","lowProb6","circular","uniform","1","undefined","0.0416666666667","1","1","34.90625","1","8","6702","0","0","0","0","0","0","0","0","32","0","1","0.0416666666667","34.90625","8","6702","32","32","32","08/22/17 10:01:18","Default description","yes","<openexp._canvas.legacy.legacy object at 0x04AE27F0>","<openexp._canvas.legacy.legacy object at 0x04AEE7B0>","<openexp._canvas.legacy.legacy object at 0x04ADA510>","<openexp._canvas.legacy.legacy object at 0x04BD09D0>","<openexp._canvas.legacy.legacy object at 0x04BA14B0>","<openexp._canvas.legacy.legacy object at 0x04ADE550>","<openexp._canvas.legacy.legacy object at 0x04BA2A50>","75","IndividualPriorityWithDis_v1.osexp","C:/Userdata/Michel/SpatialProb/IndividualPriorityMaps/Experiment2","no","mono","no","18","no","white","no","yes","0.09","98","1050","legacy","45","7","7","1","C:/Userdata/Michel/SpatialProb/IndividualPriorityMaps/Experiment2/data/subject-13.csv","legacy","9","192","25","Jazzy James","3.1.3","yes","598477b2b83f69022949e7e9","47","red","rectangular","red","circular","0","\","815","space","18958","18958","(80, 80, 80)","(0, 122, 0)","(179, 0, 0)","(155, 155, 155)","2","legacy","experiment","[4, 5, 6, 7, 0, 1, 2, 3]","\","2500","3000","0","8","252.758751519","1024","2","48000","-16","main","[(0, -252), (178, -178), (252, 0), (178, 178), (0, 252), (-178, 178), (-252, 0), (-178, -178)]","[]","13","odd","3","181989","207212","207212","93972","92966","1808","121592","121592","1808","1808","112930","228281","1805","207212","227462","226717","226718","NA","739","study_X","0","18958","1","yes","1680"
"undefined","undefined","18958","18958","black","no","legacy","legacy","legacy","0","red","(179, 0, 0)","color","absent","lowProb1","circular","same","swap","same","same","red","(179, 0, 0)","lowProb","lowProb2","circular","uniform","1","undefined","0.046875","1","1","38.875","1","9","7464","0","0","0","0","0","0","0","0","33","0","1","0.046875","38.875","9","7464","33","33","33","08/22/17 10:01:18","Default description","yes","<openexp._canvas.legacy.legacy object at 0x04AE27F0>","<openexp._canvas.legacy.legacy object at 0x04AEE7B0>","<openexp._canvas.legacy.legacy object at 0x04ADA510>","<openexp._canvas.legacy.legacy object at 0x04BD09D0>","<openexp._canvas.legacy.legacy object at 0x04BA14B0>","<openexp._canvas.legacy.legacy object at 0x04BD0AB0>","<openexp._canvas.legacy.legacy object at 0x04BA2A50>","75","IndividualPriorityWithDis_v1.osexp","C:/Userdata/Michel/SpatialProb/IndividualPriorityMaps/Experiment2","no","mono","no","18","no","white","no","yes","0.09","98","1050","legacy","315","8","8","1","C:/Userdata/Michel/SpatialProb/IndividualPriorityMaps/Experiment2/data/subject-13.csv","legacy","9","192","25","Jazzy James","3.1.3","yes","598477b2b83f69022949e7e9","47","red","circular","red","circular","0","/","762","space","18958","18958","(80, 80, 80)","(0, 122, 0)","(179, 0, 0)","(155, 155, 155)","2","legacy","experiment","[4, 5, 6, 7, 0, 1, 2, 3]","/","2500","3000","0","8","252.758751519","1024","2","48000","-16","main","[(0, -252), (178, -178), (252, 0), (178, 178), (0, 252), (-178, 178), (-252, 0), (-178, -178)]","[]","13","odd","6","181989","207212","207212","93972","92966","1808","121592","121592","1808","1808","112930","230208","1805","207212","229443","228698","228698","NA","739","study_X","0","18958","1","yes","1680"
"undefined","undefined","18958","18958","black","no","legacy","legacy","legacy","0","green","(0, 122, 0)","color","present","lowProb1","rectangular","swap","swap","same","swap","red","(179, 0, 0)","lowProb","lowProb5","rectangular","uniform","1","undefined","0.0520833333333","1","1","44.453125","1","10","8535","0","0","0","0","0","0","0","0","34","0","1","0.0520833333333","44.453125","10","8535","34","34","34","08/22/17 10:01:18","Default description","yes","<openexp._canvas.legacy.legacy object at 0x04AE27F0>","<openexp._canvas.legacy.legacy object at 0x04AEE7B0>","<openexp._canvas.legacy.legacy object at 0x04ADA510>","<openexp._canvas.legacy.legacy object at 0x04BD09D0>","<openexp._canvas.legacy.legacy object at 0x04BA14B0>","<openexp._canvas.legacy.legacy object at 0x04BD0250>","<openexp._canvas.legacy.legacy object at 0x04BA2A50>","75","IndividualPriorityWithDis_v1.osexp","C:/Userdata/Michel/SpatialProb/IndividualPriorityMaps/Experiment2","no","mono","no","18","no","white","no","yes","0.09","98","1050","legacy","315","9","9","1","C:/Userdata/Michel/SpatialProb/IndividualPriorityMaps/Experiment2/data/subject-13.csv","legacy","9","192","25","Jazzy James","3.1.3","yes","598477b2b83f69022949e7e9","47","green","rectangular","red","rectangular","0","/","1071","space","18958","18958","(80, 80, 80)","(0, 122, 0)","(179, 0, 0)","(155, 155, 155)","2","legacy","experiment","[4, 5, 6, 7, 0, 1, 2, 3]","/","2500","3000","0","8","252.758751519","1024","2","48000","-16","main","[(0, -252), (178, -178), (252, 0), (178, 178), (0, 252), (-178, 178), (-252, 0), (-178, -178)]","[]","13","odd","2","181989","207212","207212","93972","92966","1808","121592","121592","1808","1808","112930","232433","1805","207212","231359","230615","230615","NA","739","study_X","0","18958","1","yes","1680"
"undefined","undefined","18958","18958","black","no","legacy","legacy","legacy","0","red","(179, 0, 0)","shape","present","highProbOther","circular","swap","swap","same","same","red","(179, 0, 0)","highProbShape","highProbShape","rectangular","uniform","1","undefined","0.0572916666667","1","1","49.7604166667","1","11","9554","0","0","0","0","0","0","0","0","35","0","1","0.0572916666667","49.7604166667","11","9554","35","35","35","08/22/17 10:01:18","Default description","yes","<openexp._canvas.legacy.legacy object at 0x04AE27F0>","<openexp._canvas.legacy.legacy object at 0x04AEE7B0>","<openexp._canvas.legacy.legacy object at 0x04ADA510>","<openexp._canvas.legacy.legacy object at 0x04BD09D0>","<openexp._canvas.legacy.legacy object at 0x04BA14B0>","<openexp._canvas.legacy.legacy object at 0x04ADA790>","<openexp._canvas.legacy.legacy object at 0x04BA2A50>","75","IndividualPriorityWithDis_v1.osexp","C:/Userdata/Michel/SpatialProb/IndividualPriorityMaps/Experiment2","no","mono","no","18","no","white","no","yes","0.09","98","1050","legacy","315","10","10","1","C:/Userdata/Michel/SpatialProb/IndividualPriorityMaps/Experiment2/data/subject-13.csv","legacy","9","192","25","Jazzy James","3.1.3","yes","598477b2b83f69022949e7e9","47","red","circular","red","rectangular","0","/","1019","space","18958","18958","(80, 80, 80)","(0, 122, 0)","(179, 0, 0)","(155, 155, 155)","2","legacy","experiment","[4, 5, 6, 7, 0, 1, 2, 3]","/","2500","3000","0","8","252.758751519","1024","2","48000","-16","main","[(0, -252), (178, -178), (252, 0), (178, 178), (0, 252), (-178, 178), (-252, 0), (-178, -178)]","[]","13","odd","0","181989","207212","207212","93972","92966","1808","121592","121592","1808","1808","112930","234609","1805","207212","233587","232842","232843","NA","739","study_X","0","18958","1","yes","1680"
"undefined","undefined","18958","18958","black","no","legacy","legacy","legacy","0","green","(0, 122, 0)","color","absent","lowProb3","circular","swap","same","swap","swap","green","(0, 122, 0)","lowProb","lowProb3","circular","uniform","1","undefined","0.0625","1","1","54.3489583333","1","12","10435","0","0","0","0","0","0","0","0","36","0","1","0.0625","54.3489583333","12","10435","36","36","36","08/22/17 10:01:18","Default description","yes","<openexp._canvas.legacy.legacy object at 0x04AE27F0>","<openexp._canvas.legacy.legacy object at 0x04AEE7B0>","<openexp._canvas.legacy.legacy object at 0x04ADA510>","<openexp._canvas.legacy.legacy object at 0x04BD09D0>","<openexp._canvas.legacy.legacy object at 0x04BA14B0>","<openexp._canvas.legacy.legacy object at 0x04ADAC90>","<openexp._canvas.legacy.legacy object at 0x04BA2A50>","75","IndividualPriorityWithDis_v1.osexp","C:/Userdata/Michel/SpatialProb/IndividualPriorityMaps/Experiment2","no","mono","no","18","no","white","no","yes","0.09","98","1050","legacy","315","11","11","1","C:/Userdata/Michel/SpatialProb/IndividualPriorityMaps/Experiment2/data/subject-13.csv","legacy","9","192","25","Jazzy James","3.1.3","yes","598477b2b83f69022949e7e9","47","green","circular","green","circular","0","/","881","space","18958","18958","(80, 80, 80)","(0, 122, 0)","(179, 0, 0)","(155, 155, 155)","2","legacy","experiment","[4, 5, 6, 7, 0, 1, 2, 3]","/","2500","3000","0","8","252.758751519","1024","2","48000","-16","main","[(0, -252), (178, -178), (252, 0), (178, 178), (0, 252), (-178, 178), (-252, 0), (-178, -178)]","[]","13","odd","7","181989","207212","207212","93972","92966","1808","121592","121592","1808","1808","112930","236665","1805","207212","235781","235037","235037","NA","739","study_X","0","18958","1","yes","1680"
"undefined","undefined","18958","18958","black","no","legacy","legacy","legacy","0","red","(179, 0, 0)","shape","present","highProb","rectangular","swap","swap","swap","same","red","(179, 0, 0)","lowProb","lowProb5","circular","uniform","1","undefined","0.0677083333333","1","1","58.125","1","13","11160","0","0","0","0","0","0","0","0","37","0","1","0.0677083333333","58.125","13","11160","37","37","37","08/22/17 10:01:18","Default description","yes","<openexp._canvas.legacy.legacy object at 0x04AE27F0>","<openexp._canvas.legacy.legacy object at 0x04AEE7B0>","<openexp._canvas.legacy.legacy object at 0x04ADA510>","<openexp._canvas.legacy.legacy object at 0x04BD09D0>","<openexp._canvas.legacy.legacy object at 0x04BA14B0>","<openexp._canvas.legacy.legacy object at 0x04BD08B0>","<openexp._canvas.legacy.legacy object at 0x04BA2A50>","75","IndividualPriorityWithDis_v1.osexp","C:/Userdata/Michel/SpatialProb/IndividualPriorityMaps/Experiment2","no","mono","no","18","no","white","no","yes","0.09","98","1050","legacy","45","12","12","1","C:/Userdata/Michel/SpatialProb/IndividualPriorityMaps/Experiment2/data/subject-13.csv","legacy","9","192","25","Jazzy James","3.1.3","yes","598477b2b83f69022949e7e9","47","red","rectangular","red","circular","0","\","725","space","18958","18958","(80, 80, 80)","(0, 122, 0)","(179, 0, 0)","(155, 155, 155)","2","legacy","experiment","[4, 5, 6, 7, 0, 1, 2, 3]","\","2500","3000","0","8","252.758751519","1024","2","48000","-16","main","[(0, -252), (178, -178), (252, 0), (178, 178), (0, 252), (-178, 178), (-252, 0), (-178, -178)]","[]","13","odd","2","181989","207212","207212","93972","92966","1808","121592","121592","1808","1808","112930","238561","1805","207212","237832","237087","237087","NA","739","study_X","0","18958","1","yes","1680"
"undefined","undefined","18958","18958","black","no","legacy","legacy","legacy","0","red","(179, 0, 0)","shape","present","lowProb4","circular","same","swap","same","swap","red","(179, 0, 0)","highProbShape","highProbShape","rectangular","uniform","1","undefined","0.0729166666667","1","1","64.671875","1","14","12417","0","0","0","0","0","0","0","0","38","0","1","0.0729166666667","64.671875","14","12417","38","38","38","08/22/17 10:01:18","Default description","yes","<openexp._canvas.legacy.legacy object at 0x04AE27F0>","<openexp._canvas.legacy.legacy object at 0x04AEE7B0>","<openexp._canvas.legacy.legacy object at 0x04ADA510>","<openexp._canvas.legacy.legacy object at 0x04BD09D0>","<openexp._canvas.legacy.legacy object at 0x04BA14B0>","<openexp._canvas.legacy.legacy object at 0x04AEE990>","<openexp._canvas.legacy.legacy object at 0x04BA2A50>","75","IndividualPriorityWithDis_v1.osexp","C:/Userdata/Michel/SpatialProb/IndividualPriorityMaps/Experiment2","no","mono","no","18","no","white","no","yes","0.09","98","1050","legacy","45","13","13","1","C:/Userdata/Michel/SpatialProb/IndividualPriorityMaps/Experiment2/data/subject-13.csv","legacy","9","192","25","Jazzy James","3.1.3","yes","598477b2b83f69022949e7e9","47","red","circular","red","rectangular","0","\","1257","space","18958","18958","(80, 80, 80)","(0, 122, 0)","(179, 0, 0)","(155, 155, 155)","2","legacy","experiment","[4, 5, 6, 7, 0, 1, 2, 3]","\","2500","3000","0","8","252.758751519","1024","2","48000","-16","main","[(0, -252), (178, -178), (252, 0), (178, 178), (0, 252), (-178, 178), (-252, 0), (-178, -178)]","[]","13","odd","0","181989","207212","207212","93972","92966","1808","121592","121592","1808","1808","112930","240977","1805","207212","239716","238971","238971","NA","739","study_X","0","18958","1","yes","1680"
"undefined","undefined","18958","18958","black","no","legacy","legacy","legacy","0","green","(0, 122, 0)","shape","present","highProb","rectangular","swap","swap","swap","swap","green","(0, 122, 0)","lowProb","lowProb5","circular","uniform","1","undefined","0.078125","1","1","71.1458333333","1","15","13660","0","0","0","0","0","0","0","0","39","0","1","0.078125","71.1458333333","15","13660","39","39","39","08/22/17 10:01:18","Default description","yes","<openexp._canvas.legacy.legacy object at 0x04AE27F0>","<openexp._canvas.legacy.legacy object at 0x04AEE7B0>","<openexp._canvas.legacy.legacy object at 0x04ADA510>","<openexp._canvas.legacy.legacy object at 0x04BD09D0>","<openexp._canvas.legacy.legacy object at 0x04BA14B0>","<openexp._canvas.legacy.legacy object at 0x04BCBB10>","<openexp._canvas.legacy.legacy object at 0x04BA2A50>","75","IndividualPriorityWithDis_v1.osexp","C:/Userdata/Michel/SpatialProb/IndividualPriorityMaps/Experiment2","no","mono","no","18","no","white","no","yes","0.09","98","1050","legacy","45","14","14","1","C:/Userdata/Michel/SpatialProb/IndividualPriorityMaps/Experiment2/data/subject-13.csv","legacy","9","192","25","Jazzy James","3.1.3","yes","598477b2b83f69022949e7e9","47","green","rectangular","green","circular","0","\","1243","space","18958","18958","(80, 80, 80)","(0, 122, 0)","(179, 0, 0)","(155, 155, 155)","2","legacy","experiment","[4, 5, 6, 7, 0, 1, 2, 3]","\","2500","3000","0","8","252.758751519","1024","2","48000","-16","main","[(0, -252), (178, -178), (252, 0), (178, 178), (0, 252), (-178, 178), (-252, 0), (-178, -178)]","[]","13","odd","2","181989","207212","207212","93972","92966","1808","121592","121592","1808","1808","112930","243401","1805","207212","242154","241409","241410","NA","739","study_X","0","18958","1","yes","1680"
"undefined","undefined","18958","18958","black","no","legacy","legacy","legacy","0","red","(179, 0, 0)","shape","present","highProb","circular","swap","swap","swap","swap","red","(179, 0, 0)","lowProb","lowProb5","rectangular","uniform","1","undefined","0.0833333333333","1","1","75.7083333333","1","16","14536","0","0","0","0","0","0","0","0","40","0","1","0.0833333333333","75.7083333333","16","14536","40","40","40","08/22/17 10:01:18","Default description","yes","<openexp._canvas.legacy.legacy object at 0x04AE27F0>","<openexp._canvas.legacy.legacy object at 0x04AEE7B0>","<openexp._canvas.legacy.legacy object at 0x04ADA510>","<openexp._canvas.legacy.legacy object at 0x04BD09D0>","<openexp._canvas.legacy.legacy object at 0x04BA14B0>","<openexp._canvas.legacy.legacy object at 0x04ADEE70>","<openexp._canvas.legacy.legacy object at 0x04BA2A50>","75","IndividualPriorityWithDis_v1.osexp","C:/Userdata/Michel/SpatialProb/IndividualPriorityMaps/Experiment2","no","mono","no","18","no","white","no","yes","0.09","98","1050","legacy","315","15","15","1","C:/Userdata/Michel/SpatialProb/IndividualPriorityMaps/Experiment2/data/subject-13.csv","legacy","9","192","25","Jazzy James","3.1.3","yes","598477b2b83f69022949e7e9","47","red","circular","red","rectangular","0","/","876","space","18958","18958","(80, 80, 80)","(0, 122, 0)","(179, 0, 0)","(155, 155, 155)","2","legacy","experiment","[4, 5, 6, 7, 0, 1, 2, 3]","/","2500","3000","0","8","252.758751519","1024","2","48000","-16","main","[(0, -252), (178, -178), (252, 0), (178, 178), (0, 252), (-178, 178), (-252, 0), (-178, -178)]","[]","13","odd","2","181989","207212","207212","93972","92966","1808","121592","121592","1808","1808","112930","245448","1805","207212","244569","243824","243825","NA","739","study_X","0","18958","1","yes","1680"
"undefined","undefined","18958","18958","black","no","legacy","legacy","legacy","0","red","(179, 0, 0)","shape","present","lowProb4","rectangular","same","swap","same","swap","red","(179, 0, 0)","highProbShape","highProbShape","circular","uniform","1","undefined","0.0885416666667","1","1","79.9635416667","1","17","15353","0","0","0","0","0","0","0","0","41","0","1","0.0885416666667","79.9635416667","17","15353","41","41","41","08/22/17 10:01:18","Default description","yes","<openexp._canvas.legacy.legacy object at 0x04AE27F0>","<openexp._canvas.legacy.legacy object at 0x04AEE7B0>","<openexp._canvas.legacy.legacy object at 0x04ADA510>","<openexp._canvas.legacy.legacy object at 0x04BD09D0>","<openexp._canvas.legacy.legacy object at 0x04BA14B0>","<openexp._canvas.legacy.legacy object at 0x04ADE490>","<openexp._canvas.legacy.legacy object at 0x04BA2A50>","75","IndividualPriorityWithDis_v1.osexp","C:/Userdata/Michel/SpatialProb/IndividualPriorityMaps/Experiment2","no","mono","no","18","no","white","no","yes","0.09","98","1050","legacy","315","16","16","1","C:/Userdata/Michel/SpatialProb/IndividualPriorityMaps/Experiment2/data/subject-13.csv","legacy","9","192","25","Jazzy James","3.1.3","yes","598477b2b83f69022949e7e9","47","red","rectangular","red","circular","0","/","817","space","18958","18958","(80, 80, 80)","(0, 122, 0)","(179, 0, 0)","(155, 155, 155)","2","legacy","experiment","[4, 5, 6, 7, 0, 1, 2, 3]","/","2500","3000","0","8","252.758751519","1024","2","48000","-16","main","[(0, -252), (178, -178), (252, 0), (178, 178), (0, 252), (-178, 178), (-252, 0), (-178, -178)]","[]","13","odd","0","181989","207212","207212","93972","92966","1808","121592","121592","1808","1808","112930","247432","1805","207212","246613","245867","245867","NA","739","study_X","0","18958","1","yes","1680"
"undefined","undefined","18958","18958","black","no","legacy","legacy","legacy","0","green","(0, 122, 0)","color","present","highProb","rectangular","swap","same","same","swap","red","(179, 0, 0)","highProbShape","highProbShape","rectangular","uniform","1","undefined","0.09375","1","1","83.7395833333","1","18","16078","0","0","0","0","0","0","0","0","42","0","1","0.09375","83.7395833333","18","16078","42","42","42","08/22/17 10:01:18","Default description","yes","<openexp._canvas.legacy.legacy object at 0x04AE27F0>","<openexp._canvas.legacy.legacy object at 0x04AEE7B0>","<openexp._canvas.legacy.legacy object at 0x04ADA510>","<openexp._canvas.legacy.legacy object at 0x04BD09D0>","<openexp._canvas.legacy.legacy object at 0x04BA14B0>","<openexp._canvas.legacy.legacy object at 0x04AEE930>","<openexp._canvas.legacy.legacy object at 0x04BA2A50>","75","IndividualPriorityWithDis_v1.osexp","C:/Userdata/Michel/SpatialProb/IndividualPriorityMaps/Experiment2","no","mono","no","18","no","white","no","yes","0.09","98","1050","legacy","45","17","17","1","C:/Userdata/Michel/SpatialProb/IndividualPriorityMaps/Experiment2/data/subject-13.csv","legacy","9","192","25","Jazzy James","3.1.3","yes","598477b2b83f69022949e7e9","47","green","rectangular","red","rectangular","0","\","725","space","18958","18958","(80, 80, 80)","(0, 122, 0)","(179, 0, 0)","(155, 155, 155)","2","legacy","experiment","[4, 5, 6, 7, 0, 1, 2, 3]","\","2500","3000","0","8","252.758751519","1024","2","48000","-16","main","[(0, -252), (178, -178), (252, 0), (178, 178), (0, 252), (-178, 178), (-252, 0), (-178, -178)]","[]","13","odd","0","181989","207212","207212","93972","92966","1808","121592","121592","1808","1808","112930","249313","1805","207212","248585","247840","247841","NA","739","study_X","0","18958","1","yes","1680"
"undefined","undefined","18958","18958","black","no","legacy","legacy","legacy","0","red","(179, 0, 0)","shape","present","highProb","circular","swap","swap","same","same","red","(179, 0, 0)","lowProb","lowProb6","rectangular","uniform","1","undefined","0.0989583333333","1","1","86.6927083333","1","19","16645","0","0","0","0","0","0","0","0","43","0","1","0.0989583333333","86.6927083333","19","16645","43","43","43","08/22/17 10:01:18","Default description","yes","<openexp._canvas.legacy.legacy object at 0x04AE27F0>","<openexp._canvas.legacy.legacy object at 0x04AEE7B0>","<openexp._canvas.legacy.legacy object at 0x04ADA510>","<openexp._canvas.legacy.legacy object at 0x04BD09D0>","<openexp._canvas.legacy.legacy object at 0x04BA14B0>","<openexp._canvas.legacy.legacy object at 0x04AF1650>","<openexp._canvas.legacy.legacy object at 0x04BA2A50>","75","IndividualPriorityWithDis_v1.osexp","C:/Userdata/Michel/SpatialProb/IndividualPriorityMaps/Experiment2","no","mono","no","18","no","white","no","yes","0.09","98","1050","legacy","315","18","18","1","C:/Userdata/Michel/SpatialProb/IndividualPriorityMaps/Experiment2/data/subject-13.csv","legacy","9","192","25","Jazzy James","3.1.3","yes","598477b2b83f69022949e7e9","47","red","circular","red","rectangular","0","/","567","space","18958","18958","(80, 80, 80)","(0, 122, 0)","(179, 0, 0)","(155, 155, 155)","2","legacy","experiment","[4, 5, 6, 7, 0, 1, 2, 3]","/","2500","3000","0","8","252.758751519","1024","2","48000","-16","main","[(0, -252), (178, -178), (252, 0), (178, 178), (0, 252), (-178, 178), (-252, 0), (-178, -178)]","[]","13","odd","3","181989","207212","207212","93972","92966","1808","121592","121592","1808","1808","112930","251049","1805","207212","250479","249734","249734","NA","739","study_X","0","18958","1","yes","1680"
"undefined","undefined","18958","18958","black","no","legacy","legacy","legacy","0","red","(179, 0, 0)","color","present","highProb","rectangular","same","swap","swap","same","green","(0, 122, 0)","lowProb","lowProb1","rectangular","uniform","1","undefined","0.104166666667","1","1","94.3177083333","1","20","18109","0","0","0","0","0","0","0","0","44","0","1","0.104166666667","94.3177083333","20","18109","44","44","44","08/22/17 10:01:18","Default description","yes","<openexp._canvas.legacy.legacy object at 0x04AE27F0>","<openexp._canvas.legacy.legacy object at 0x04AEE7B0>","<openexp._canvas.legacy.legacy object at 0x04ADA510>","<openexp._canvas.legacy.legacy object at 0x04BD09D0>","<openexp._canvas.legacy.legacy object at 0x04BA14B0>","<openexp._canvas.legacy.legacy object at 0x04ADAF50>","<openexp._canvas.legacy.legacy object at 0x04BA2A50>","75","IndividualPriorityWithDis_v1.osexp","C:/Userdata/Michel/SpatialProb/IndividualPriorityMaps/Experiment2","no","mono","no","18","no","white","no","yes","0.09","98","1050","legacy","45","19","19","1","C:/Userdata/Michel/SpatialProb/IndividualPriorityMaps/Experiment2/data/subject-13.csv","legacy","9","192","25","Jazzy James","3.1.3","yes","598477b2b83f69022949e7e9","47","red","rectangular","green","rectangular","0","\","1464","space","18958","18958","(80, 80, 80)","(0, 122, 0)","(179, 0, 0)","(155, 155, 155)","2","legacy","experiment","[4, 5, 6, 7, 0, 1, 2, 3]","\","2500","3000","0","8","252.758751519","1024","2","48000","-16","main","[(0, -252), (178, -178), (252, 0), (178, 178), (0, 252), (-178, 178), (-252, 0), (-178, -178)]","[]","13","odd","5","181989","207212","207212","93972","92966","1808","121592","121592","1808","1808","112930","253681","1805","207212","252214","251469","251469","NA","739","study_X","0","18958","1","yes","1680"
"undefined","undefined","18958","18958","black","no","legacy","legacy","legacy","0","green","(0, 122, 0)","color","present","highProb","rectangular","swap","same","swap","same","red","(179, 0, 0)","lowProb","lowProb1","rectangular","uniform","1","undefined","0.109375","1","1","98.0989583333","1","21","18835","0","0","0","0","0","0","0","0","45","0","1","0.109375","98.0989583333","21","18835","45","45","45","08/22/17 10:01:18","Default description","yes","<openexp._canvas.legacy.legacy object at 0x04AE27F0>","<openexp._canvas.legacy.legacy object at 0x04AEE7B0>","<openexp._canvas.legacy.legacy object at 0x04ADA510>","<openexp._canvas.legacy.legacy object at 0x04BD09D0>","<openexp._canvas.legacy.legacy object at 0x04BA14B0>","<openexp._canvas.legacy.legacy object at 0x04ADE130>","<openexp._canvas.legacy.legacy object at 0x04BA2A50>","75","IndividualPriorityWithDis_v1.osexp","C:/Userdata/Michel/SpatialProb/IndividualPriorityMaps/Experiment2","no","mono","no","18","no","white","no","yes","0.09","98","1050","legacy","315","20","20","1","C:/Userdata/Michel/SpatialProb/IndividualPriorityMaps/Experiment2/data/subject-13.csv","legacy","9","192","25","Jazzy James","3.1.3","yes","598477b2b83f69022949e7e9","47","green","rectangular","red","rectangular","0","/","726","space","18958","18958","(80, 80, 80)","(0, 122, 0)","(179, 0, 0)","(155, 155, 155)","2","legacy","experiment","[4, 5, 6, 7, 0, 1, 2, 3]","/","2500","3000","0","8","252.758751519","1024","2","48000","-16","main","[(0, -252), (178, -178), (252, 0), (178, 178), (0, 252), (-178, 178), (-252, 0), (-178, -178)]","[]","13","odd","5","181989","207212","207212","93972","92966","1808","121592","121592","1808","1808","112930","255577","1805","207212","254847","254102","254102","NA","739","study_X","0","18958","1","yes","1680"
"undefined","undefined","18958","18958","black","no","legacy","legacy","legacy","0","red","(179, 0, 0)","color","absent","highProb","circular","swap","swap","same","swap","red","(179, 0, 0)","lowProb","lowProb5","circular","uniform","1","undefined","0.114583333333","1","1","102.130208333","1","22","19609","0","0","0","0","0","0","0","0","46","0","1","0.114583333333","102.130208333","22","19609","46","46","46","08/22/17 10:01:18","Default description","yes","<openexp._canvas.legacy.legacy object at 0x04AE27F0>","<openexp._canvas.legacy.legacy object at 0x04AEE7B0>","<openexp._canvas.legacy.legacy object at 0x04ADA510>","<openexp._canvas.legacy.legacy object at 0x04BD09D0>","<openexp._canvas.legacy.legacy object at 0x04BA14B0>","<openexp._canvas.legacy.legacy object at 0x04AEE3F0>","<openexp._canvas.legacy.legacy object at 0x04BA2A50>","75","IndividualPriorityWithDis_v1.osexp","C:/Userdata/Michel/SpatialProb/IndividualPriorityMaps/Experiment2","no","mono","no","18","no","white","no","yes","0.09","98","1050","legacy","315","21","21","1","C:/Userdata/Michel/SpatialProb/IndividualPriorityMaps/Experiment2/data/subject-13.csv","legacy","9","192","25","Jazzy James","3.1.3","yes","598477b2b83f69022949e7e9","47","red","circular","red","circular","0","/","774","space","18958","18958","(80, 80, 80)","(0, 122, 0)","(179, 0, 0)","(155, 155, 155)","2","legacy","experiment","[4, 5, 6, 7, 0, 1, 2, 3]","/","2500","3000","0","8","252.758751519","1024","2","48000","-16","main","[(0, -252), (178, -178), (252, 0), (178, 178), (0, 252), (-178, 178), (-252, 0), (-178, -178)]","[]","13","odd","2","181989","207212","207212","93972","92966","1808","121592","121592","1808","1808","112930","257521","1805","207212","256743","255998","255998","NA","739","study_X","0","18958","1","yes","1680"
"undefined","undefined","18958","18958","black","no","legacy","legacy","legacy","0","red","(179, 0, 0)","shape","present","highProb","circular","same","same","same","swap","red","(179, 0, 0)","highProbColor","highProbColor","rectangular","uniform","1","undefined","0.119791666667","1","1","105.203125","1","23","20199","0","0","0","0","0","0","0","0","47","0","1","0.119791666667","105.203125","23","20199","47","47","47","08/22/17 10:01:18","Default description","yes","<openexp._canvas.legacy.legacy object at 0x04AE27F0>","<openexp._canvas.legacy.legacy object at 0x04AEE7B0>","<openexp._canvas.legacy.legacy object at 0x04ADA510>","<openexp._canvas.legacy.legacy object at 0x04BD09D0>","<openexp._canvas.legacy.legacy object at 0x04BA14B0>","<openexp._canvas.legacy.legacy object at 0x04AEEFB0>","<openexp._canvas.legacy.legacy object at 0x04BA2A50>","75","IndividualPriorityWithDis_v1.osexp","C:/Userdata/Michel/SpatialProb/IndividualPriorityMaps/Experiment2","no","mono","no","18","no","white","no","yes","0.09","98","1050","legacy","315","22","22","1","C:/Userdata/Michel/SpatialProb/IndividualPriorityMaps/Experiment2/data/subject-13.csv","legacy","9","192","25","Jazzy James","3.1.3","yes","598477b2b83f69022949e7e9","47","red","circular","red","rectangular","0","/","590","space","18958","18958","(80, 80, 80)","(0, 122, 0)","(179, 0, 0)","(155, 155, 155)","2","legacy","experiment","[4, 5, 6, 7, 0, 1, 2, 3]","/","2500","3000","0","8","252.758751519","1024","2","48000","-16","main","[(0, -252), (178, -178), (252, 0), (178, 178), (0, 252), (-178, 178), (-252, 0), (-178, -178)]","[]","13","odd","4","181989","207212","207212","93972","92966","1808","121592","121592","1808","1808","112930","259273","1805","207212","258679","257934","257934","NA","739","study_X","0","18958","1","yes","1680"
"undefined","undefined","18958","18958","black","no","legacy","legacy","legacy","0","green","(0, 122, 0)","color","present","highProb","circular","swap","same","same","swap","red","(179, 0, 0)","lowProb","lowProb5","circular","uniform","1","undefined","0.125","1","1","108.78125","1","24","20886","0","0","0","0","0","0","0","0","48","0","1","0.125","108.78125","24","20886","48","48","48","08/22/17 10:01:18","Default description","yes","<openexp._canvas.legacy.legacy object at 0x04AE27F0>","<openexp._canvas.legacy.legacy object at 0x04AEE7B0>","<openexp._canvas.legacy.legacy object at 0x04ADA510>","<openexp._canvas.legacy.legacy object at 0x04BD09D0>","<openexp._canvas.legacy.legacy object at 0x04BA14B0>","<openexp._canvas.legacy.legacy object at 0x04ADA990>","<openexp._canvas.legacy.legacy object at 0x04BA2A50>","75","IndividualPriorityWithDis_v1.osexp","C:/Userdata/Michel/SpatialProb/IndividualPriorityMaps/Experiment2","no","mono","no","18","no","white","no","yes","0.09","98","1050","legacy","315","23","23","1","C:/Userdata/Michel/SpatialProb/IndividualPriorityMaps/Experiment2/data/subject-13.csv","legacy","9","192","25","Jazzy James","3.1.3","yes","598477b2b83f69022949e7e9","47","green","circular","red","circular","0","/","687","space","18958","18958","(80, 80, 80)","(0, 122, 0)","(179, 0, 0)","(155, 155, 155)","2","legacy","experiment","[4, 5, 6, 7, 0, 1, 2, 3]","/","2500","3000","0","8","252.758751519","1024","2","48000","-16","main","[(0, -252), (178, -178), (252, 0), (178, 178), (0, 252), (-178, 178), (-252, 0), (-178, -178)]","[]","13","odd","2","181989","207212","207212","93972","92966","1808","121592","121592","1808","1808","112930","261128","1805","207212","260438","259693","259694","NA","739","study_X","0","18958","1","yes","1680"
"undefined","undefined","18958","18958","black","no","legacy","legacy","legacy","0","green","(0, 122, 0)","color","present","lowProb5","rectangular","same","swap","same","swap","red","(179, 0, 0)","lowProb","lowProb6","rectangular","uniform","1","undefined","0.130208333333","1","1","114.510416667","1","25","21986","0","0","0","0","0","0","0","0","49","0","1","0.130208333333","114.510416667","25","21986","49","49","49","08/22/17 10:01:18","Default description","yes","<openexp._canvas.legacy.legacy object at 0x04AE27F0>","<openexp._canvas.legacy.legacy object at 0x04AEE7B0>","<openexp._canvas.legacy.legacy object at 0x04ADA510>","<openexp._canvas.legacy.legacy object at 0x04BD09D0>","<openexp._canvas.legacy.legacy object at 0x04BA14B0>","<openexp._canvas.legacy.legacy object at 0x04AE9B50>","<openexp._canvas.legacy.legacy object at 0x04BA2A50>","75","IndividualPriorityWithDis_v1.osexp","C:/Userdata/Michel/SpatialProb/IndividualPriorityMaps/Experiment2","no","mono","no","18","no","white","no","yes","0.09","98","1050","legacy","45","24","24","1","C:/Userdata/Michel/SpatialProb/IndividualPriorityMaps/Experiment2/data/subject-13.csv","legacy","9","192","25","Jazzy James","3.1.3","yes","598477b2b83f69022949e7e9","47","green","rectangular","red","rectangular","0","\","1100","space","18958","18958","(80, 80, 80)","(0, 122, 0)","(179, 0, 0)","(155, 155, 155)","2","legacy","experiment","[4, 5, 6, 7, 0, 1, 2, 3]","\","2500","3000","0","8","252.758751519","1024","2","48000","-16","main","[(0, -252), (178, -178), (252, 0), (178, 178), (0, 252), (-178, 178), (-252, 0), (-178, -178)]","[]","13","odd","3","181989","207212","207212","93972","92966","1808","121592","121592","1808","1808","112930","263392","1805","207212","262289","261544","261544","NA","739","study_X","0","18958","1","yes","1680"
"undefined","undefined","18958","18958","black","no","legacy","legacy","legacy","0","green","(0, 122, 0)","shape","present","highProb","circular","same","swap","swap","same","green","(0, 122, 0)","lowProb","lowProb5","rectangular","uniform","1","undefined","0.135416666667","1","1","118.473958333","1","26","22747","0","0","0","0","0","0","0","0","50","0","1","0.135416666667","118.473958333","26","22747","50","50","50","08/22/17 10:01:18","Default description","yes","<openexp._canvas.legacy.legacy object at 0x04AE27F0>","<openexp._canvas.legacy.legacy object at 0x04AEE7B0>","<openexp._canvas.legacy.legacy object at 0x04ADA510>","<openexp._canvas.legacy.legacy object at 0x04BD09D0>","<openexp._canvas.legacy.legacy object at 0x04BA14B0>","<openexp._canvas.legacy.legacy object at 0x04BCBFD0>","<openexp._canvas.legacy.legacy object at 0x04BA2A50>","75","IndividualPriorityWithDis_v1.osexp","C:/Userdata/Michel/SpatialProb/IndividualPriorityMaps/Experiment2","no","mono","no","18","no","white","no","yes","0.09","98","1050","legacy","315","25","25","1","C:/Userdata/Michel/SpatialProb/IndividualPriorityMaps/Experiment2/data/subject-13.csv","legacy","9","192","25","Jazzy James","3.1.3","yes","598477b2b83f69022949e7e9","47","green","circular","green","rectangular","0","/","761","space","18958","18958","(80, 80, 80)","(0, 122, 0)","(179, 0, 0)","(155, 155, 155)","2","legacy","experiment","[4, 5, 6, 7, 0, 1, 2, 3]","/","2500","3000","0","8","252.758751519","1024","2","48000","-16","main","[(0, -252), (178, -178), (252, 0), (178, 178), (0, 252), (-178, 178), (-252, 0), (-178, -178)]","[]","13","odd","2","181989","207212","207212","93972","92966","1808","121592","121592","1808","1808","112930","265336","1805","207212","264573","263828","263828","NA","739","study_X","0","18958","1","yes","1680"
"undefined","undefined","18958","18958","black","no","legacy","legacy","legacy","0","red","(179, 0, 0)","color","present","highProb","rectangular","swap","swap","same","same","green","(0, 122, 0)","lowProb","lowProb1","rectangular","uniform","1","undefined","0.140625","1","1","122.0625","1","27","23436","0","0","0","0","0","0","0","0","51","0","1","0.140625","122.0625","27","23436","51","51","51","08/22/17 10:01:18","Default description","yes","<openexp._canvas.legacy.legacy object at 0x04AE27F0>","<openexp._canvas.legacy.legacy object at 0x04AEE7B0>","<openexp._canvas.legacy.legacy object at 0x04ADA510>","<openexp._canvas.legacy.legacy object at 0x04BD09D0>","<openexp._canvas.legacy.legacy object at 0x04BA14B0>","<openexp._canvas.legacy.legacy object at 0x04AF1530>","<openexp._canvas.legacy.legacy object at 0x04BA2A50>","75","IndividualPriorityWithDis_v1.osexp","C:/Userdata/Michel/SpatialProb/IndividualPriorityMaps/Experiment2","no","mono","no","18","no","white","no","yes","0.09","98","1050","legacy","45","26","26","1","C:/Userdata/Michel/SpatialProb/IndividualPriorityMaps/Experiment2/data/subject-13.csv","legacy","9","192","25","Jazzy James","3.1.3","yes","598477b2b83f69022949e7e9","47","red","rectangular","green","rectangular","0","\","689","space","18958","18958","(80, 80, 80)","(0, 122, 0)","(179, 0, 0)","(155, 155, 155)","2","legacy","experiment","[4, 5, 6, 7, 0, 1, 2, 3]","\","2500","3000","0","8","252.758751519","1024","2","48000","-16","main","[(0, -252), (178, -178), (252, 0), (178, 178), (0, 252), (-178, 178), (-252, 0), (-178, -178)]","[]","13","odd","5","181989","207212","207212","93972","92966","1808","121592","121592","1808","1808","112930","267185","1805","207212","266493","265748","265748","NA","739","study_X","0","18958","1","yes","1680"
"undefined","undefined","18958","18958","black","no","legacy","legacy","legacy","0","green","(0, 122, 0)","color","present","lowProb5","circular","swap","swap","swap","swap","red","(179, 0, 0)","lowProb","lowProb3","circular","uniform","1","undefined","0.145833333333","1","1","126.296875","1","28","24249","0","0","0","0","0","0","0","0","52","0","1","0.145833333333","126.296875","28","24249","52","52","52","08/22/17 10:01:18","Default description","yes","<openexp._canvas.legacy.legacy object at 0x04AE27F0>","<openexp._canvas.legacy.legacy object at 0x04AEE7B0>","<openexp._canvas.legacy.legacy object at 0x04ADA510>","<openexp._canvas.legacy.legacy object at 0x04BD09D0>","<openexp._canvas.legacy.legacy object at 0x04BA14B0>","<openexp._canvas.legacy.legacy object at 0x04BD0690>","<openexp._canvas.legacy.legacy object at 0x04BA2A50>","75","IndividualPriorityWithDis_v1.osexp","C:/Userdata/Michel/SpatialProb/IndividualPriorityMaps/Experiment2","no","mono","no","18","no","white","no","yes","0.09","98","1050","legacy","315","27","27","1","C:/Userdata/Michel/SpatialProb/IndividualPriorityMaps/Experiment2/data/subject-13.csv","legacy","9","192","25","Jazzy James","3.1.3","yes","598477b2b83f69022949e7e9","47","green","circular","red","circular","0","/","813","space","18958","18958","(80, 80, 80)","(0, 122, 0)","(179, 0, 0)","(155, 155, 155)","2","legacy","experiment","[4, 5, 6, 7, 0, 1, 2, 3]","/","2500","3000","0","8","252.758751519","1024","2","48000","-16","main","[(0, -252), (178, -178), (252, 0), (178, 178), (0, 252), (-178, 178), (-252, 0), (-178, -178)]","[]","13","odd","7","181989","207212","207212","93972","92966","1808","121592","121592","1808","1808","112930","269161","1805","207212","268346","267601","267601","NA","739","study_X","0","18958","1","yes","1680"
"undefined","undefined","18958","18958","black","no","legacy","legacy","legacy","0","green","(0, 122, 0)","shape","present","highProb","circular","same","same","swap","swap","green","(0, 122, 0)","highProbColor","highProbColor","rectangular","uniform","1","undefined","0.151041666667","1","1","130.088541667","1","29","24977","0","0","0","0","0","0","0","0","53","0","1","0.151041666667","130.088541667","29","24977","53","53","53","08/22/17 10:01:18","Default description","yes","<openexp._canvas.legacy.legacy object at 0x04AE27F0>","<openexp._canvas.legacy.legacy object at 0x04AEE7B0>","<openexp._canvas.legacy.legacy object at 0x04ADA510>","<openexp._canvas.legacy.legacy object at 0x04BD09D0>","<openexp._canvas.legacy.legacy object at 0x04BA14B0>","<openexp._canvas.legacy.legacy object at 0x04AE97B0>","<openexp._canvas.legacy.legacy object at 0x04BA2A50>","75","IndividualPriorityWithDis_v1.osexp","C:/Userdata/Michel/SpatialProb/IndividualPriorityMaps/Experiment2","no","mono","no","18","no","white","no","yes","0.09","98","1050","legacy","45","28","28","1","C:/Userdata/Michel/SpatialProb/IndividualPriorityMaps/Experiment2/data/subject-13.csv","legacy","9","192","25","Jazzy James","3.1.3","yes","598477b2b83f69022949e7e9","47","green","circular","green","rectangular","0","\","728","space","18958","18958","(80, 80, 80)","(0, 122, 0)","(179, 0, 0)","(155, 155, 155)","2","legacy","experiment","[4, 5, 6, 7, 0, 1, 2, 3]","\","2500","3000","0","8","252.758751519","1024","2","48000","-16","main","[(0, -252), (178, -178), (252, 0), (178, 178), (0, 252), (-178, 178), (-252, 0), (-178, -178)]","[]","13","odd","4","181989","207212","207212","93972","92966","1808","121592","121592","1808","1808","112930","271049","1805","207212","270317","269572","269572","NA","739","study_X","0","18958","1","yes","1680"
"undefined","undefined","18958","18958","black","no","legacy","legacy","legacy","0","red","(179, 0, 0)","color","present","lowProb2","rectangular","swap","swap","same","same","green","(0, 122, 0)","lowProb","lowProb5","rectangular","uniform","1","undefined","0.15625","1","1","133.072916667","1","30","25550","0","0","0","0","0","0","0","0","54","0","1","0.15625","133.072916667","30","25550","54","54","54","08/22/17 10:01:18","Default description","yes","<openexp._canvas.legacy.legacy object at 0x04AE27F0>","<openexp._canvas.legacy.legacy object at 0x04AEE7B0>","<openexp._canvas.legacy.legacy object at 0x04ADA510>","<openexp._canvas.legacy.legacy object at 0x04BD09D0>","<openexp._canvas.legacy.legacy object at 0x04BA14B0>","<openexp._canvas.legacy.legacy object at 0x04BD0370>","<openexp._canvas.legacy.legacy object at 0x04BA2A50>","75","IndividualPriorityWithDis_v1.osexp","C:/Userdata/Michel/SpatialProb/IndividualPriorityMaps/Experiment2","no","mono","no","18","no","white","no","yes","0.09","98","1050","legacy","315","29","29","1","C:/Userdata/Michel/SpatialProb/IndividualPriorityMaps/Experiment2/data/subject-13.csv","legacy","9","192","25","Jazzy James","3.1.3","yes","598477b2b83f69022949e7e9","47","red","rectangular","green","rectangular","0","/","573","space","18958","18958","(80, 80, 80)","(0, 122, 0)","(179, 0, 0)","(155, 155, 155)","2","legacy","experiment","[4, 5, 6, 7, 0, 1, 2, 3]","/","2500","3000","0","8","252.758751519","1024","2","48000","-16","main","[(0, -252), (178, -178), (252, 0), (178, 178), (0, 252), (-178, 178), (-252, 0), (-178, -178)]","[]","13","odd","2","181989","207212","207212","93972","92966","1808","121592","121592","1808","1808","112930","272777","1805","207212","272200","271455","271455","NA","739","study_X","0","18958","1","yes","1680"
"undefined","undefined","18958","18958","black","no","legacy","legacy","legacy","0","red","(179, 0, 0)","shape","present","highProb","circular","same","swap","swap","same","red","(179, 0, 0)","highProbColor","highProbColor","rectangular","uniform","1","undefined","0.161458333333","1","1","136.338541667","1","31","26177","0","0","0","0","0","0","0","0","55","0","1","0.161458333333","136.338541667","31","26177","55","55","55","08/22/17 10:01:18","Default description","yes","<openexp._canvas.legacy.legacy object at 0x04AE27F0>","<openexp._canvas.legacy.legacy object at 0x04AEE7B0>","<openexp._canvas.legacy.legacy object at 0x04ADA510>","<openexp._canvas.legacy.legacy object at 0x04BD09D0>","<openexp._canvas.legacy.legacy object at 0x04BA14B0>","<openexp._canvas.legacy.legacy object at 0x04BD1BD0>","<openexp._canvas.legacy.legacy object at 0x04BA2A50>","75","IndividualPriorityWithDis_v1.osexp","C:/Userdata/Michel/SpatialProb/IndividualPriorityMaps/Experiment2","no","mono","no","18","no","white","no","yes","0.09","98","1050","legacy","45","30","30","1","C:/Userdata/Michel/SpatialProb/IndividualPriorityMaps/Experiment2/data/subject-13.csv","legacy","9","192","25","Jazzy James","3.1.3","yes","598477b2b83f69022949e7e9","47","red","circular","red","rectangular","0","\","627","space","18958","18958","(80, 80, 80)","(0, 122, 0)","(179, 0, 0)","(155, 155, 155)","2","legacy","experiment","[4, 5, 6, 7, 0, 1, 2, 3]","\","2500","3000","0","8","252.758751519","1024","2","48000","-16","main","[(0, -252), (178, -178), (252, 0), (178, 178), (0, 252), (-178, 178), (-252, 0), (-178, -178)]","[]","13","odd","4","181989","207212","207212","93972","92966","1808","121592","121592","1808","1808","112930","274577","1805","207212","273946","273201","273201","NA","739","study_X","0","18958","1","yes","1680"
"undefined","undefined","18958","18958","black","no","legacy","legacy","legacy","0","green","(0, 122, 0)","shape","present","highProb","rectangular","swap","swap","swap","swap","green","(0, 122, 0)","lowProb","lowProb5","circular","uniform","1","undefined","0.166666666667","1","1","139.8125","1","32","26844","0","0","0","0","0","0","0","0","56","0","1","0.166666666667","139.8125","32","26844","56","56","56","08/22/17 10:01:18","Default description","yes","<openexp._canvas.legacy.legacy object at 0x04AE27F0>","<openexp._canvas.legacy.legacy object at 0x04AEE7B0>","<openexp._canvas.legacy.legacy object at 0x04ADA510>","<openexp._canvas.legacy.legacy object at 0x04BD09D0>","<openexp._canvas.legacy.legacy object at 0x04BA14B0>","<openexp._canvas.legacy.legacy object at 0x04BD01F0>","<openexp._canvas.legacy.legacy object at 0x04BA2A50>","75","IndividualPriorityWithDis_v1.osexp","C:/Userdata/Michel/SpatialProb/IndividualPriorityMaps/Experiment2","no","mono","no","18","no","white","no","yes","0.09","98","1050","legacy","45","31","31","1","C:/Userdata/Michel/SpatialProb/IndividualPriorityMaps/Experiment2/data/subject-13.csv","legacy","9","192","25","Jazzy James","3.1.3","yes","598477b2b83f69022949e7e9","47","green","rectangular","green","circular","0","\","667","space","18958","18958","(80, 80, 80)","(0, 122, 0)","(179, 0, 0)","(155, 155, 155)","2","legacy","experiment","[4, 5, 6, 7, 0, 1, 2, 3]","\","2500","3000","0","8","252.758751519","1024","2","48000","-16","main","[(0, -252), (178, -178), (252, 0), (178, 178), (0, 252), (-178, 178), (-252, 0), (-178, -178)]","[]","13","odd","2","181989","207212","207212","93972","92966","1808","121592","121592","1808","1808","112930","276408","1805","207212","275738","274993","274993","NA","739","study_X","0","18958","1","yes","1680"
"undefined","undefined","18958","18958","black","no","legacy","legacy","legacy","0","green","(0, 122, 0)","color","absent","lowProb1","circular","same","swap","same","same","green","(0, 122, 0)","highProbShape","highProbShape","circular","uniform","1","undefined","0.171875","1","1","143.09375","1","33","27474","0","0","0","0","0","0","0","0","57","0","1","0.171875","143.09375","33","27474","57","57","57","08/22/17 10:01:18","Default description","yes","<openexp._canvas.legacy.legacy object at 0x04AE27F0>","<openexp._canvas.legacy.legacy object at 0x04AEE7B0>","<openexp._canvas.legacy.legacy object at 0x04ADA510>","<openexp._canvas.legacy.legacy object at 0x04BD09D0>","<openexp._canvas.legacy.legacy object at 0x04BA14B0>","<openexp._canvas.legacy.legacy object at 0x04BD1550>","<openexp._canvas.legacy.legacy object at 0x04BA2A50>","75","IndividualPriorityWithDis_v1.osexp","C:/Userdata/Michel/SpatialProb/IndividualPriorityMaps/Experiment2","no","mono","no","18","no","white","no","yes","0.09","98","1050","legacy","45","32","32","1","C:/Userdata/Michel/SpatialProb/IndividualPriorityMaps/Experiment2/data/subject-13.csv","legacy","9","192","25","Jazzy James","3.1.3","yes","598477b2b83f69022949e7e9","47","green","circular","green","circular","0","\","630","space","18958","18958","(80, 80, 80)","(0, 122, 0)","(179, 0, 0)","(155, 155, 155)","2","legacy","experiment","[4, 5, 6, 7, 0, 1, 2, 3]","\","2500","3000","0","8","252.758751519","1024","2","48000","-16","main","[(0, -252), (178, -178), (252, 0), (178, 178), (0, 252), (-178, 178), (-252, 0), (-178, -178)]","[]","13","odd","0","181989","207212","207212","93972","92966","1808","121592","121592","1808","1808","112930","278200","1805","207212","277567","276822","276822","NA","739","study_X","0","18958","1","yes","1680"
"undefined","undefined","18958","18958","black","no","legacy","legacy","legacy","0","red","(179, 0, 0)","color","present","highProb","circular","swap","same","same","same","green","(0, 122, 0)","highProbShape","highProbShape","circular","uniform","1","undefined","0.177083333333","1","1","145.838541667","1","34","28001","0","0","0","0","0","0","0","0","58","0","1","0.177083333333","145.838541667","34","28001","58","58","58","08/22/17 10:01:18","Default description","yes","<openexp._canvas.legacy.legacy object at 0x04AE27F0>","<openexp._canvas.legacy.legacy object at 0x04AEE7B0>","<openexp._canvas.legacy.legacy object at 0x04ADA510>","<openexp._canvas.legacy.legacy object at 0x04BD09D0>","<openexp._canvas.legacy.legacy object at 0x04BA14B0>","<openexp._canvas.legacy.legacy object at 0x04AF8050>","<openexp._canvas.legacy.legacy object at 0x04BA2A50>","75","IndividualPriorityWithDis_v1.osexp","C:/Userdata/Michel/SpatialProb/IndividualPriorityMaps/Experiment2","no","mono","no","18","no","white","no","yes","0.09","98","1050","legacy","45","33","33","1","C:/Userdata/Michel/SpatialProb/IndividualPriorityMaps/Experiment2/data/subject-13.csv","legacy","9","192","25","Jazzy James","3.1.3","yes","598477b2b83f69022949e7e9","47","red","circular","green","circular","0","\","527","space","18958","18958","(80, 80, 80)","(0, 122, 0)","(179, 0, 0)","(155, 155, 155)","2","legacy","experiment","[4, 5, 6, 7, 0, 1, 2, 3]","\","2500","3000","0","8","252.758751519","1024","2","48000","-16","main","[(0, -252), (178, -178), (252, 0), (178, 178), (0, 252), (-178, 178), (-252, 0), (-178, -178)]","[]","13","odd","0","181989","207212","207212","93972","92966","1808","121592","121592","1808","1808","112930","279888","1805","207212","279359","278614","278614","NA","739","study_X","0","18958","1","yes","1680"
"undefined","undefined","18958","18958","black","no","legacy","legacy","legacy","0","red","(179, 0, 0)","color","absent","lowProb6","circular","same","same","swap","same","red","(179, 0, 0)","lowProb","lowProb1","circular","uniform","1","undefined","0.182291666667","1","1","148.880208333","1","35","28585","0","0","0","0","0","0","0","0","59","0","1","0.182291666667","148.880208333","35","28585","59","59","59","08/22/17 10:01:18","Default description","yes","<openexp._canvas.legacy.legacy object at 0x04AE27F0>","<openexp._canvas.legacy.legacy object at 0x04AEE7B0>","<openexp._canvas.legacy.legacy object at 0x04ADA510>","<openexp._canvas.legacy.legacy object at 0x04BD09D0>","<openexp._canvas.legacy.legacy object at 0x04BA14B0>","<openexp._canvas.legacy.legacy object at 0x04BD0130>","<openexp._canvas.legacy.legacy object at 0x04BA2A50>","75","IndividualPriorityWithDis_v1.osexp","C:/Userdata/Michel/SpatialProb/IndividualPriorityMaps/Experiment2","no","mono","no","18","no","white","no","yes","0.09","98","1050","legacy","315","34","34","1","C:/Userdata/Michel/SpatialProb/IndividualPriorityMaps/Experiment2/data/subject-13.csv","legacy","9","192","25","Jazzy James","3.1.3","yes","598477b2b83f69022949e7e9","47","red","circular","red","circular","0","/","584","space","18958","18958","(80, 80, 80)","(0, 122, 0)","(179, 0, 0)","(155, 155, 155)","2","legacy","experiment","[4, 5, 6, 7, 0, 1, 2, 3]","/","2500","3000","0","8","252.758751519","1024","2","48000","-16","main","[(0, -252), (178, -178), (252, 0), (178, 178), (0, 252), (-178, 178), (-252, 0), (-178, -178)]","[]","13","odd","5","181989","207212","207212","93972","92966","1808","121592","121592","1808","1808","112930","281648","1805","207212","281061","280317","280317","NA","739","study_X","0","18958","1","yes","1680"
"undefined","undefined","18958","18958","black","no","legacy","legacy","legacy","0","red","(179, 0, 0)","color","present","highProb","rectangular","same","swap","swap","swap","green","(0, 122, 0)","lowProb","lowProb5","rectangular","uniform","1","undefined","0.1875","1","1","153.385416667","1","36","29450","0","0","0","0","0","0","0","0","60","0","1","0.1875","153.385416667","36","29450","60","60","60","08/22/17 10:01:18","Default description","yes","<openexp._canvas.legacy.legacy object at 0x04AE27F0>","<openexp._canvas.legacy.legacy object at 0x04AEE7B0>","<openexp._canvas.legacy.legacy object at 0x04ADA510>","<openexp._canvas.legacy.legacy object at 0x04BD09D0>","<openexp._canvas.legacy.legacy object at 0x04BA14B0>","<openexp._canvas.legacy.legacy object at 0x04AEE1B0>","<openexp._canvas.legacy.legacy object at 0x04BA2A50>","75","IndividualPriorityWithDis_v1.osexp","C:/Userdata/Michel/SpatialProb/IndividualPriorityMaps/Experiment2","no","mono","no","18","no","white","no","yes","0.09","98","1050","legacy","315","35","35","1","C:/Userdata/Michel/SpatialProb/IndividualPriorityMaps/Experiment2/data/subject-13.csv","legacy","9","192","25","Jazzy James","3.1.3","yes","598477b2b83f69022949e7e9","47","red","rectangular","green","rectangular","0","/","865","space","18958","18958","(80, 80, 80)","(0, 122, 0)","(179, 0, 0)","(155, 155, 155)","2","legacy","experiment","[4, 5, 6, 7, 0, 1, 2, 3]","/","2500","3000","0","8","252.758751519","1024","2","48000","-16","main","[(0, -252), (178, -178), (252, 0), (178, 178), (0, 252), (-178, 178), (-252, 0), (-178, -178)]","[]","13","odd","2","181989","207212","207212","93972","92966","1808","121592","121592","1808","1808","112930","283665","1805","207212","282797","282052","282052","NA","739","study_X","0","18958","1","yes","1680"
"undefined","undefined","18958","18958","black","no","legacy","legacy","legacy","0","red","(179, 0, 0)","color","present","lowProb3","circular","same","swap","same","swap","green","(0, 122, 0)","highProbShape","highProbShape","circular","uniform","1","undefined","0.192708333333","1","1","156.661458333","1","37","30079","0","0","0","0","0","0","0","0","61","0","1","0.192708333333","156.661458333","37","30079","61","61","61","08/22/17 10:01:18","Default description","yes","<openexp._canvas.legacy.legacy object at 0x04AE27F0>","<openexp._canvas.legacy.legacy object at 0x04AEE7B0>","<openexp._canvas.legacy.legacy object at 0x04ADA510>","<openexp._canvas.legacy.legacy object at 0x04BD09D0>","<openexp._canvas.legacy.legacy object at 0x04BA14B0>","<openexp._canvas.legacy.legacy object at 0x04AE28D0>","<openexp._canvas.legacy.legacy object at 0x04BA2A50>","75","IndividualPriorityWithDis_v1.osexp","C:/Userdata/Michel/SpatialProb/IndividualPriorityMaps/Experiment2","no","mono","no","18","no","white","no","yes","0.09","98","1050","legacy","45","36","36","1","C:/Userdata/Michel/SpatialProb/IndividualPriorityMaps/Experiment2/data/subject-13.csv","legacy","9","192","25","Jazzy James","3.1.3","yes","598477b2b83f69022949e7e9","47","red","circular","green","circular","0","\","629","space","18958","18958","(80, 80, 80)","(0, 122, 0)","(179, 0, 0)","(155, 155, 155)","2","legacy","experiment","[4, 5, 6, 7, 0, 1, 2, 3]","\","2500","3000","0","8","252.758751519","1024","2","48000","-16","main","[(0, -252), (178, -178), (252, 0), (178, 178), (0, 252), (-178, 178), (-252, 0), (-178, -178)]","[]","13","odd","0","181989","207212","207212","93972","92966","1808","121592","121592","1808","1808","112930","285457","1805","207212","284825","284081","284081","NA","739","study_X","0","18958","1","yes","1680"
"undefined","undefined","18958","18958","black","no","legacy","legacy","legacy","0","red","(179, 0, 0)","shape","present","highProb","circular","same","same","swap","swap","red","(179, 0, 0)","lowProb","lowProb6","rectangular","uniform","1","undefined","0.197916666667","1","1","161.390625","1","38","30987","0","0","0","0","0","0","0","0","62","0","1","0.197916666667","161.390625","38","30987","62","62","62","08/22/17 10:01:18","Default description","yes","<openexp._canvas.legacy.legacy object at 0x04AE27F0>","<openexp._canvas.legacy.legacy object at 0x04AEE7B0>","<openexp._canvas.legacy.legacy object at 0x04ADA510>","<openexp._canvas.legacy.legacy object at 0x04BD09D0>","<openexp._canvas.legacy.legacy object at 0x04BA14B0>","<openexp._canvas.legacy.legacy object at 0x04AF1170>","<openexp._canvas.legacy.legacy object at 0x04BA2A50>","75","IndividualPriorityWithDis_v1.osexp","C:/Userdata/Michel/SpatialProb/IndividualPriorityMaps/Experiment2","no","mono","no","18","no","white","no","yes","0.09","98","1050","legacy","45","37","37","1","C:/Userdata/Michel/SpatialProb/IndividualPriorityMaps/Experiment2/data/subject-13.csv","legacy","9","192","25","Jazzy James","3.1.3","yes","598477b2b83f69022949e7e9","47","red","circular","red","rectangular","0","\","908","space","18958","18958","(80, 80, 80)","(0, 122, 0)","(179, 0, 0)","(155, 155, 155)","2","legacy","experiment","[4, 5, 6, 7, 0, 1, 2, 3]","\","2500","3000","0","8","252.758751519","1024","2","48000","-16","main","[(0, -252), (178, -178), (252, 0), (178, 178), (0, 252), (-178, 178), (-252, 0), (-178, -178)]","[]","13","odd","3","181989","207212","207212","93972","92966","1808","121592","121592","1808","1808","112930","287521","1805","207212","286609","285865","285865","NA","739","study_X","0","18958","1","yes","1680"
"undefined","undefined","18958","18958","black","no","legacy","legacy","legacy","0","red","(179, 0, 0)","color","present","highProbOther","circular","same","same","swap","swap","green","(0, 122, 0)","lowProb","lowProb3","circular","uniform","1","undefined","0.203125","1","1","164.921875","1","39","31665","0","0","0","0","0","0","0","0","63","0","1","0.203125","164.921875","39","31665","63","63","63","08/22/17 10:01:18","Default description","yes","<openexp._canvas.legacy.legacy object at 0x04AE27F0>","<openexp._canvas.legacy.legacy object at 0x04AEE7B0>","<openexp._canvas.legacy.legacy object at 0x04ADA510>","<openexp._canvas.legacy.legacy object at 0x04BD09D0>","<openexp._canvas.legacy.legacy object at 0x04BA14B0>","<openexp._canvas.legacy.legacy object at 0x04AE9450>","<openexp._canvas.legacy.legacy object at 0x04BA2A50>","75","IndividualPriorityWithDis_v1.osexp","C:/Userdata/Michel/SpatialProb/IndividualPriorityMaps/Experiment2","no","mono","no","18","no","white","no","yes","0.09","98","1050","legacy","315","38","38","1","C:/Userdata/Michel/SpatialProb/IndividualPriorityMaps/Experiment2/data/subject-13.csv","legacy","9","192","25","Jazzy James","3.1.3","yes","598477b2b83f69022949e7e9","47","red","circular","green","circular","0","/","678","space","18958","18958","(80, 80, 80)","(0, 122, 0)","(179, 0, 0)","(155, 155, 155)","2","legacy","experiment","[4, 5, 6, 7, 0, 1, 2, 3]","/","2500","3000","0","8","252.758751519","1024","2","48000","-16","main","[(0, -252), (178, -178), (252, 0), (178, 178), (0, 252), (-178, 178), (-252, 0), (-178, -178)]","[]","13","odd","7","181989","207212","207212","93972","92966","1808","121592","121592","1808","1808","112930","289369","1805","207212","288687","287942","287942","NA","739","study_X","0","18958","1","yes","1680"
"undefined","undefined","18958","18958","black","no","legacy","legacy","legacy","0","red","(179, 0, 0)","shape","present","highProb","rectangular","same","swap","swap","same","red","(179, 0, 0)","lowProb","lowProb4","circular","uniform","1","undefined","0.208333333333","1","1","168.364583333","1","40","32326","0","0","0","0","0","0","0","0","64","0","1","0.208333333333","168.364583333","40","32326","64","64","64","08/22/17 10:01:18","Default description","yes","<openexp._canvas.legacy.legacy object at 0x04AE27F0>","<openexp._canvas.legacy.legacy object at 0x04AEE7B0>","<openexp._canvas.legacy.legacy object at 0x04ADA510>","<openexp._canvas.legacy.legacy object at 0x04BD09D0>","<openexp._canvas.legacy.legacy object at 0x04BA14B0>","<openexp._canvas.legacy.legacy object at 0x04ADF630>","<openexp._canvas.legacy.legacy object at 0x04BA2A50>","75","IndividualPriorityWithDis_v1.osexp","C:/Userdata/Michel/SpatialProb/IndividualPriorityMaps/Experiment2","no","mono","no","18","no","white","no","yes","0.09","98","1050","legacy","45","39","39","1","C:/Userdata/Michel/SpatialProb/IndividualPriorityMaps/Experiment2/data/subject-13.csv","legacy","9","192","25","Jazzy James","3.1.3","yes","598477b2b83f69022949e7e9","47","red","rectangular","red","circular","0","\","661","space","18958","18958","(80, 80, 80)","(0, 122, 0)","(179, 0, 0)","(155, 155, 155)","2","legacy","experiment","[4, 5, 6, 7, 0, 1, 2, 3]","\","2500","3000","0","8","252.758751519","1024","2","48000","-16","main","[(0, -252), (178, -178), (252, 0), (178, 178), (0, 252), (-178, 178), (-252, 0), (-178, -178)]","[]","13","odd","1","181989","207212","207212","93972","92966","1808","121592","121592","1808","1808","112930","291192","1805","207212","290528","289783","289783","NA","739","study_X","0","18958","1","yes","1680"
"undefined","undefined","18958","18958","black","no","legacy","legacy","legacy","0","green","(0, 122, 0)","color","present","highProb","rectangular","swap","same","same","swap","red","(179, 0, 0)","lowProb","lowProb2","rectangular","uniform","1","undefined","0.213541666667","1","1","175.171875","1","41","33633","0","0","0","0","0","0","0","0","65","0","1","0.213541666667","175.171875","41","33633","65","65","65","08/22/17 10:01:18","Default description","yes","<openexp._canvas.legacy.legacy object at 0x04AE27F0>","<openexp._canvas.legacy.legacy object at 0x04AEE7B0>","<openexp._canvas.legacy.legacy object at 0x04ADA510>","<openexp._canvas.legacy.legacy object at 0x04BD09D0>","<openexp._canvas.legacy.legacy object at 0x04BA14B0>","<openexp._canvas.legacy.legacy object at 0x04AEEDB0>","<openexp._canvas.legacy.legacy object at 0x04BA2A50>","75","IndividualPriorityWithDis_v1.osexp","C:/Userdata/Michel/SpatialProb/IndividualPriorityMaps/Experiment2","no","mono","no","18","no","white","no","yes","0.09","98","1050","legacy","45","40","40","1","C:/Userdata/Michel/SpatialProb/IndividualPriorityMaps/Experiment2/data/subject-13.csv","legacy","9","192","25","Jazzy James","3.1.3","yes","598477b2b83f69022949e7e9","47","green","rectangular","red","rectangular","0","\","1307","space","18958","18958","(80, 80, 80)","(0, 122, 0)","(179, 0, 0)","(155, 155, 155)","2","legacy","experiment","[4, 5, 6, 7, 0, 1, 2, 3]","\","2500","3000","0","8","252.758751519","1024","2","48000","-16","main","[(0, -252), (178, -178), (252, 0), (178, 178), (0, 252), (-178, 178), (-252, 0), (-178, -178)]","[]","13","odd","6","181989","207212","207212","93972","92966","1808","121592","121592","1808","1808","112930","293656","1805","207212","292347","291602","291603","NA","739","study_X","0","18958","1","yes","1680"
"undefined","undefined","18958","18958","black","no","legacy","legacy","legacy","0","green","(0, 122, 0)","shape","present","lowProb1","circular","same","swap","swap","same","green","(0, 122, 0)","lowProb","lowProb2","rectangular","uniform","1","undefined","0.21875","1","1","179.817708333","1","42","34525","0","0","0","0","0","0","0","0","66","0","1","0.21875","179.817708333","42","34525","66","66","66","08/22/17 10:01:18","Default description","yes","<openexp._canvas.legacy.legacy object at 0x04AE27F0>","<openexp._canvas.legacy.legacy object at 0x04AEE7B0>","<openexp._canvas.legacy.legacy object at 0x04ADA510>","<openexp._canvas.legacy.legacy object at 0x04BD09D0>","<openexp._canvas.legacy.legacy object at 0x04BA14B0>","<openexp._canvas.legacy.legacy object at 0x04AF1490>","<openexp._canvas.legacy.legacy object at 0x04BA2A50>","75","IndividualPriorityWithDis_v1.osexp","C:/Userdata/Michel/SpatialProb/IndividualPriorityMaps/Experiment2","no","mono","no","18","no","white","no","yes","0.09","98","1050","legacy","45","41","41","1","C:/Userdata/Michel/SpatialProb/IndividualPriorityMaps/Experiment2/data/subject-13.csv","legacy","9","192","25","Jazzy James","3.1.3","yes","598477b2b83f69022949e7e9","47","green","circular","green","rectangular","0","\","892","space","18958","18958","(80, 80, 80)","(0, 122, 0)","(179, 0, 0)","(155, 155, 155)","2","legacy","experiment","[4, 5, 6, 7, 0, 1, 2, 3]","\","2500","3000","0","8","252.758751519","1024","2","48000","-16","main","[(0, -252), (178, -178), (252, 0), (178, 178), (0, 252), (-178, 178), (-252, 0), (-178, -178)]","[]","13","odd","6","181989","207212","207212","93972","92966","1808","121592","121592","1808","1808","112930","295704","1805","207212","294809","294066","294066","NA","739","study_X","0","18958","1","yes","1680"
"undefined","undefined","18958","18958","black","no","legacy","legacy","legacy","0","green","(0, 122, 0)","color","present","highProb","rectangular","same","swap","swap","same","red","(179, 0, 0)","lowProb","lowProb3","rectangular","uniform","1","undefined","0.223958333333","1","1","185.083333333","1","43","35536","0","0","0","0","0","0","0","0","67","0","1","0.223958333333","185.083333333","43","35536","67","67","67","08/22/17 10:01:18","Default description","yes","<openexp._canvas.legacy.legacy object at 0x04AE27F0>","<openexp._canvas.legacy.legacy object at 0x04AEE7B0>","<openexp._canvas.legacy.legacy object at 0x04ADA510>","<openexp._canvas.legacy.legacy object at 0x04BD09D0>","<openexp._canvas.legacy.legacy object at 0x04BA14B0>","<openexp._canvas.legacy.legacy object at 0x04ADF190>","<openexp._canvas.legacy.legacy object at 0x04BA2A50>","75","IndividualPriorityWithDis_v1.osexp","C:/Userdata/Michel/SpatialProb/IndividualPriorityMaps/Experiment2","no","mono","no","18","no","white","no","yes","0.09","98","1050","legacy","315","42","42","1","C:/Userdata/Michel/SpatialProb/IndividualPriorityMaps/Experiment2/data/subject-13.csv","legacy","9","192","25","Jazzy James","3.1.3","yes","598477b2b83f69022949e7e9","47","green","rectangular","red","rectangular","0","/","1011","space","18958","18958","(80, 80, 80)","(0, 122, 0)","(179, 0, 0)","(155, 155, 155)","2","legacy","experiment","[4, 5, 6, 7, 0, 1, 2, 3]","/","2500","3000","0","8","252.758751519","1024","2","48000","-16","main","[(0, -252), (178, -178), (252, 0), (178, 178), (0, 252), (-178, 178), (-252, 0), (-178, -178)]","[]","13","odd","7","181989","207212","207212","93972","92966","1808","121592","121592","1808","1808","112930","297864","1805","207212","296850","296106","296106","NA","739","study_X","0","18958","1","yes","1680"
"undefined","undefined","18958","18958","black","no","legacy","legacy","legacy","0","green","(0, 122, 0)","shape","present","highProb","rectangular","same","same","swap","swap","green","(0, 122, 0)","lowProb","lowProb4","circular","uniform","1","undefined","0.229166666667","1","1","189.380208333","1","44","36361","0","0","0","0","0","0","0","0","68","0","1","0.229166666667","189.380208333","44","36361","68","68","68","08/22/17 10:01:18","Default description","yes","<openexp._canvas.legacy.legacy object at 0x04AE27F0>","<openexp._canvas.legacy.legacy object at 0x04AEE7B0>","<openexp._canvas.legacy.legacy object at 0x04ADA510>","<openexp._canvas.legacy.legacy object at 0x04BD09D0>","<openexp._canvas.legacy.legacy object at 0x04BA14B0>","<openexp._canvas.legacy.legacy object at 0x04AF1390>","<openexp._canvas.legacy.legacy object at 0x04BA2A50>","75","IndividualPriorityWithDis_v1.osexp","C:/Userdata/Michel/SpatialProb/IndividualPriorityMaps/Experiment2","no","mono","no","18","no","white","no","yes","0.09","98","1050","legacy","45","43","43","1","C:/Userdata/Michel/SpatialProb/IndividualPriorityMaps/Experiment2/data/subject-13.csv","legacy","9","192","25","Jazzy James","3.1.3","yes","598477b2b83f69022949e7e9","47","green","rectangular","green","circular","0","\","825","space","18958","18958","(80, 80, 80)","(0, 122, 0)","(179, 0, 0)","(155, 155, 155)","2","legacy","experiment","[4, 5, 6, 7, 0, 1, 2, 3]","\","2500","3000","0","8","252.758751519","1024","2","48000","-16","main","[(0, -252), (178, -178), (252, 0), (178, 178), (0, 252), (-178, 178), (-252, 0), (-178, -178)]","[]","13","odd","1","181989","207212","207212","93972","92966","1808","121592","121592","1808","1808","112930","299856","1805","207212","299028","298283","298283","NA","739","study_X","0","18958","1","yes","1680"
"undefined","undefined","18958","18958","black","no","legacy","legacy","legacy","0","red","(179, 0, 0)","shape","present","highProb","circular","swap","swap","swap","swap","red","(179, 0, 0)","highProbColor","highProbColor","rectangular","uniform","1","undefined","0.234375","1","1","193.286458333","1","45","37111","0","0","0","0","0","0","0","0","69","0","1","0.234375","193.286458333","45","37111","69","69","69","08/22/17 10:01:18","Default description","yes","<openexp._canvas.legacy.legacy object at 0x04AE27F0>","<openexp._canvas.legacy.legacy object at 0x04AEE7B0>","<openexp._canvas.legacy.legacy object at 0x04ADA510>","<openexp._canvas.legacy.legacy object at 0x04BD09D0>","<openexp._canvas.legacy.legacy object at 0x04BA14B0>","<openexp._canvas.legacy.legacy object at 0x04AE9B90>","<openexp._canvas.legacy.legacy object at 0x04BA2A50>","75","IndividualPriorityWithDis_v1.osexp","C:/Userdata/Michel/SpatialProb/IndividualPriorityMaps/Experiment2","no","mono","no","18","no","white","no","yes","0.09","98","1050","legacy","315","44","44","1","C:/Userdata/Michel/SpatialProb/IndividualPriorityMaps/Experiment2/data/subject-13.csv","legacy","9","192","25","Jazzy James","3.1.3","yes","598477b2b83f69022949e7e9","47","red","circular","red","rectangular","0","/","750","space","18958","18958","(80, 80, 80)","(0, 122, 0)","(179, 0, 0)","(155, 155, 155)","2","legacy","experiment","[4, 5, 6, 7, 0, 1, 2, 3]","/","2500","3000","0","8","252.758751519","1024","2","48000","-16","main","[(0, -252), (178, -178), (252, 0), (178, 178), (0, 252), (-178, 178), (-252, 0), (-178, -178)]","[]","13","odd","4","181989","207212","207212","93972","92966","1808","121592","121592","1808","1808","112930","301769","1805","207212","301015","300270","300270","NA","739","study_X","0","18958","1","yes","1680"
"undefined","undefined","18958","18958","black","no","legacy","legacy","legacy","0","red","(179, 0, 0)","color","present","lowProb2","rectangular","same","swap","swap","same","green","(0, 122, 0)","lowProb","lowProb5","rectangular","uniform","1","undefined","0.239583333333","1","1","197.25","1","46","37872","0","0","0","0","0","0","0","0","70","0","1","0.239583333333","197.25","46","37872","70","70","70","08/22/17 10:01:18","Default description","yes","<openexp._canvas.legacy.legacy object at 0x04AE27F0>","<openexp._canvas.legacy.legacy object at 0x04AEE7B0>","<openexp._canvas.legacy.legacy object at 0x04ADA510>","<openexp._canvas.legacy.legacy object at 0x04BD09D0>","<openexp._canvas.legacy.legacy object at 0x04BA14B0>","<openexp._canvas.legacy.legacy object at 0x04BCBF90>","<openexp._canvas.legacy.legacy object at 0x04BA2A50>","75","IndividualPriorityWithDis_v1.osexp","C:/Userdata/Michel/SpatialProb/IndividualPriorityMaps/Experiment2","no","mono","no","18","no","white","no","yes","0.09","98","1050","legacy","45","45","45","1","C:/Userdata/Michel/SpatialProb/IndividualPriorityMaps/Experiment2/data/subject-13.csv","legacy","9","192","25","Jazzy James","3.1.3","yes","598477b2b83f69022949e7e9","47","red","rectangular","green","rectangular","0","\","761","space","18958","18958","(80, 80, 80)","(0, 122, 0)","(179, 0, 0)","(155, 155, 155)","2","legacy","experiment","[4, 5, 6, 7, 0, 1, 2, 3]","\","2500","3000","0","8","252.758751519","1024","2","48000","-16","main","[(0, -252), (178, -178), (252, 0), (178, 178), (0, 252), (-178, 178), (-252, 0), (-178, -178)]","[]","13","odd","2","181989","207212","207212","93972","92966","1808","121592","121592","1808","1808","112930","303681","1805","207212","302916","302172","302172","NA","739","study_X","0","18958","1","yes","1680"
"undefined","undefined","18958","18958","black","no","legacy","legacy","legacy","0","red","(179, 0, 0)","shape","present","highProb","rectangular","same","same","swap","swap","red","(179, 0, 0)","lowProb","lowProb4","circular","uniform","1","undefined","0.244791666667","1","1","200.052083333","1","47","38410","0","0","0","0","0","0","0","0","71","0","1","0.244791666667","200.052083333","47","38410","71","71","71","08/22/17 10:01:18","Default description","yes","<openexp._canvas.legacy.legacy object at 0x04AE27F0>","<openexp._canvas.legacy.legacy object at 0x04AEE7B0>","<openexp._canvas.legacy.legacy object at 0x04ADA510>","<openexp._canvas.legacy.legacy object at 0x04BD09D0>","<openexp._canvas.legacy.legacy object at 0x04BA14B0>","<openexp._canvas.legacy.legacy object at 0x04AE90D0>","<openexp._canvas.legacy.legacy object at 0x04BA2A50>","75","IndividualPriorityWithDis_v1.osexp","C:/Userdata/Michel/SpatialProb/IndividualPriorityMaps/Experiment2","no","mono","no","18","no","white","no","yes","0.09","98","1050","legacy","315","46","46","1","C:/Userdata/Michel/SpatialProb/IndividualPriorityMaps/Experiment2/data/subject-13.csv","legacy","9","192","25","Jazzy James","3.1.3","yes","598477b2b83f69022949e7e9","47","red","rectangular","red","circular","0","/","538","space","18958","18958","(80, 80, 80)","(0, 122, 0)","(179, 0, 0)","(155, 155, 155)","2","legacy","experiment","[4, 5, 6, 7, 0, 1, 2, 3]","/","2500","3000","0","8","252.758751519","1024","2","48000","-16","main","[(0, -252), (178, -178), (252, 0), (178, 178), (0, 252), (-178, 178), (-252, 0), (-178, -178)]","[]","13","odd","1","181989","207212","207212","93972","92966","1808","121592","121592","1808","1808","112930","305385","1805","207212","304843","304098","304099","NA","739","study_X","0","18958","1","yes","1680"
"undefined","undefined","18958","18958","black","no","legacy","legacy","legacy","0","green","(0, 122, 0)","color","present","highProb","rectangular","swap","same","same","swap","red","(179, 0, 0)","lowProb","lowProb1","rectangular","uniform","1","undefined","0.25","1","1","208.34375","1","48","40002","0","0","0","0","0","0","0","0","72","0","1","0.25","208.34375","48","40002","72","72","72","08/22/17 10:01:18","Default description","yes","<openexp._canvas.legacy.legacy object at 0x04AE27F0>","<openexp._canvas.legacy.legacy object at 0x04AEE7B0>","<openexp._canvas.legacy.legacy object at 0x04ADA510>","<openexp._canvas.legacy.legacy object at 0x04BD09D0>","<openexp._canvas.legacy.legacy object at 0x04BA14B0>","<openexp._canvas.legacy.legacy object at 0x04BD19F0>","<openexp._canvas.legacy.legacy object at 0x04BA2A50>","75","IndividualPriorityWithDis_v1.osexp","C:/Userdata/Michel/SpatialProb/IndividualPriorityMaps/Experiment2","no","mono","no","18","no","white","no","yes","0.09","98","1050","legacy","45","47","47","1","C:/Userdata/Michel/SpatialProb/IndividualPriorityMaps/Experiment2/data/subject-13.csv","legacy","9","192","25","Jazzy James","3.1.3","yes","598477b2b83f69022949e7e9","47","green","rectangular","red","rectangular","0","\","1592","space","18958","18958","(80, 80, 80)","(0, 122, 0)","(179, 0, 0)","(155, 155, 155)","2","legacy","experiment","[4, 5, 6, 7, 0, 1, 2, 3]","\","2500","3000","0","8","252.758751519","1024","2","48000","-16","main","[(0, -252), (178, -178), (252, 0), (178, 178), (0, 252), (-178, 178), (-252, 0), (-178, -178)]","[]","13","odd","5","181989","207212","207212","93972","92966","1808","121592","121592","1808","1808","112930","308128","1805","207212","306533","305788","305789","NA","739","study_X","0","18958","1","yes","1680"
"undefined","undefined","18958","18958","black","no","legacy","legacy","legacy","0","red","(179, 0, 0)","shape","present","highProb","circular","swap","swap","same","same","red","(179, 0, 0)","lowProb","lowProb3","rectangular","uniform","1","undefined","0.255208333333","1","1","211.833333333","1","49","40672","0","0","0","0","0","0","0","0","73","0","1","0.255208333333","211.833333333","49","40672","73","73","73","08/22/17 10:01:18","Default description","yes","<openexp._canvas.legacy.legacy object at 0x04AE27F0>","<openexp._canvas.legacy.legacy object at 0x04AEE7B0>","<openexp._canvas.legacy.legacy object at 0x04ADA510>","<openexp._canvas.legacy.legacy object at 0x04BD09D0>","<openexp._canvas.legacy.legacy object at 0x04BA14B0>","<openexp._canvas.legacy.legacy object at 0x04AE4F90>","<openexp._canvas.legacy.legacy object at 0x04BA2A50>","75","IndividualPriorityWithDis_v1.osexp","C:/Userdata/Michel/SpatialProb/IndividualPriorityMaps/Experiment2","no","mono","no","18","no","white","no","yes","0.09","98","1050","legacy","45","48","48","1","C:/Userdata/Michel/SpatialProb/IndividualPriorityMaps/Experiment2/data/subject-13.csv","legacy","9","192","25","Jazzy James","3.1.3","yes","598477b2b83f69022949e7e9","47","red","circular","red","rectangular","0","\","670","space","18958","18958","(80, 80, 80)","(0, 122, 0)","(179, 0, 0)","(155, 155, 155)","2","legacy","experiment","[4, 5, 6, 7, 0, 1, 2, 3]","\","2500","3000","0","8","252.758751519","1024","2","48000","-16","main","[(0, -252), (178, -178), (252, 0), (178, 178), (0, 252), (-178, 178), (-252, 0), (-178, -178)]","[]","13","odd","7","181989","207212","207212","93972","92966","1808","121592","121592","1808","1808","112930","309952","1805","207212","309279","308534","308534","NA","739","study_X","0","18958","1","yes","1680"
"undefined","undefined","18958","18958","black","no","legacy","legacy","legacy","0","green","(0, 122, 0)","color","present","highProb","circular","swap","same","same","swap","red","(179, 0, 0)","lowProb","lowProb5","circular","uniform","1","undefined","0.260416666667","1","1","215.046875","1","50","41289","0","0","0","0","0","0","0","0","74","0","1","0.260416666667","215.046875","50","41289","74","74","74","08/22/17 10:01:18","Default description","yes","<openexp._canvas.legacy.legacy object at 0x04AE27F0>","<openexp._canvas.legacy.legacy object at 0x04AEE7B0>","<openexp._canvas.legacy.legacy object at 0x04ADA510>","<openexp._canvas.legacy.legacy object at 0x04BD09D0>","<openexp._canvas.legacy.legacy object at 0x04BA14B0>","<openexp._canvas.legacy.legacy object at 0x04AF8390>","<openexp._canvas.legacy.legacy object at 0x04BA2A50>","75","IndividualPriorityWithDis_v1.osexp","C:/Userdata/Michel/SpatialProb/IndividualPriorityMaps/Experiment2","no","mono","no","18","no","white","no","yes","0.09","98","1050","legacy","315","49","49","1","C:/Userdata/Michel/SpatialProb/IndividualPriorityMaps/Experiment2/data/subject-13.csv","legacy","9","192","25","Jazzy James","3.1.3","yes","598477b2b83f69022949e7e9","47","green","circular","red","circular","0","/","617","space","18958","18958","(80, 80, 80)","(0, 122, 0)","(179, 0, 0)","(155, 155, 155)","2","legacy","experiment","[4, 5, 6, 7, 0, 1, 2, 3]","/","2500","3000","0","8","252.758751519","1024","2","48000","-16","main","[(0, -252), (178, -178), (252, 0), (178, 178), (0, 252), (-178, 178), (-252, 0), (-178, -178)]","[]","13","odd","2","181989","207212","207212","93972","92966","1808","121592","121592","1808","1808","112930","311736","1805","207212","311116","310371","310371","NA","739","study_X","0","18958","1","yes","1680"
"undefined","undefined","18958","18958","black","no","legacy","legacy","legacy","0","green","(0, 122, 0)","color","absent","highProbOther","circular","same","same","swap","same","green","(0, 122, 0)","highProbColor","highProbColor","circular","uniform","1","undefined","0.265625","1","1","217.927083333","1","51","41842","0","0","0","0","0","0","0","0","75","0","1","0.265625","217.927083333","51","41842","75","75","75","08/22/17 10:01:18","Default description","yes","<openexp._canvas.legacy.legacy object at 0x04AE27F0>","<openexp._canvas.legacy.legacy object at 0x04AEE7B0>","<openexp._canvas.legacy.legacy object at 0x04ADA510>","<openexp._canvas.legacy.legacy object at 0x04BD09D0>","<openexp._canvas.legacy.legacy object at 0x04BA14B0>","<openexp._canvas.legacy.legacy object at 0x04AE4750>","<openexp._canvas.legacy.legacy object at 0x04BA2A50>","75","IndividualPriorityWithDis_v1.osexp","C:/Userdata/Michel/SpatialProb/IndividualPriorityMaps/Experiment2","no","mono","no","18","no","white","no","yes","0.09","98","1050","legacy","45","50","50","1","C:/Userdata/Michel/SpatialProb/IndividualPriorityMaps/Experiment2/data/subject-13.csv","legacy","9","192","25","Jazzy James","3.1.3","yes","598477b2b83f69022949e7e9","47","green","circular","green","circular","0","\","553","space","18958","18958","(80, 80, 80)","(0, 122, 0)","(179, 0, 0)","(155, 155, 155)","2","legacy","experiment","[4, 5, 6, 7, 0, 1, 2, 3]","\","2500","3000","0","8","252.758751519","1024","2","48000","-16","main","[(0, -252), (178, -178), (252, 0), (178, 178), (0, 252), (-178, 178), (-252, 0), (-178, -178)]","[]","13","odd","4","181989","207212","207212","93972","92966","1808","121592","121592","1808","1808","112930","313456","1805","207212","312900","312155","312155","NA","739","study_X","0","18958","1","yes","1680"
"undefined","undefined","18958","18958","black","no","legacy","legacy","legacy","0","green","(0, 122, 0)","color","present","lowProb2","rectangular","same","swap","swap","swap","red","(179, 0, 0)","lowProb","lowProb1","rectangular","uniform","1","undefined","0.270833333333","1","1","222.90625","1","52","42798","0","0","0","0","0","0","0","0","76","0","1","0.270833333333","222.90625","52","42798","76","76","76","08/22/17 10:01:18","Default description","yes","<openexp._canvas.legacy.legacy object at 0x04AE27F0>","<openexp._canvas.legacy.legacy object at 0x04AEE7B0>","<openexp._canvas.legacy.legacy object at 0x04ADA510>","<openexp._canvas.legacy.legacy object at 0x04BD09D0>","<openexp._canvas.legacy.legacy object at 0x04BA14B0>","<openexp._canvas.legacy.legacy object at 0x04AF18D0>","<openexp._canvas.legacy.legacy object at 0x04BA2A50>","75","IndividualPriorityWithDis_v1.osexp","C:/Userdata/Michel/SpatialProb/IndividualPriorityMaps/Experiment2","no","mono","no","18","no","white","no","yes","0.09","98","1050","legacy","45","51","51","1","C:/Userdata/Michel/SpatialProb/IndividualPriorityMaps/Experiment2/data/subject-13.csv","legacy","9","192","25","Jazzy James","3.1.3","yes","598477b2b83f69022949e7e9","47","green","rectangular","red","rectangular","0","\","956","space","18958","18958","(80, 80, 80)","(0, 122, 0)","(179, 0, 0)","(155, 155, 155)","2","legacy","experiment","[4, 5, 6, 7, 0, 1, 2, 3]","\","2500","3000","0","8","252.758751519","1024","2","48000","-16","main","[(0, -252), (178, -178), (252, 0), (178, 178), (0, 252), (-178, 178), (-252, 0), (-178, -178)]","[]","13","odd","5","181989","207212","207212","93972","92966","1808","121592","121592","1808","1808","112930","315568","1805","207212","314609","313864","313864","NA","739","study_X","0","18958","1","yes","1680"
"undefined","undefined","18958","18958","black","no","legacy","legacy","legacy","0","green","(0, 122, 0)","shape","present","highProb","circular","same","swap","swap","same","green","(0, 122, 0)","lowProb","lowProb1","rectangular","uniform","1","undefined","0.276041666667","1","1","226.791666667","1","53","43544","0","0","0","0","0","0","0","0","77","0","1","0.276041666667","226.791666667","53","43544","77","77","77","08/22/17 10:01:18","Default description","yes","<openexp._canvas.legacy.legacy object at 0x04AE27F0>","<openexp._canvas.legacy.legacy object at 0x04AEE7B0>","<openexp._canvas.legacy.legacy object at 0x04ADA510>","<openexp._canvas.legacy.legacy object at 0x04BD09D0>","<openexp._canvas.legacy.legacy object at 0x04BA14B0>","<openexp._canvas.legacy.legacy object at 0x04BD1370>","<openexp._canvas.legacy.legacy object at 0x04BA2A50>","75","IndividualPriorityWithDis_v1.osexp","C:/Userdata/Michel/SpatialProb/IndividualPriorityMaps/Experiment2","no","mono","no","18","no","white","no","yes","0.09","98","1050","legacy","315","52","52","1","C:/Userdata/Michel/SpatialProb/IndividualPriorityMaps/Experiment2/data/subject-13.csv","legacy","9","192","25","Jazzy James","3.1.3","yes","598477b2b83f69022949e7e9","47","green","circular","green","rectangular","0","/","746","space","18958","18958","(80, 80, 80)","(0, 122, 0)","(179, 0, 0)","(155, 155, 155)","2","legacy","experiment","[4, 5, 6, 7, 0, 1, 2, 3]","/","2500","3000","0","8","252.758751519","1024","2","48000","-16","main","[(0, -252), (178, -178), (252, 0), (178, 178), (0, 252), (-178, 178), (-252, 0), (-178, -178)]","[]","13","odd","5","181989","207212","207212","93972","92966","1808","121592","121592","1808","1808","112930","317472","1805","207212","316722","315977","315977","NA","739","study_X","0","18958","1","yes","1680"
"undefined","undefined","18958","18958","black","no","legacy","legacy","legacy","0","green","(0, 122, 0)","color","present","highProb","circular","same","same","swap","swap","red","(179, 0, 0)","lowProb","lowProb3","circular","uniform","1","undefined","0.28125","1","1","230.666666667","1","54","44288","0","0","0","0","0","0","0","0","78","0","1","0.28125","230.666666667","54","44288","78","78","78","08/22/17 10:01:18","Default description","yes","<openexp._canvas.legacy.legacy object at 0x04AE27F0>","<openexp._canvas.legacy.legacy object at 0x04AEE7B0>","<openexp._canvas.legacy.legacy object at 0x04ADA510>","<openexp._canvas.legacy.legacy object at 0x04BD09D0>","<openexp._canvas.legacy.legacy object at 0x04BA14B0>","<openexp._canvas.legacy.legacy object at 0x04AF3DB0>","<openexp._canvas.legacy.legacy object at 0x04BA2A50>","75","IndividualPriorityWithDis_v1.osexp","C:/Userdata/Michel/SpatialProb/IndividualPriorityMaps/Experiment2","no","mono","no","18","no","white","no","yes","0.09","98","1050","legacy","315","53","53","1","C:/Userdata/Michel/SpatialProb/IndividualPriorityMaps/Experiment2/data/subject-13.csv","legacy","9","192","25","Jazzy James","3.1.3","yes","598477b2b83f69022949e7e9","47","green","circular","red","circular","0","/","744","space","18958","18958","(80, 80, 80)","(0, 122, 0)","(179, 0, 0)","(155, 155, 155)","2","legacy","experiment","[4, 5, 6, 7, 0, 1, 2, 3]","/","2500","3000","0","8","252.758751519","1024","2","48000","-16","main","[(0, -252), (178, -178), (252, 0), (178, 178), (0, 252), (-178, 178), (-252, 0), (-178, -178)]","[]","13","odd","7","181989","207212","207212","93972","92966","1808","121592","121592","1808","1808","112930","319377","1805","207212","318629","317885","317885","NA","739","study_X","0","18958","1","yes","1680"
