"acc","accuracy","average_response_time","avg_rt","background","bidi","canvas_backend","clock_backend","color_backend","compensation","cond_disColor","cond_disColorRGB","cond_disFeature","cond_disPresent","cond_disProbability","cond_disShape","cond_primingDisColor","cond_primingDisShape","cond_primingTarColor","cond_primingTarShape","cond_tarColor","cond_tarColorRGB","cond_tarLocation","cond_tarLocationLong","cond_tarShape","coordinates","correct","correct_continuePress","count_blockAcc","count_blockFeed","count_blockLoop","count_blockRT","count_blockSeq","count_blockSumCorrect","count_blockSumRT","count_continuePress","count_example","count_expSettings","count_exp_mainLoop","count_experiment","count_instructions","count_instructions1","count_instructions2","count_log","count_main","count_prepCanvas","count_totalAcc","count_totalRT","count_totalSumCorrect","count_totalSumRT","count_trialResp","count_trialSeq","count_trialTask","datetime","description","disable_garbage_collection","dispBlank","dispBlockStart","dispFeedBlock","dispFix","dispInstructions","dispSearch","dispStartScreen","distance2screen","experiment_file","experiment_path","font_bold","font_family","font_italic","font_size","font_underline","foreground","form_clicks","fullscreen","gaborFreq","gaborSize","height","keyboard_backend","lineOriTar","live_row","live_row_blockLoop","live_row_exp_mainLoop","logfile","mouse_backend","noExpBlocks","noExpTrials","noPracTrials","opensesame_codename","opensesame_version","osf_always_upload_experiment","osf_id","physical_screensize","previousDisColor","previousDisShape","previousTarColor","previousTarShape","repeat_cycle","response","responseTime","response_continuePress","response_time","response_time_continuePress","rgb_gray","rgb_green","rgb_red","rgb_white","round_decimals","sampler_backend","set_blockType","set_counterPositions","set_respCorrect","set_respTimeoutExp","set_respTimeoutPrac","set_rotation","set_setSize","sizeImaginary","sound_buf_size","sound_channels","sound_freq","sound_sample_size","start","stimPositions","stimuli","subject_nr","subject_parity","tarIdx","time_blockFeed","time_blockLoop","time_blockSeq","time_continuePress","time_example","time_expSettings","time_exp_mainLoop","time_experiment","time_instructions","time_instructions1","time_instructions2","time_log","time_main","time_prepCanvas","time_trialResp","time_trialSeq","time_trialTask","timing_EEGwait","timing_fix","title","total_correct","total_response_time","total_responses","uniform_coordinates","width"
"undefined","undefined","9494","9494","black","no","legacy","legacy","legacy","0","red","(179, 0, 0)","color","absent","lowProb2","rectangular","same","same","same","same","red","(179, 0, 0)","lowProb","lowProb5","rectangular","uniform","1","undefined","0.00520833333333","1","1","3.83333333333","1","1","736","0","0","0","0","0","0","0","0","25","0","1","0.00520833333333","3.83333333333","1","736","25","25","25","08/23/17 11:16:08","Default description","yes","<openexp._canvas.legacy.legacy object at 0x049627F0>","<openexp._canvas.legacy.legacy object at 0x0496E7B0>","<openexp._canvas.legacy.legacy object at 0x0495A410>","<openexp._canvas.legacy.legacy object at 0x04A509D0>","<openexp._canvas.legacy.legacy object at 0x04A214B0>","<openexp._canvas.legacy.legacy object at 0x0495E550>","<openexp._canvas.legacy.legacy object at 0x04A229F0>","75","IndividualPriorityWithDis_v1.osexp","C:/Userdata/Michel/SpatialProb/IndividualPriorityMaps/Experiment2","no","mono","no","18","no","white","no","yes","0.09","98","1050","legacy","315","0","0","1","C:/Userdata/Michel/SpatialProb/IndividualPriorityMaps/Experiment2/data/subject-17.csv","legacy","9","192","25","Jazzy James","3.1.3","yes","598477b2b83f69022949e7e9","47","red","rectangular","red","rectangular","0","/","736","space","9494","9494","(80, 80, 80)","(0, 122, 0)","(179, 0, 0)","(155, 155, 155)","2","legacy","experiment","[0, 1, 2, 3, 4, 5, 6, 7]","/","2500","3000","0","8","252.758751519","1024","2","48000","-16","main","[(0, -252), (178, -178), (252, 0), (178, 178), (0, 252), (-178, 178), (-252, 0), (-178, -178)]","[]","17","odd","6","194277","407077","407076","107629","106623","1793","122042","122042","1793","1793","117123","414257","1792","407077","413518","407459","407459","NA","981","study_X","0","9494","1","yes","1680"
"undefined","undefined","9494","9494","black","no","legacy","legacy","legacy","0","red","(179, 0, 0)","color","present","lowProb6","circular","same","swap","swap","swap","green","(0, 122, 0)","lowProb","lowProb3","circular","uniform","1","undefined","0.0104166666667","1","1","7.52604166667","1","2","1445","0","0","0","0","0","0","0","0","26","0","1","0.0104166666667","7.52604166667","2","1445","26","26","26","08/23/17 11:16:08","Default description","yes","<openexp._canvas.legacy.legacy object at 0x049627F0>","<openexp._canvas.legacy.legacy object at 0x0496E7B0>","<openexp._canvas.legacy.legacy object at 0x0495A410>","<openexp._canvas.legacy.legacy object at 0x04A509D0>","<openexp._canvas.legacy.legacy object at 0x04A214B0>","<openexp._canvas.legacy.legacy object at 0x0496EFB0>","<openexp._canvas.legacy.legacy object at 0x04A229F0>","75","IndividualPriorityWithDis_v1.osexp","C:/Userdata/Michel/SpatialProb/IndividualPriorityMaps/Experiment2","no","mono","no","18","no","white","no","yes","0.09","98","1050","legacy","45","1","1","1","C:/Userdata/Michel/SpatialProb/IndividualPriorityMaps/Experiment2/data/subject-17.csv","legacy","9","192","25","Jazzy James","3.1.3","yes","598477b2b83f69022949e7e9","47","red","circular","green","circular","0","\","709","space","9494","9494","(80, 80, 80)","(0, 122, 0)","(179, 0, 0)","(155, 155, 155)","2","legacy","experiment","[0, 1, 2, 3, 4, 5, 6, 7]","\","2500","3000","0","8","252.758751519","1024","2","48000","-16","main","[(0, -252), (178, -178), (252, 0), (178, 178), (0, 252), (-178, 178), (-252, 0), (-178, -178)]","[]","17","odd","3","194277","407077","407076","107629","106623","1793","122042","122042","1793","1793","117123","416385","1792","407077","415673","414686","414686","NA","981","study_X","0","9494","1","yes","1680"
"undefined","undefined","9494","9494","black","no","legacy","legacy","legacy","0","red","(179, 0, 0)","shape","present","highProb","circular","same","same","swap","swap","red","(179, 0, 0)","highProbColor","highProbColor","rectangular","uniform","1","undefined","0.015625","1","1","16.3125","1","3","3132","0","0","0","0","0","0","0","0","27","0","1","0.015625","16.3125","3","3132","27","27","27","08/23/17 11:16:08","Default description","yes","<openexp._canvas.legacy.legacy object at 0x049627F0>","<openexp._canvas.legacy.legacy object at 0x0496E7B0>","<openexp._canvas.legacy.legacy object at 0x0495A410>","<openexp._canvas.legacy.legacy object at 0x04A509D0>","<openexp._canvas.legacy.legacy object at 0x04A214B0>","<openexp._canvas.legacy.legacy object at 0x0495F950>","<openexp._canvas.legacy.legacy object at 0x04A229F0>","75","IndividualPriorityWithDis_v1.osexp","C:/Userdata/Michel/SpatialProb/IndividualPriorityMaps/Experiment2","no","mono","no","18","no","white","no","yes","0.09","98","1050","legacy","45","2","2","1","C:/Userdata/Michel/SpatialProb/IndividualPriorityMaps/Experiment2/data/subject-17.csv","legacy","9","192","25","Jazzy James","3.1.3","yes","598477b2b83f69022949e7e9","47","red","circular","red","rectangular","0","\","1687","space","9494","9494","(80, 80, 80)","(0, 122, 0)","(179, 0, 0)","(155, 155, 155)","2","legacy","experiment","[0, 1, 2, 3, 4, 5, 6, 7]","\","2500","3000","0","8","252.758751519","1024","2","48000","-16","main","[(0, -252), (178, -178), (252, 0), (178, 178), (0, 252), (-178, 178), (-252, 0), (-178, -178)]","[]","17","odd","0","194277","407077","407076","107629","106623","1793","122042","122042","1793","1793","117123","419473","1792","407077","417782","416795","416795","NA","981","study_X","0","9494","1","yes","1680"
"undefined","undefined","9494","9494","black","no","legacy","legacy","legacy","0","red","(179, 0, 0)","shape","present","lowProb3","rectangular","same","swap","same","swap","red","(179, 0, 0)","lowProb","lowProb6","circular","uniform","1","undefined","0.0208333333333","1","1","21.140625","1","4","4059","0","0","0","0","0","0","0","0","28","0","1","0.0208333333333","21.140625","4","4059","28","28","28","08/23/17 11:16:08","Default description","yes","<openexp._canvas.legacy.legacy object at 0x049627F0>","<openexp._canvas.legacy.legacy object at 0x0496E7B0>","<openexp._canvas.legacy.legacy object at 0x0495A410>","<openexp._canvas.legacy.legacy object at 0x04A509D0>","<openexp._canvas.legacy.legacy object at 0x04A214B0>","<openexp._canvas.legacy.legacy object at 0x0495A510>","<openexp._canvas.legacy.legacy object at 0x04A229F0>","75","IndividualPriorityWithDis_v1.osexp","C:/Userdata/Michel/SpatialProb/IndividualPriorityMaps/Experiment2","no","mono","no","18","no","white","no","yes","0.09","98","1050","legacy","45","3","3","1","C:/Userdata/Michel/SpatialProb/IndividualPriorityMaps/Experiment2/data/subject-17.csv","legacy","9","192","25","Jazzy James","3.1.3","yes","598477b2b83f69022949e7e9","47","red","rectangular","red","circular","0","\","927","space","9494","9494","(80, 80, 80)","(0, 122, 0)","(179, 0, 0)","(155, 155, 155)","2","legacy","experiment","[0, 1, 2, 3, 4, 5, 6, 7]","\","2500","3000","0","8","252.758751519","1024","2","48000","-16","main","[(0, -252), (178, -178), (252, 0), (178, 178), (0, 252), (-178, 178), (-252, 0), (-178, -178)]","[]","17","odd","7","194277","407077","407076","107629","106623","1793","122042","122042","1793","1793","117123","421801","1792","407077","420870","419883","419883","NA","981","study_X","0","9494","1","yes","1680"
"undefined","undefined","9494","9494","black","no","legacy","legacy","legacy","0","green","(0, 122, 0)","color","present","highProb","rectangular","swap","same","same","swap","red","(179, 0, 0)","lowProb","lowProb5","rectangular","uniform","1","undefined","0.0260416666667","1","1","27.2604166667","1","5","5234","0","0","0","0","0","0","0","0","29","0","1","0.0260416666667","27.2604166667","5","5234","29","29","29","08/23/17 11:16:08","Default description","yes","<openexp._canvas.legacy.legacy object at 0x049627F0>","<openexp._canvas.legacy.legacy object at 0x0496E7B0>","<openexp._canvas.legacy.legacy object at 0x0495A410>","<openexp._canvas.legacy.legacy object at 0x04A509D0>","<openexp._canvas.legacy.legacy object at 0x04A214B0>","<openexp._canvas.legacy.legacy object at 0x0495FF50>","<openexp._canvas.legacy.legacy object at 0x04A229F0>","75","IndividualPriorityWithDis_v1.osexp","C:/Userdata/Michel/SpatialProb/IndividualPriorityMaps/Experiment2","no","mono","no","18","no","white","no","yes","0.09","98","1050","legacy","315","4","4","1","C:/Userdata/Michel/SpatialProb/IndividualPriorityMaps/Experiment2/data/subject-17.csv","legacy","9","192","25","Jazzy James","3.1.3","yes","598477b2b83f69022949e7e9","47","green","rectangular","red","rectangular","0","/","1175","space","9494","9494","(80, 80, 80)","(0, 122, 0)","(179, 0, 0)","(155, 155, 155)","2","legacy","experiment","[0, 1, 2, 3, 4, 5, 6, 7]","/","2500","3000","0","8","252.758751519","1024","2","48000","-16","main","[(0, -252), (178, -178), (252, 0), (178, 178), (0, 252), (-178, 178), (-252, 0), (-178, -178)]","[]","17","odd","6","194277","407077","407076","107629","106623","1793","122042","122042","1793","1793","117123","424368","1792","407077","423191","422204","422204","NA","981","study_X","0","9494","1","yes","1680"
"undefined","undefined","9494","9494","black","no","legacy","legacy","legacy","0","red","(179, 0, 0)","color","present","highProb","rectangular","swap","same","swap","same","green","(0, 122, 0)","lowProb","lowProb5","rectangular","uniform","1","undefined","0.03125","1","1","32.25","1","6","6192","0","0","0","0","0","0","0","0","30","0","1","0.03125","32.25","6","6192","30","30","30","08/23/17 11:16:08","Default description","yes","<openexp._canvas.legacy.legacy object at 0x049627F0>","<openexp._canvas.legacy.legacy object at 0x0496E7B0>","<openexp._canvas.legacy.legacy object at 0x0495A410>","<openexp._canvas.legacy.legacy object at 0x04A509D0>","<openexp._canvas.legacy.legacy object at 0x04A214B0>","<openexp._canvas.legacy.legacy object at 0x04A502B0>","<openexp._canvas.legacy.legacy object at 0x04A229F0>","75","IndividualPriorityWithDis_v1.osexp","C:/Userdata/Michel/SpatialProb/IndividualPriorityMaps/Experiment2","no","mono","no","18","no","white","no","yes","0.09","98","1050","legacy","45","5","5","1","C:/Userdata/Michel/SpatialProb/IndividualPriorityMaps/Experiment2/data/subject-17.csv","legacy","9","192","25","Jazzy James","3.1.3","yes","598477b2b83f69022949e7e9","47","red","rectangular","green","rectangular","0","\","958","space","9494","9494","(80, 80, 80)","(0, 122, 0)","(179, 0, 0)","(155, 155, 155)","2","legacy","experiment","[0, 1, 2, 3, 4, 5, 6, 7]","\","2500","3000","0","8","252.758751519","1024","2","48000","-16","main","[(0, -252), (178, -178), (252, 0), (178, 178), (0, 252), (-178, 178), (-252, 0), (-178, -178)]","[]","17","odd","6","194277","407077","407076","107629","106623","1793","122042","122042","1793","1793","117123","426728","1792","407077","425768","424781","424781","NA","981","study_X","0","9494","1","yes","1680"
"undefined","undefined","9494","9494","black","no","legacy","legacy","legacy","0","green","(0, 122, 0)","color","present","highProb","rectangular","swap","same","swap","same","red","(179, 0, 0)","lowProb","lowProb1","rectangular","uniform","1","undefined","0.0364583333333","1","1","39.8697916667","1","7","7655","0","0","0","0","0","0","0","0","31","0","1","0.0364583333333","39.8697916667","7","7655","31","31","31","08/23/17 11:16:08","Default description","yes","<openexp._canvas.legacy.legacy object at 0x049627F0>","<openexp._canvas.legacy.legacy object at 0x0496E7B0>","<openexp._canvas.legacy.legacy object at 0x0495A410>","<openexp._canvas.legacy.legacy object at 0x04A509D0>","<openexp._canvas.legacy.legacy object at 0x04A214B0>","<openexp._canvas.legacy.legacy object at 0x0495AED0>","<openexp._canvas.legacy.legacy object at 0x04A229F0>","75","IndividualPriorityWithDis_v1.osexp","C:/Userdata/Michel/SpatialProb/IndividualPriorityMaps/Experiment2","no","mono","no","18","no","white","no","yes","0.09","98","1050","legacy","45","6","6","1","C:/Userdata/Michel/SpatialProb/IndividualPriorityMaps/Experiment2/data/subject-17.csv","legacy","9","192","25","Jazzy James","3.1.3","yes","598477b2b83f69022949e7e9","47","green","rectangular","red","rectangular","0","\","1463","space","9494","9494","(80, 80, 80)","(0, 122, 0)","(179, 0, 0)","(155, 155, 155)","2","legacy","experiment","[0, 1, 2, 3, 4, 5, 6, 7]","\","2500","3000","0","8","252.758751519","1024","2","48000","-16","main","[(0, -252), (178, -178), (252, 0), (178, 178), (0, 252), (-178, 178), (-252, 0), (-178, -178)]","[]","17","odd","1","194277","407077","407076","107629","106623","1793","122042","122042","1793","1793","117123","429584","1792","407077","428118","427131","427131","NA","981","study_X","0","9494","1","yes","1680"
"undefined","undefined","9494","9494","black","no","legacy","legacy","legacy","0","red","(179, 0, 0)","shape","present","highProb","circular","swap","swap","same","same","red","(179, 0, 0)","lowProb","lowProb4","rectangular","uniform","1","undefined","0.0416666666667","1","1","44.8020833333","1","8","8602","0","0","0","0","0","0","0","0","32","0","1","0.0416666666667","44.8020833333","8","8602","32","32","32","08/23/17 11:16:08","Default description","yes","<openexp._canvas.legacy.legacy object at 0x049627F0>","<openexp._canvas.legacy.legacy object at 0x0496E7B0>","<openexp._canvas.legacy.legacy object at 0x0495A410>","<openexp._canvas.legacy.legacy object at 0x04A509D0>","<openexp._canvas.legacy.legacy object at 0x04A214B0>","<openexp._canvas.legacy.legacy object at 0x0495E550>","<openexp._canvas.legacy.legacy object at 0x04A229F0>","75","IndividualPriorityWithDis_v1.osexp","C:/Userdata/Michel/SpatialProb/IndividualPriorityMaps/Experiment2","no","mono","no","18","no","white","no","yes","0.09","98","1050","legacy","45","7","7","1","C:/Userdata/Michel/SpatialProb/IndividualPriorityMaps/Experiment2/data/subject-17.csv","legacy","9","192","25","Jazzy James","3.1.3","yes","598477b2b83f69022949e7e9","47","red","circular","red","rectangular","0","\","947","space","9494","9494","(80, 80, 80)","(0, 122, 0)","(179, 0, 0)","(155, 155, 155)","2","legacy","experiment","[0, 1, 2, 3, 4, 5, 6, 7]","\","2500","3000","0","8","252.758751519","1024","2","48000","-16","main","[(0, -252), (178, -178), (252, 0), (178, 178), (0, 252), (-178, 178), (-252, 0), (-178, -178)]","[]","17","odd","5","194277","407077","407076","107629","106623","1793","122042","122042","1793","1793","117123","431929","1792","407077","430979","429992","429992","NA","981","study_X","0","9494","1","yes","1680"
"undefined","undefined","9494","9494","black","no","legacy","legacy","legacy","0","red","(179, 0, 0)","shape","present","highProb","circular","same","same","same","same","red","(179, 0, 0)","highProbColor","highProbColor","rectangular","uniform","1","undefined","0.046875","1","1","53.9739583333","1","9","10363","0","0","0","0","0","0","0","0","33","0","1","0.046875","53.9739583333","9","10363","33","33","33","08/23/17 11:16:08","Default description","yes","<openexp._canvas.legacy.legacy object at 0x049627F0>","<openexp._canvas.legacy.legacy object at 0x0496E7B0>","<openexp._canvas.legacy.legacy object at 0x0495A410>","<openexp._canvas.legacy.legacy object at 0x04A509D0>","<openexp._canvas.legacy.legacy object at 0x04A214B0>","<openexp._canvas.legacy.legacy object at 0x04A50AB0>","<openexp._canvas.legacy.legacy object at 0x04A229F0>","75","IndividualPriorityWithDis_v1.osexp","C:/Userdata/Michel/SpatialProb/IndividualPriorityMaps/Experiment2","no","mono","no","18","no","white","no","yes","0.09","98","1050","legacy","315","8","8","1","C:/Userdata/Michel/SpatialProb/IndividualPriorityMaps/Experiment2/data/subject-17.csv","legacy","9","192","25","Jazzy James","3.1.3","yes","598477b2b83f69022949e7e9","47","red","circular","red","rectangular","0","/","1761","space","9494","9494","(80, 80, 80)","(0, 122, 0)","(179, 0, 0)","(155, 155, 155)","2","legacy","experiment","[0, 1, 2, 3, 4, 5, 6, 7]","/","2500","3000","0","8","252.758751519","1024","2","48000","-16","main","[(0, -252), (178, -178), (252, 0), (178, 178), (0, 252), (-178, 178), (-252, 0), (-178, -178)]","[]","17","odd","0","194277","407077","407076","107629","106623","1793","122042","122042","1793","1793","117123","435089","1792","407077","433324","432337","432337","NA","981","study_X","0","9494","1","yes","1680"
"undefined","undefined","9494","9494","black","no","legacy","legacy","legacy","0","green","(0, 122, 0)","color","present","highProb","rectangular","swap","swap","same","same","red","(179, 0, 0)","lowProb","lowProb6","rectangular","uniform","1","undefined","0.0520833333333","1","1","60.5052083333","1","10","11617","0","0","0","0","0","0","0","0","34","0","1","0.0520833333333","60.5052083333","10","11617","34","34","34","08/23/17 11:16:08","Default description","yes","<openexp._canvas.legacy.legacy object at 0x049627F0>","<openexp._canvas.legacy.legacy object at 0x0496E7B0>","<openexp._canvas.legacy.legacy object at 0x0495A410>","<openexp._canvas.legacy.legacy object at 0x04A509D0>","<openexp._canvas.legacy.legacy object at 0x04A214B0>","<openexp._canvas.legacy.legacy object at 0x04A50250>","<openexp._canvas.legacy.legacy object at 0x04A229F0>","75","IndividualPriorityWithDis_v1.osexp","C:/Userdata/Michel/SpatialProb/IndividualPriorityMaps/Experiment2","no","mono","no","18","no","white","no","yes","0.09","98","1050","legacy","45","9","9","1","C:/Userdata/Michel/SpatialProb/IndividualPriorityMaps/Experiment2/data/subject-17.csv","legacy","9","192","25","Jazzy James","3.1.3","yes","598477b2b83f69022949e7e9","47","green","rectangular","red","rectangular","0","\","1254","space","9494","9494","(80, 80, 80)","(0, 122, 0)","(179, 0, 0)","(155, 155, 155)","2","legacy","experiment","[0, 1, 2, 3, 4, 5, 6, 7]","\","2500","3000","0","8","252.758751519","1024","2","48000","-16","main","[(0, -252), (178, -178), (252, 0), (178, 178), (0, 252), (-178, 178), (-252, 0), (-178, -178)]","[]","17","odd","7","194277","407077","407076","107629","106623","1793","122042","122042","1793","1793","117123","437737","1792","407077","436480","435493","435494","NA","981","study_X","0","9494","1","yes","1680"
"undefined","undefined","9494","9494","black","no","legacy","legacy","legacy","0","red","(179, 0, 0)","color","present","highProb","rectangular","swap","same","swap","same","green","(0, 122, 0)","highProbShape","highProbShape","rectangular","uniform","1","undefined","0.0572916666667","1","1","73.3125","1","11","14076","0","0","0","0","0","0","0","0","35","0","1","0.0572916666667","73.3125","11","14076","35","35","35","08/23/17 11:16:08","Default description","yes","<openexp._canvas.legacy.legacy object at 0x049627F0>","<openexp._canvas.legacy.legacy object at 0x0496E7B0>","<openexp._canvas.legacy.legacy object at 0x0495A410>","<openexp._canvas.legacy.legacy object at 0x04A509D0>","<openexp._canvas.legacy.legacy object at 0x04A214B0>","<openexp._canvas.legacy.legacy object at 0x0495A790>","<openexp._canvas.legacy.legacy object at 0x04A229F0>","75","IndividualPriorityWithDis_v1.osexp","C:/Userdata/Michel/SpatialProb/IndividualPriorityMaps/Experiment2","no","mono","no","18","no","white","no","yes","0.09","98","1050","legacy","315","10","10","1","C:/Userdata/Michel/SpatialProb/IndividualPriorityMaps/Experiment2/data/subject-17.csv","legacy","9","192","25","Jazzy James","3.1.3","yes","598477b2b83f69022949e7e9","47","red","rectangular","green","rectangular","0","/","2459","space","9494","9494","(80, 80, 80)","(0, 122, 0)","(179, 0, 0)","(155, 155, 155)","2","legacy","experiment","[0, 1, 2, 3, 4, 5, 6, 7]","/","2500","3000","0","8","252.758751519","1024","2","48000","-16","main","[(0, -252), (178, -178), (252, 0), (178, 178), (0, 252), (-178, 178), (-252, 0), (-178, -178)]","[]","17","odd","4","194277","407077","407076","107629","106623","1793","122042","122042","1793","1793","117123","441584","1792","407077","439123","438137","438137","NA","981","study_X","0","9494","1","yes","1680"
"undefined","undefined","9494","9494","black","no","legacy","legacy","legacy","0","red","(179, 0, 0)","color","present","lowProb2","circular","same","swap","same","swap","green","(0, 122, 0)","highProbColor","highProbColor","circular","uniform","0","undefined","0.0572916666667","1","1","86.3333333333","1","11","16576","0","0","0","0","0","0","0","0","36","0","1","0.0572916666667","86.3333333333","11","16576","36","36","36","08/23/17 11:16:08","Default description","yes","<openexp._canvas.legacy.legacy object at 0x049627F0>","<openexp._canvas.legacy.legacy object at 0x0496E7B0>","<openexp._canvas.legacy.legacy object at 0x0495A410>","<openexp._canvas.legacy.legacy object at 0x04A509D0>","<openexp._canvas.legacy.legacy object at 0x04A214B0>","<openexp._canvas.legacy.legacy object at 0x0495AC90>","<openexp._canvas.legacy.legacy object at 0x04A229F0>","75","IndividualPriorityWithDis_v1.osexp","C:/Userdata/Michel/SpatialProb/IndividualPriorityMaps/Experiment2","no","mono","no","18","no","white","no","yes","0.09","98","1050","legacy","45","11","11","1","C:/Userdata/Michel/SpatialProb/IndividualPriorityMaps/Experiment2/data/subject-17.csv","legacy","9","192","25","Jazzy James","3.1.3","yes","598477b2b83f69022949e7e9","47","red","circular","green","circular","0","None","2500","space","9494","9494","(80, 80, 80)","(0, 122, 0)","(179, 0, 0)","(155, 155, 155)","2","legacy","experiment","[0, 1, 2, 3, 4, 5, 6, 7]","\","2500","3000","0","8","252.758751519","1024","2","48000","-16","main","[(0, -252), (178, -178), (252, 0), (178, 178), (0, 252), (-178, 178), (-252, 0), (-178, -178)]","[]","17","odd","0","194277","407077","407076","107629","106623","1793","122042","122042","1793","1793","117123","445486","1792","407077","442983","441996","441996","NA","981","study_X","0","9494","1","yes","1680"
"undefined","undefined","9494","9494","black","no","legacy","legacy","legacy","0","red","(179, 0, 0)","color","present","lowProb4","circular","same","same","same","same","green","(0, 122, 0)","highProbColor","highProbColor","circular","uniform","1","undefined","0.0625","1","1","90.7708333333","1","12","17428","0","0","0","0","0","0","0","0","37","0","1","0.0625","90.7708333333","12","17428","37","37","37","08/23/17 11:16:08","Default description","yes","<openexp._canvas.legacy.legacy object at 0x049627F0>","<openexp._canvas.legacy.legacy object at 0x0496E7B0>","<openexp._canvas.legacy.legacy object at 0x0495A410>","<openexp._canvas.legacy.legacy object at 0x04A509D0>","<openexp._canvas.legacy.legacy object at 0x04A214B0>","<openexp._canvas.legacy.legacy object at 0x04A508B0>","<openexp._canvas.legacy.legacy object at 0x04A229F0>","75","IndividualPriorityWithDis_v1.osexp","C:/Userdata/Michel/SpatialProb/IndividualPriorityMaps/Experiment2","no","mono","no","18","no","white","no","yes","0.09","98","1050","legacy","315","12","12","1","C:/Userdata/Michel/SpatialProb/IndividualPriorityMaps/Experiment2/data/subject-17.csv","legacy","9","192","25","Jazzy James","3.1.3","yes","598477b2b83f69022949e7e9","47","red","circular","green","circular","0","/","852","space","9494","9494","(80, 80, 80)","(0, 122, 0)","(179, 0, 0)","(155, 155, 155)","2","legacy","experiment","[0, 1, 2, 3, 4, 5, 6, 7]","/","2500","3000","0","8","252.758751519","1024","2","48000","-16","main","[(0, -252), (178, -178), (252, 0), (178, 178), (0, 252), (-178, 178), (-252, 0), (-178, -178)]","[]","17","odd","0","194277","407077","407076","107629","106623","1793","122042","122042","1793","1793","117123","447737","1792","407077","446882","445895","445896","NA","981","study_X","0","9494","1","yes","1680"
"undefined","undefined","9494","9494","black","no","legacy","legacy","legacy","0","green","(0, 122, 0)","color","present","lowProb1","circular","swap","same","swap","same","red","(179, 0, 0)","lowProb","lowProb2","circular","uniform","1","undefined","0.0677083333333","1","1","95.34375","1","13","18306","0","0","0","0","0","0","0","0","38","0","1","0.0677083333333","95.34375","13","18306","38","38","38","08/23/17 11:16:08","Default description","yes","<openexp._canvas.legacy.legacy object at 0x049627F0>","<openexp._canvas.legacy.legacy object at 0x0496E7B0>","<openexp._canvas.legacy.legacy object at 0x0495A410>","<openexp._canvas.legacy.legacy object at 0x04A509D0>","<openexp._canvas.legacy.legacy object at 0x04A214B0>","<openexp._canvas.legacy.legacy object at 0x0496EE70>","<openexp._canvas.legacy.legacy object at 0x04A229F0>","75","IndividualPriorityWithDis_v1.osexp","C:/Userdata/Michel/SpatialProb/IndividualPriorityMaps/Experiment2","no","mono","no","18","no","white","no","yes","0.09","98","1050","legacy","315","13","13","1","C:/Userdata/Michel/SpatialProb/IndividualPriorityMaps/Experiment2/data/subject-17.csv","legacy","9","192","25","Jazzy James","3.1.3","yes","598477b2b83f69022949e7e9","47","green","circular","red","circular","0","/","878","space","9494","9494","(80, 80, 80)","(0, 122, 0)","(179, 0, 0)","(155, 155, 155)","2","legacy","experiment","[0, 1, 2, 3, 4, 5, 6, 7]","/","2500","3000","0","8","252.758751519","1024","2","48000","-16","main","[(0, -252), (178, -178), (252, 0), (178, 178), (0, 252), (-178, 178), (-252, 0), (-178, -178)]","[]","17","odd","2","194277","407077","407076","107629","106623","1793","122042","122042","1793","1793","117123","450017","1792","407077","449135","448149","448149","NA","981","study_X","0","9494","1","yes","1680"
"undefined","undefined","9494","9494","black","no","legacy","legacy","legacy","0","green","(0, 122, 0)","shape","present","highProb","circular","same","same","swap","swap","green","(0, 122, 0)","lowProb","lowProb1","rectangular","uniform","1","undefined","0.0729166666667","1","1","98.6770833333","1","14","18946","0","0","0","0","0","0","0","0","39","0","1","0.0729166666667","98.6770833333","14","18946","39","39","39","08/23/17 11:16:08","Default description","yes","<openexp._canvas.legacy.legacy object at 0x049627F0>","<openexp._canvas.legacy.legacy object at 0x0496E7B0>","<openexp._canvas.legacy.legacy object at 0x0495A410>","<openexp._canvas.legacy.legacy object at 0x04A509D0>","<openexp._canvas.legacy.legacy object at 0x04A214B0>","<openexp._canvas.legacy.legacy object at 0x0495EE70>","<openexp._canvas.legacy.legacy object at 0x04A229F0>","75","IndividualPriorityWithDis_v1.osexp","C:/Userdata/Michel/SpatialProb/IndividualPriorityMaps/Experiment2","no","mono","no","18","no","white","no","yes","0.09","98","1050","legacy","315","14","14","1","C:/Userdata/Michel/SpatialProb/IndividualPriorityMaps/Experiment2/data/subject-17.csv","legacy","9","192","25","Jazzy James","3.1.3","yes","598477b2b83f69022949e7e9","47","green","circular","green","rectangular","0","/","640","space","9494","9494","(80, 80, 80)","(0, 122, 0)","(179, 0, 0)","(155, 155, 155)","2","legacy","experiment","[0, 1, 2, 3, 4, 5, 6, 7]","/","2500","3000","0","8","252.758751519","1024","2","48000","-16","main","[(0, -252), (178, -178), (252, 0), (178, 178), (0, 252), (-178, 178), (-252, 0), (-178, -178)]","[]","17","odd","1","194277","407077","407076","107629","106623","1793","122042","122042","1793","1793","117123","452065","1792","407077","451422","450435","450435","NA","981","study_X","0","9494","1","yes","1680"
"undefined","undefined","9494","9494","black","no","legacy","legacy","legacy","0","green","(0, 122, 0)","shape","present","highProb","rectangular","same","swap","same","swap","green","(0, 122, 0)","lowProb","lowProb6","circular","uniform","0","undefined","0.0729166666667","1","1","111.697916667","1","14","21446","0","0","0","0","0","0","0","0","40","0","1","0.0729166666667","111.697916667","14","21446","40","40","40","08/23/17 11:16:08","Default description","yes","<openexp._canvas.legacy.legacy object at 0x049627F0>","<openexp._canvas.legacy.legacy object at 0x0496E7B0>","<openexp._canvas.legacy.legacy object at 0x0495A410>","<openexp._canvas.legacy.legacy object at 0x04A509D0>","<openexp._canvas.legacy.legacy object at 0x04A214B0>","<openexp._canvas.legacy.legacy object at 0x04972ED0>","<openexp._canvas.legacy.legacy object at 0x04A229F0>","75","IndividualPriorityWithDis_v1.osexp","C:/Userdata/Michel/SpatialProb/IndividualPriorityMaps/Experiment2","no","mono","no","18","no","white","no","yes","0.09","98","1050","legacy","315","15","15","1","C:/Userdata/Michel/SpatialProb/IndividualPriorityMaps/Experiment2/data/subject-17.csv","legacy","9","192","25","Jazzy James","3.1.3","yes","598477b2b83f69022949e7e9","47","green","rectangular","green","circular","0","None","2500","space","9494","9494","(80, 80, 80)","(0, 122, 0)","(179, 0, 0)","(155, 155, 155)","2","legacy","experiment","[0, 1, 2, 3, 4, 5, 6, 7]","/","2500","3000","0","8","252.758751519","1024","2","48000","-16","main","[(0, -252), (178, -178), (252, 0), (178, 178), (0, 252), (-178, 178), (-252, 0), (-178, -178)]","[]","17","odd","7","194277","407077","407076","107629","106623","1793","122042","122042","1793","1793","117123","455964","1792","407077","453462","452475","452475","NA","981","study_X","0","9494","1","yes","1680"
"undefined","undefined","9494","9494","black","no","legacy","legacy","legacy","0","red","(179, 0, 0)","color","absent","lowProb6","rectangular","swap","same","swap","swap","red","(179, 0, 0)","highProbColor","highProbColor","rectangular","uniform","1","undefined","0.078125","1","1","121.802083333","1","15","23386","0","0","0","0","0","0","0","0","41","0","1","0.078125","121.802083333","15","23386","41","41","41","08/23/17 11:16:08","Default description","yes","<openexp._canvas.legacy.legacy object at 0x049627F0>","<openexp._canvas.legacy.legacy object at 0x0496E7B0>","<openexp._canvas.legacy.legacy object at 0x0495A410>","<openexp._canvas.legacy.legacy object at 0x04A509D0>","<openexp._canvas.legacy.legacy object at 0x04A214B0>","<openexp._canvas.legacy.legacy object at 0x0495FA50>","<openexp._canvas.legacy.legacy object at 0x04A229F0>","75","IndividualPriorityWithDis_v1.osexp","C:/Userdata/Michel/SpatialProb/IndividualPriorityMaps/Experiment2","no","mono","no","18","no","white","no","yes","0.09","98","1050","legacy","45","16","16","1","C:/Userdata/Michel/SpatialProb/IndividualPriorityMaps/Experiment2/data/subject-17.csv","legacy","9","192","25","Jazzy James","3.1.3","yes","598477b2b83f69022949e7e9","47","red","rectangular","red","rectangular","0","\","1940","space","9494","9494","(80, 80, 80)","(0, 122, 0)","(179, 0, 0)","(155, 155, 155)","2","legacy","experiment","[0, 1, 2, 3, 4, 5, 6, 7]","\","2500","3000","0","8","252.758751519","1024","2","48000","-16","main","[(0, -252), (178, -178), (252, 0), (178, 178), (0, 252), (-178, 178), (-252, 0), (-178, -178)]","[]","17","odd","0","194277","407077","407076","107629","106623","1793","122042","122042","1793","1793","117123","459296","1792","407077","457353","456366","456367","NA","981","study_X","0","9494","1","yes","1680"
"undefined","undefined","9494","9494","black","no","legacy","legacy","legacy","0","green","(0, 122, 0)","shape","present","highProb","circular","swap","swap","swap","same","green","(0, 122, 0)","lowProb","lowProb3","rectangular","uniform","1","undefined","0.0833333333333","1","1","128.369791667","1","16","24647","0","0","0","0","0","0","0","0","42","0","1","0.0833333333333","128.369791667","16","24647","42","42","42","08/23/17 11:16:08","Default description","yes","<openexp._canvas.legacy.legacy object at 0x049627F0>","<openexp._canvas.legacy.legacy object at 0x0496E7B0>","<openexp._canvas.legacy.legacy object at 0x0495A410>","<openexp._canvas.legacy.legacy object at 0x04A509D0>","<openexp._canvas.legacy.legacy object at 0x04A214B0>","<openexp._canvas.legacy.legacy object at 0x0495AF30>","<openexp._canvas.legacy.legacy object at 0x04A229F0>","75","IndividualPriorityWithDis_v1.osexp","C:/Userdata/Michel/SpatialProb/IndividualPriorityMaps/Experiment2","no","mono","no","18","no","white","no","yes","0.09","98","1050","legacy","45","17","17","1","C:/Userdata/Michel/SpatialProb/IndividualPriorityMaps/Experiment2/data/subject-17.csv","legacy","9","192","25","Jazzy James","3.1.3","yes","598477b2b83f69022949e7e9","47","green","circular","green","rectangular","0","\","1261","space","9494","9494","(80, 80, 80)","(0, 122, 0)","(179, 0, 0)","(155, 155, 155)","2","legacy","experiment","[0, 1, 2, 3, 4, 5, 6, 7]","\","2500","3000","0","8","252.758751519","1024","2","48000","-16","main","[(0, -252), (178, -178), (252, 0), (178, 178), (0, 252), (-178, 178), (-252, 0), (-178, -178)]","[]","17","odd","3","194277","407077","407076","107629","106623","1793","122042","122042","1793","1793","117123","461952","1792","407077","460688","459701","459701","NA","981","study_X","0","9494","1","yes","1680"
"undefined","undefined","9494","9494","black","no","legacy","legacy","legacy","0","green","(0, 122, 0)","shape","present","highProb","rectangular","same","swap","same","swap","green","(0, 122, 0)","lowProb","lowProb6","circular","uniform","1","undefined","0.0885416666667","1","1","134.708333333","1","17","25864","0","0","0","0","0","0","0","0","43","0","1","0.0885416666667","134.708333333","17","25864","43","43","43","08/23/17 11:16:08","Default description","yes","<openexp._canvas.legacy.legacy object at 0x049627F0>","<openexp._canvas.legacy.legacy object at 0x0496E7B0>","<openexp._canvas.legacy.legacy object at 0x0495A410>","<openexp._canvas.legacy.legacy object at 0x04A509D0>","<openexp._canvas.legacy.legacy object at 0x04A214B0>","<openexp._canvas.legacy.legacy object at 0x0495F430>","<openexp._canvas.legacy.legacy object at 0x04A229F0>","75","IndividualPriorityWithDis_v1.osexp","C:/Userdata/Michel/SpatialProb/IndividualPriorityMaps/Experiment2","no","mono","no","18","no","white","no","yes","0.09","98","1050","legacy","45","18","18","1","C:/Userdata/Michel/SpatialProb/IndividualPriorityMaps/Experiment2/data/subject-17.csv","legacy","9","192","25","Jazzy James","3.1.3","yes","598477b2b83f69022949e7e9","47","green","rectangular","green","circular","0","\","1217","space","9494","9494","(80, 80, 80)","(0, 122, 0)","(179, 0, 0)","(155, 155, 155)","2","legacy","experiment","[0, 1, 2, 3, 4, 5, 6, 7]","\","2500","3000","0","8","252.758751519","1024","2","48000","-16","main","[(0, -252), (178, -178), (252, 0), (178, 178), (0, 252), (-178, 178), (-252, 0), (-178, -178)]","[]","17","odd","7","194277","407077","407076","107629","106623","1793","122042","122042","1793","1793","117123","464576","1792","407077","463355","462368","462368","NA","981","study_X","0","9494","1","yes","1680"
"undefined","undefined","9494","9494","black","no","legacy","legacy","legacy","0","green","(0, 122, 0)","shape","present","highProb","rectangular","same","same","same","same","green","(0, 122, 0)","lowProb","lowProb4","circular","uniform","1","undefined","0.09375","1","1","138.265625","1","18","26547","0","0","0","0","0","0","0","0","44","0","1","0.09375","138.265625","18","26547","44","44","44","08/23/17 11:16:08","Default description","yes","<openexp._canvas.legacy.legacy object at 0x049627F0>","<openexp._canvas.legacy.legacy object at 0x0496E7B0>","<openexp._canvas.legacy.legacy object at 0x0495A410>","<openexp._canvas.legacy.legacy object at 0x04A509D0>","<openexp._canvas.legacy.legacy object at 0x04A214B0>","<openexp._canvas.legacy.legacy object at 0x04972850>","<openexp._canvas.legacy.legacy object at 0x04A229F0>","75","IndividualPriorityWithDis_v1.osexp","C:/Userdata/Michel/SpatialProb/IndividualPriorityMaps/Experiment2","no","mono","no","18","no","white","no","yes","0.09","98","1050","legacy","45","19","19","1","C:/Userdata/Michel/SpatialProb/IndividualPriorityMaps/Experiment2/data/subject-17.csv","legacy","9","192","25","Jazzy James","3.1.3","yes","598477b2b83f69022949e7e9","47","green","rectangular","green","circular","0","\","683","space","9494","9494","(80, 80, 80)","(0, 122, 0)","(179, 0, 0)","(155, 155, 155)","2","legacy","experiment","[0, 1, 2, 3, 4, 5, 6, 7]","\","2500","3000","0","8","252.758751519","1024","2","48000","-16","main","[(0, -252), (178, -178), (252, 0), (178, 178), (0, 252), (-178, 178), (-252, 0), (-178, -178)]","[]","17","odd","5","194277","407077","407076","107629","106623","1793","122042","122042","1793","1793","117123","466657","1792","407077","465971","464984","464984","NA","981","study_X","0","9494","1","yes","1680"
"undefined","undefined","9494","9494","black","no","legacy","legacy","legacy","0","green","(0, 122, 0)","color","absent","lowProb5","rectangular","same","same","same","swap","green","(0, 122, 0)","lowProb","lowProb3","rectangular","uniform","0","undefined","0.09375","1","1","151.286458333","1","18","29047","0","0","0","0","0","0","0","0","45","0","1","0.09375","151.286458333","18","29047","45","45","45","08/23/17 11:16:08","Default description","yes","<openexp._canvas.legacy.legacy object at 0x049627F0>","<openexp._canvas.legacy.legacy object at 0x0496E7B0>","<openexp._canvas.legacy.legacy object at 0x0495A410>","<openexp._canvas.legacy.legacy object at 0x04A509D0>","<openexp._canvas.legacy.legacy object at 0x04A214B0>","<openexp._canvas.legacy.legacy object at 0x04A50B10>","<openexp._canvas.legacy.legacy object at 0x04A229F0>","75","IndividualPriorityWithDis_v1.osexp","C:/Userdata/Michel/SpatialProb/IndividualPriorityMaps/Experiment2","no","mono","no","18","no","white","no","yes","0.09","98","1050","legacy","45","20","20","1","C:/Userdata/Michel/SpatialProb/IndividualPriorityMaps/Experiment2/data/subject-17.csv","legacy","9","192","25","Jazzy James","3.1.3","yes","598477b2b83f69022949e7e9","47","green","rectangular","green","rectangular","0","None","2500","space","9494","9494","(80, 80, 80)","(0, 122, 0)","(179, 0, 0)","(155, 155, 155)","2","legacy","experiment","[0, 1, 2, 3, 4, 5, 6, 7]","\","2500","3000","0","8","252.758751519","1024","2","48000","-16","main","[(0, -252), (178, -178), (252, 0), (178, 178), (0, 252), (-178, 178), (-252, 0), (-178, -178)]","[]","17","odd","3","194277","407077","407076","107629","106623","1793","122042","122042","1793","1793","117123","470544","1792","407077","468042","467055","467055","NA","981","study_X","0","9494","1","yes","1680"
"undefined","undefined","9494","9494","black","no","legacy","legacy","legacy","0","red","(179, 0, 0)","shape","absent","lowProb5","rectangular","swap","same","swap","same","red","(179, 0, 0)","lowProb","lowProb2","rectangular","uniform","0","undefined","0.09375","1","1","164.307291667","1","18","31547","0","0","0","0","0","0","0","0","46","0","1","0.09375","164.307291667","18","31547","46","46","46","08/23/17 11:16:08","Default description","yes","<openexp._canvas.legacy.legacy object at 0x049627F0>","<openexp._canvas.legacy.legacy object at 0x0496E7B0>","<openexp._canvas.legacy.legacy object at 0x0495A410>","<openexp._canvas.legacy.legacy object at 0x04A509D0>","<openexp._canvas.legacy.legacy object at 0x04A214B0>","<openexp._canvas.legacy.legacy object at 0x0495E490>","<openexp._canvas.legacy.legacy object at 0x04A229F0>","75","IndividualPriorityWithDis_v1.osexp","C:/Userdata/Michel/SpatialProb/IndividualPriorityMaps/Experiment2","no","mono","no","18","no","white","no","yes","0.09","98","1050","legacy","45","21","21","1","C:/Userdata/Michel/SpatialProb/IndividualPriorityMaps/Experiment2/data/subject-17.csv","legacy","9","192","25","Jazzy James","3.1.3","yes","598477b2b83f69022949e7e9","47","red","rectangular","red","rectangular","0","None","2500","space","9494","9494","(80, 80, 80)","(0, 122, 0)","(179, 0, 0)","(155, 155, 155)","2","legacy","experiment","[0, 1, 2, 3, 4, 5, 6, 7]","\","2500","3000","0","8","252.758751519","1024","2","48000","-16","main","[(0, -252), (178, -178), (252, 0), (178, 178), (0, 252), (-178, 178), (-252, 0), (-178, -178)]","[]","17","odd","2","194277","407077","407076","107629","106623","1793","122042","122042","1793","1793","117123","474434","1792","407077","471931","470944","470944","NA","981","study_X","0","9494","1","yes","1680"
"undefined","undefined","9494","9494","black","no","legacy","legacy","legacy","0","red","(179, 0, 0)","shape","absent","lowProb4","circular","same","swap","same","swap","red","(179, 0, 0)","highProbShape","highProbShape","circular","uniform","1","undefined","0.0989583333333","1","1","167.375","1","19","32136","0","0","0","0","0","0","0","0","47","0","1","0.0989583333333","167.375","19","32136","47","47","47","08/23/17 11:16:08","Default description","yes","<openexp._canvas.legacy.legacy object at 0x049627F0>","<openexp._canvas.legacy.legacy object at 0x0496E7B0>","<openexp._canvas.legacy.legacy object at 0x0495A410>","<openexp._canvas.legacy.legacy object at 0x04A509D0>","<openexp._canvas.legacy.legacy object at 0x04A214B0>","<openexp._canvas.legacy.legacy object at 0x04A51310>","<openexp._canvas.legacy.legacy object at 0x04A229F0>","75","IndividualPriorityWithDis_v1.osexp","C:/Userdata/Michel/SpatialProb/IndividualPriorityMaps/Experiment2","no","mono","no","18","no","white","no","yes","0.09","98","1050","legacy","45","22","22","1","C:/Userdata/Michel/SpatialProb/IndividualPriorityMaps/Experiment2/data/subject-17.csv","legacy","9","192","25","Jazzy James","3.1.3","yes","598477b2b83f69022949e7e9","47","red","circular","red","circular","0","\","589","space","9494","9494","(80, 80, 80)","(0, 122, 0)","(179, 0, 0)","(155, 155, 155)","2","legacy","experiment","[0, 1, 2, 3, 4, 5, 6, 7]","\","2500","3000","0","8","252.758751519","1024","2","48000","-16","main","[(0, -252), (178, -178), (252, 0), (178, 178), (0, 252), (-178, 178), (-252, 0), (-178, -178)]","[]","17","odd","4","194277","407077","407076","107629","106623","1793","122042","122042","1793","1793","117123","476424","1792","407077","475832","474845","474845","NA","981","study_X","0","9494","1","yes","1680"
"undefined","undefined","9494","9494","black","no","legacy","legacy","legacy","0","green","(0, 122, 0)","color","present","highProb","circular","swap","same","same","same","red","(179, 0, 0)","lowProb","lowProb3","circular","uniform","1","undefined","0.104166666667","1","1","170.395833333","1","20","32716","0","0","0","0","0","0","0","0","48","0","1","0.104166666667","170.395833333","20","32716","48","48","48","08/23/17 11:16:08","Default description","yes","<openexp._canvas.legacy.legacy object at 0x049627F0>","<openexp._canvas.legacy.legacy object at 0x0496E7B0>","<openexp._canvas.legacy.legacy object at 0x0495A410>","<openexp._canvas.legacy.legacy object at 0x04A509D0>","<openexp._canvas.legacy.legacy object at 0x04A214B0>","<openexp._canvas.legacy.legacy object at 0x0496E770>","<openexp._canvas.legacy.legacy object at 0x04A229F0>","75","IndividualPriorityWithDis_v1.osexp","C:/Userdata/Michel/SpatialProb/IndividualPriorityMaps/Experiment2","no","mono","no","18","no","white","no","yes","0.09","98","1050","legacy","315","23","23","1","C:/Userdata/Michel/SpatialProb/IndividualPriorityMaps/Experiment2/data/subject-17.csv","legacy","9","192","25","Jazzy James","3.1.3","yes","598477b2b83f69022949e7e9","47","green","circular","red","circular","0","/","580","space","9494","9494","(80, 80, 80)","(0, 122, 0)","(179, 0, 0)","(155, 155, 155)","2","legacy","experiment","[0, 1, 2, 3, 4, 5, 6, 7]","/","2500","3000","0","8","252.758751519","1024","2","48000","-16","main","[(0, -252), (178, -178), (252, 0), (178, 178), (0, 252), (-178, 178), (-252, 0), (-178, -178)]","[]","17","odd","3","194277","407077","407076","107629","106623","1793","122042","122042","1793","1793","117123","478408","1792","407077","477825","476838","476838","NA","981","study_X","0","9494","1","yes","1680"
"undefined","undefined","9494","9494","black","no","legacy","legacy","legacy","0","red","(179, 0, 0)","shape","present","lowProb3","circular","swap","same","same","swap","red","(179, 0, 0)","lowProb","lowProb6","rectangular","uniform","1","undefined","0.109375","1","1","173.65625","1","21","33342","0","0","0","0","0","0","0","0","49","0","1","0.109375","173.65625","21","33342","49","49","49","08/23/17 11:16:08","Default description","yes","<openexp._canvas.legacy.legacy object at 0x049627F0>","<openexp._canvas.legacy.legacy object at 0x0496E7B0>","<openexp._canvas.legacy.legacy object at 0x0495A410>","<openexp._canvas.legacy.legacy object at 0x04A509D0>","<openexp._canvas.legacy.legacy object at 0x04A214B0>","<openexp._canvas.legacy.legacy object at 0x0495A830>","<openexp._canvas.legacy.legacy object at 0x04A229F0>","75","IndividualPriorityWithDis_v1.osexp","C:/Userdata/Michel/SpatialProb/IndividualPriorityMaps/Experiment2","no","mono","no","18","no","white","no","yes","0.09","98","1050","legacy","45","24","24","1","C:/Userdata/Michel/SpatialProb/IndividualPriorityMaps/Experiment2/data/subject-17.csv","legacy","9","192","25","Jazzy James","3.1.3","yes","598477b2b83f69022949e7e9","47","red","circular","red","rectangular","0","\","626","space","9494","9494","(80, 80, 80)","(0, 122, 0)","(179, 0, 0)","(155, 155, 155)","2","legacy","experiment","[0, 1, 2, 3, 4, 5, 6, 7]","\","2500","3000","0","8","252.758751519","1024","2","48000","-16","main","[(0, -252), (178, -178), (252, 0), (178, 178), (0, 252), (-178, 178), (-252, 0), (-178, -178)]","[]","17","odd","7","194277","407077","407076","107629","106623","1793","122042","122042","1793","1793","117123","480432","1792","407077","479802","478815","478815","NA","981","study_X","0","9494","1","yes","1680"
"undefined","undefined","9494","9494","black","no","legacy","legacy","legacy","0","red","(179, 0, 0)","shape","present","highProb","circular","same","same","same","same","red","(179, 0, 0)","lowProb","lowProb6","rectangular","uniform","1","undefined","0.114583333333","1","1","179.109375","1","22","34389","0","0","0","0","0","0","0","0","50","0","1","0.114583333333","179.109375","22","34389","50","50","50","08/23/17 11:16:08","Default description","yes","<openexp._canvas.legacy.legacy object at 0x049627F0>","<openexp._canvas.legacy.legacy object at 0x0496E7B0>","<openexp._canvas.legacy.legacy object at 0x0495A410>","<openexp._canvas.legacy.legacy object at 0x04A509D0>","<openexp._canvas.legacy.legacy object at 0x04A214B0>","<openexp._canvas.legacy.legacy object at 0x049620B0>","<openexp._canvas.legacy.legacy object at 0x04A229F0>","75","IndividualPriorityWithDis_v1.osexp","C:/Userdata/Michel/SpatialProb/IndividualPriorityMaps/Experiment2","no","mono","no","18","no","white","no","yes","0.09","98","1050","legacy","315","25","25","1","C:/Userdata/Michel/SpatialProb/IndividualPriorityMaps/Experiment2/data/subject-17.csv","legacy","9","192","25","Jazzy James","3.1.3","yes","598477b2b83f69022949e7e9","47","red","circular","red","rectangular","0","/","1047","space","9494","9494","(80, 80, 80)","(0, 122, 0)","(179, 0, 0)","(155, 155, 155)","2","legacy","experiment","[0, 1, 2, 3, 4, 5, 6, 7]","/","2500","3000","0","8","252.758751519","1024","2","48000","-16","main","[(0, -252), (178, -178), (252, 0), (178, 178), (0, 252), (-178, 178), (-252, 0), (-178, -178)]","[]","17","odd","7","194277","407077","407076","107629","106623","1793","122042","122042","1793","1793","117123","482873","1792","407077","481822","480835","480836","NA","981","study_X","0","9494","1","yes","1680"
"undefined","undefined","9494","9494","black","no","legacy","legacy","legacy","0","red","(179, 0, 0)","shape","absent","highProbOther","rectangular","same","swap","same","same","red","(179, 0, 0)","lowProb","lowProb5","rectangular","uniform","1","undefined","0.119791666667","1","1","184.046875","1","23","35337","0","0","0","0","0","0","0","0","51","0","1","0.119791666667","184.046875","23","35337","51","51","51","08/23/17 11:16:08","Default description","yes","<openexp._canvas.legacy.legacy object at 0x049627F0>","<openexp._canvas.legacy.legacy object at 0x0496E7B0>","<openexp._canvas.legacy.legacy object at 0x0495A410>","<openexp._canvas.legacy.legacy object at 0x04A509D0>","<openexp._canvas.legacy.legacy object at 0x04A214B0>","<openexp._canvas.legacy.legacy object at 0x0495E310>","<openexp._canvas.legacy.legacy object at 0x04A229F0>","75","IndividualPriorityWithDis_v1.osexp","C:/Userdata/Michel/SpatialProb/IndividualPriorityMaps/Experiment2","no","mono","no","18","no","white","no","yes","0.09","98","1050","legacy","315","26","26","1","C:/Userdata/Michel/SpatialProb/IndividualPriorityMaps/Experiment2/data/subject-17.csv","legacy","9","192","25","Jazzy James","3.1.3","yes","598477b2b83f69022949e7e9","47","red","rectangular","red","rectangular","0","/","948","space","9494","9494","(80, 80, 80)","(0, 122, 0)","(179, 0, 0)","(155, 155, 155)","2","legacy","experiment","[0, 1, 2, 3, 4, 5, 6, 7]","/","2500","3000","0","8","252.758751519","1024","2","48000","-16","main","[(0, -252), (178, -178), (252, 0), (178, 178), (0, 252), (-178, 178), (-252, 0), (-178, -178)]","[]","17","odd","6","194277","407077","407076","107629","106623","1793","122042","122042","1793","1793","117123","485217","1792","407077","484265","483278","483278","NA","981","study_X","0","9494","1","yes","1680"
"undefined","undefined","9494","9494","black","no","legacy","legacy","legacy","0","red","(179, 0, 0)","color","present","highProb","circular","same","swap","swap","swap","green","(0, 122, 0)","lowProb","lowProb4","circular","uniform","1","undefined","0.125","1","1","186.828125","1","24","35871","0","0","0","0","0","0","0","0","52","0","1","0.125","186.828125","24","35871","52","52","52","08/23/17 11:16:08","Default description","yes","<openexp._canvas.legacy.legacy object at 0x049627F0>","<openexp._canvas.legacy.legacy object at 0x0496E7B0>","<openexp._canvas.legacy.legacy object at 0x0495A410>","<openexp._canvas.legacy.legacy object at 0x04A509D0>","<openexp._canvas.legacy.legacy object at 0x04A214B0>","<openexp._canvas.legacy.legacy object at 0x04A50050>","<openexp._canvas.legacy.legacy object at 0x04A229F0>","75","IndividualPriorityWithDis_v1.osexp","C:/Userdata/Michel/SpatialProb/IndividualPriorityMaps/Experiment2","no","mono","no","18","no","white","no","yes","0.09","98","1050","legacy","45","27","27","1","C:/Userdata/Michel/SpatialProb/IndividualPriorityMaps/Experiment2/data/subject-17.csv","legacy","9","192","25","Jazzy James","3.1.3","yes","598477b2b83f69022949e7e9","47","red","circular","green","circular","0","\","534","space","9494","9494","(80, 80, 80)","(0, 122, 0)","(179, 0, 0)","(155, 155, 155)","2","legacy","experiment","[0, 1, 2, 3, 4, 5, 6, 7]","\","2500","3000","0","8","252.758751519","1024","2","48000","-16","main","[(0, -252), (178, -178), (252, 0), (178, 178), (0, 252), (-178, 178), (-252, 0), (-178, -178)]","[]","17","odd","5","194277","407077","407076","107629","106623","1793","122042","122042","1793","1793","117123","487160","1792","407077","486623","485636","485636","NA","981","study_X","0","9494","1","yes","1680"
"undefined","undefined","9494","9494","black","no","legacy","legacy","legacy","0","green","(0, 122, 0)","shape","present","highProb","circular","swap","same","same","swap","green","(0, 122, 0)","lowProb","lowProb2","rectangular","uniform","1","undefined","0.130208333333","1","1","194.822916667","1","25","37406","0","0","0","0","0","0","0","0","53","0","1","0.130208333333","194.822916667","25","37406","53","53","53","08/23/17 11:16:08","Default description","yes","<openexp._canvas.legacy.legacy object at 0x049627F0>","<openexp._canvas.legacy.legacy object at 0x0496E7B0>","<openexp._canvas.legacy.legacy object at 0x0495A410>","<openexp._canvas.legacy.legacy object at 0x04A509D0>","<openexp._canvas.legacy.legacy object at 0x04A214B0>","<openexp._canvas.legacy.legacy object at 0x049648B0>","<openexp._canvas.legacy.legacy object at 0x04A229F0>","75","IndividualPriorityWithDis_v1.osexp","C:/Userdata/Michel/SpatialProb/IndividualPriorityMaps/Experiment2","no","mono","no","18","no","white","no","yes","0.09","98","1050","legacy","45","28","28","1","C:/Userdata/Michel/SpatialProb/IndividualPriorityMaps/Experiment2/data/subject-17.csv","legacy","9","192","25","Jazzy James","3.1.3","yes","598477b2b83f69022949e7e9","47","green","circular","green","rectangular","0","\","1535","space","9494","9494","(80, 80, 80)","(0, 122, 0)","(179, 0, 0)","(155, 155, 155)","2","legacy","experiment","[0, 1, 2, 3, 4, 5, 6, 7]","\","2500","3000","0","8","252.758751519","1024","2","48000","-16","main","[(0, -252), (178, -178), (252, 0), (178, 178), (0, 252), (-178, 178), (-252, 0), (-178, -178)]","[]","17","odd","2","194277","407077","407076","107629","106623","1793","122042","122042","1793","1793","117123","490088","1792","407077","488550","487563","487563","NA","981","study_X","0","9494","1","yes","1680"
"undefined","undefined","9494","9494","black","no","legacy","legacy","legacy","0","green","(0, 122, 0)","shape","present","lowProb5","circular","same","same","same","same","green","(0, 122, 0)","lowProb","lowProb6","rectangular","uniform","1","undefined","0.135416666667","1","1","198.984375","1","26","38205","0","0","0","0","0","0","0","0","54","0","1","0.135416666667","198.984375","26","38205","54","54","54","08/23/17 11:16:08","Default description","yes","<openexp._canvas.legacy.legacy object at 0x049627F0>","<openexp._canvas.legacy.legacy object at 0x0496E7B0>","<openexp._canvas.legacy.legacy object at 0x0495A410>","<openexp._canvas.legacy.legacy object at 0x04A509D0>","<openexp._canvas.legacy.legacy object at 0x04A214B0>","<openexp._canvas.legacy.legacy object at 0x0495F070>","<openexp._canvas.legacy.legacy object at 0x04A229F0>","75","IndividualPriorityWithDis_v1.osexp","C:/Userdata/Michel/SpatialProb/IndividualPriorityMaps/Experiment2","no","mono","no","18","no","white","no","yes","0.09","98","1050","legacy","315","29","29","1","C:/Userdata/Michel/SpatialProb/IndividualPriorityMaps/Experiment2/data/subject-17.csv","legacy","9","192","25","Jazzy James","3.1.3","yes","598477b2b83f69022949e7e9","47","green","circular","green","rectangular","0","/","799","space","9494","9494","(80, 80, 80)","(0, 122, 0)","(179, 0, 0)","(155, 155, 155)","2","legacy","experiment","[0, 1, 2, 3, 4, 5, 6, 7]","/","2500","3000","0","8","252.758751519","1024","2","48000","-16","main","[(0, -252), (178, -178), (252, 0), (178, 178), (0, 252), (-178, 178), (-252, 0), (-178, -178)]","[]","17","odd","7","194277","407077","407076","107629","106623","1793","122042","122042","1793","1793","117123","492280","1792","407077","491478","490491","490491","NA","981","study_X","0","9494","1","yes","1680"
"undefined","undefined","9494","9494","black","no","legacy","legacy","legacy","0","green","(0, 122, 0)","color","present","highProb","rectangular","same","swap","swap","same","red","(179, 0, 0)","lowProb","lowProb4","rectangular","uniform","1","undefined","0.140625","1","1","204.859375","1","27","39333","0","0","0","0","0","0","0","0","55","0","1","0.140625","204.859375","27","39333","55","55","55","08/23/17 11:16:08","Default description","yes","<openexp._canvas.legacy.legacy object at 0x049627F0>","<openexp._canvas.legacy.legacy object at 0x0496E7B0>","<openexp._canvas.legacy.legacy object at 0x0495A410>","<openexp._canvas.legacy.legacy object at 0x04A509D0>","<openexp._canvas.legacy.legacy object at 0x04A214B0>","<openexp._canvas.legacy.legacy object at 0x04964A90>","<openexp._canvas.legacy.legacy object at 0x04A229F0>","75","IndividualPriorityWithDis_v1.osexp","C:/Userdata/Michel/SpatialProb/IndividualPriorityMaps/Experiment2","no","mono","no","18","no","white","no","yes","0.09","98","1050","legacy","315","30","30","1","C:/Userdata/Michel/SpatialProb/IndividualPriorityMaps/Experiment2/data/subject-17.csv","legacy","9","192","25","Jazzy James","3.1.3","yes","598477b2b83f69022949e7e9","47","green","rectangular","red","rectangular","0","/","1128","space","9494","9494","(80, 80, 80)","(0, 122, 0)","(179, 0, 0)","(155, 155, 155)","2","legacy","experiment","[0, 1, 2, 3, 4, 5, 6, 7]","/","2500","3000","0","8","252.758751519","1024","2","48000","-16","main","[(0, -252), (178, -178), (252, 0), (178, 178), (0, 252), (-178, 178), (-252, 0), (-178, -178)]","[]","17","odd","5","194277","407077","407076","107629","106623","1793","122042","122042","1793","1793","117123","494792","1792","407077","493662","492675","492675","NA","981","study_X","0","9494","1","yes","1680"
"undefined","undefined","9494","9494","black","no","legacy","legacy","legacy","0","green","(0, 122, 0)","shape","present","highProb","circular","same","swap","swap","same","green","(0, 122, 0)","lowProb","lowProb6","rectangular","uniform","1","undefined","0.145833333333","1","1","211.661458333","1","28","40639","0","0","0","0","0","0","0","0","56","0","1","0.145833333333","211.661458333","28","40639","56","56","56","08/23/17 11:16:08","Default description","yes","<openexp._canvas.legacy.legacy object at 0x049627F0>","<openexp._canvas.legacy.legacy object at 0x0496E7B0>","<openexp._canvas.legacy.legacy object at 0x0495A410>","<openexp._canvas.legacy.legacy object at 0x04A509D0>","<openexp._canvas.legacy.legacy object at 0x04A214B0>","<openexp._canvas.legacy.legacy object at 0x04A51810>","<openexp._canvas.legacy.legacy object at 0x04A229F0>","75","IndividualPriorityWithDis_v1.osexp","C:/Userdata/Michel/SpatialProb/IndividualPriorityMaps/Experiment2","no","mono","no","18","no","white","no","yes","0.09","98","1050","legacy","45","31","31","1","C:/Userdata/Michel/SpatialProb/IndividualPriorityMaps/Experiment2/data/subject-17.csv","legacy","9","192","25","Jazzy James","3.1.3","yes","598477b2b83f69022949e7e9","47","green","circular","green","rectangular","0","\","1306","space","9494","9494","(80, 80, 80)","(0, 122, 0)","(179, 0, 0)","(155, 155, 155)","2","legacy","experiment","[0, 1, 2, 3, 4, 5, 6, 7]","\","2500","3000","0","8","252.758751519","1024","2","48000","-16","main","[(0, -252), (178, -178), (252, 0), (178, 178), (0, 252), (-178, 178), (-252, 0), (-178, -178)]","[]","17","odd","7","194277","407077","407076","107629","106623","1793","122042","122042","1793","1793","117123","497520","1792","407077","496211","495224","495224","NA","981","study_X","0","9494","1","yes","1680"
"undefined","undefined","9494","9494","black","no","legacy","legacy","legacy","0","red","(179, 0, 0)","shape","present","lowProb6","rectangular","swap","swap","swap","swap","red","(179, 0, 0)","lowProb","lowProb3","circular","uniform","1","undefined","0.151041666667","1","1","216.213541667","1","29","41513","0","0","0","0","0","0","0","0","57","0","1","0.151041666667","216.213541667","29","41513","57","57","57","08/23/17 11:16:08","Default description","yes","<openexp._canvas.legacy.legacy object at 0x049627F0>","<openexp._canvas.legacy.legacy object at 0x0496E7B0>","<openexp._canvas.legacy.legacy object at 0x0495A410>","<openexp._canvas.legacy.legacy object at 0x04A509D0>","<openexp._canvas.legacy.legacy object at 0x04A214B0>","<openexp._canvas.legacy.legacy object at 0x049729B0>","<openexp._canvas.legacy.legacy object at 0x04A229F0>","75","IndividualPriorityWithDis_v1.osexp","C:/Userdata/Michel/SpatialProb/IndividualPriorityMaps/Experiment2","no","mono","no","18","no","white","no","yes","0.09","98","1050","legacy","315","32","32","1","C:/Userdata/Michel/SpatialProb/IndividualPriorityMaps/Experiment2/data/subject-17.csv","legacy","9","192","25","Jazzy James","3.1.3","yes","598477b2b83f69022949e7e9","47","red","rectangular","red","circular","0","/","874","space","9494","9494","(80, 80, 80)","(0, 122, 0)","(179, 0, 0)","(155, 155, 155)","2","legacy","experiment","[0, 1, 2, 3, 4, 5, 6, 7]","/","2500","3000","0","8","252.758751519","1024","2","48000","-16","main","[(0, -252), (178, -178), (252, 0), (178, 178), (0, 252), (-178, 178), (-252, 0), (-178, -178)]","[]","17","odd","3","194277","407077","407076","107629","106623","1793","122042","122042","1793","1793","117123","499792","1792","407077","498914","497927","497927","NA","981","study_X","0","9494","1","yes","1680"
"undefined","undefined","9494","9494","black","no","legacy","legacy","legacy","0","green","(0, 122, 0)","color","present","highProb","rectangular","swap","same","same","swap","red","(179, 0, 0)","lowProb","lowProb4","rectangular","uniform","1","undefined","0.15625","1","1","221.291666667","1","30","42488","0","0","0","0","0","0","0","0","58","0","1","0.15625","221.291666667","30","42488","58","58","58","08/23/17 11:16:08","Default description","yes","<openexp._canvas.legacy.legacy object at 0x049627F0>","<openexp._canvas.legacy.legacy object at 0x0496E7B0>","<openexp._canvas.legacy.legacy object at 0x0495A410>","<openexp._canvas.legacy.legacy object at 0x04A509D0>","<openexp._canvas.legacy.legacy object at 0x04A214B0>","<openexp._canvas.legacy.legacy object at 0x0496ED70>","<openexp._canvas.legacy.legacy object at 0x04A229F0>","75","IndividualPriorityWithDis_v1.osexp","C:/Userdata/Michel/SpatialProb/IndividualPriorityMaps/Experiment2","no","mono","no","18","no","white","no","yes","0.09","98","1050","legacy","315","33","33","1","C:/Userdata/Michel/SpatialProb/IndividualPriorityMaps/Experiment2/data/subject-17.csv","legacy","9","192","25","Jazzy James","3.1.3","yes","598477b2b83f69022949e7e9","47","green","rectangular","red","rectangular","0","/","975","space","9494","9494","(80, 80, 80)","(0, 122, 0)","(179, 0, 0)","(155, 155, 155)","2","legacy","experiment","[0, 1, 2, 3, 4, 5, 6, 7]","/","2500","3000","0","8","252.758751519","1024","2","48000","-16","main","[(0, -252), (178, -178), (252, 0), (178, 178), (0, 252), (-178, 178), (-252, 0), (-178, -178)]","[]","17","odd","5","194277","407077","407076","107629","106623","1793","122042","122042","1793","1793","117123","502168","1792","407077","501191","500205","500205","NA","981","study_X","0","9494","1","yes","1680"
"undefined","undefined","9494","9494","black","no","legacy","legacy","legacy","0","green","(0, 122, 0)","shape","absent","lowProb3","circular","same","swap","swap","swap","green","(0, 122, 0)","lowProb","lowProb4","circular","uniform","1","undefined","0.161458333333","1","1","224.526041667","1","31","43109","0","0","0","0","0","0","0","0","59","0","1","0.161458333333","224.526041667","31","43109","59","59","59","08/23/17 11:16:08","Default description","yes","<openexp._canvas.legacy.legacy object at 0x049627F0>","<openexp._canvas.legacy.legacy object at 0x0496E7B0>","<openexp._canvas.legacy.legacy object at 0x0495A410>","<openexp._canvas.legacy.legacy object at 0x04A509D0>","<openexp._canvas.legacy.legacy object at 0x04A214B0>","<openexp._canvas.legacy.legacy object at 0x0495FF30>","<openexp._canvas.legacy.legacy object at 0x04A229F0>","75","IndividualPriorityWithDis_v1.osexp","C:/Userdata/Michel/SpatialProb/IndividualPriorityMaps/Experiment2","no","mono","no","18","no","white","no","yes","0.09","98","1050","legacy","315","34","34","1","C:/Userdata/Michel/SpatialProb/IndividualPriorityMaps/Experiment2/data/subject-17.csv","legacy","9","192","25","Jazzy James","3.1.3","yes","598477b2b83f69022949e7e9","47","green","circular","green","circular","0","/","621","space","9494","9494","(80, 80, 80)","(0, 122, 0)","(179, 0, 0)","(155, 155, 155)","2","legacy","experiment","[0, 1, 2, 3, 4, 5, 6, 7]","/","2500","3000","0","8","252.758751519","1024","2","48000","-16","main","[(0, -252), (178, -178), (252, 0), (178, 178), (0, 252), (-178, 178), (-252, 0), (-178, -178)]","[]","17","odd","5","194277","407077","407076","107629","106623","1793","122042","122042","1793","1793","117123","504200","1792","407077","503576","502589","502589","NA","981","study_X","0","9494","1","yes","1680"
"undefined","undefined","9494","9494","black","no","legacy","legacy","legacy","0","green","(0, 122, 0)","color","present","highProbOther","rectangular","same","swap","swap","swap","red","(179, 0, 0)","lowProb","lowProb5","rectangular","uniform","1","undefined","0.166666666667","1","1","234.161458333","1","32","44959","0","0","0","0","0","0","0","0","60","0","1","0.166666666667","234.161458333","32","44959","60","60","60","08/23/17 11:16:08","Default description","yes","<openexp._canvas.legacy.legacy object at 0x049627F0>","<openexp._canvas.legacy.legacy object at 0x0496E7B0>","<openexp._canvas.legacy.legacy object at 0x0495A410>","<openexp._canvas.legacy.legacy object at 0x04A509D0>","<openexp._canvas.legacy.legacy object at 0x04A214B0>","<openexp._canvas.legacy.legacy object at 0x04A509B0>","<openexp._canvas.legacy.legacy object at 0x04A229F0>","75","IndividualPriorityWithDis_v1.osexp","C:/Userdata/Michel/SpatialProb/IndividualPriorityMaps/Experiment2","no","mono","no","18","no","white","no","yes","0.09","98","1050","legacy","45","35","35","1","C:/Userdata/Michel/SpatialProb/IndividualPriorityMaps/Experiment2/data/subject-17.csv","legacy","9","192","25","Jazzy James","3.1.3","yes","598477b2b83f69022949e7e9","47","green","rectangular","red","rectangular","0","\","1850","space","9494","9494","(80, 80, 80)","(0, 122, 0)","(179, 0, 0)","(155, 155, 155)","2","legacy","experiment","[0, 1, 2, 3, 4, 5, 6, 7]","\","2500","3000","0","8","252.758751519","1024","2","48000","-16","main","[(0, -252), (178, -178), (252, 0), (178, 178), (0, 252), (-178, 178), (-252, 0), (-178, -178)]","[]","17","odd","6","194277","407077","407076","107629","106623","1793","122042","122042","1793","1793","117123","507448","1792","407077","505595","504608","504608","NA","981","study_X","0","9494","1","yes","1680"
"undefined","undefined","9494","9494","black","no","legacy","legacy","legacy","0","red","(179, 0, 0)","color","present","highProb","rectangular","swap","same","swap","same","green","(0, 122, 0)","lowProb","lowProb4","rectangular","uniform","1","undefined","0.171875","1","1","240.328125","1","33","46143","0","0","0","0","0","0","0","0","61","0","1","0.171875","240.328125","33","46143","61","61","61","08/23/17 11:16:08","Default description","yes","<openexp._canvas.legacy.legacy object at 0x049627F0>","<openexp._canvas.legacy.legacy object at 0x0496E7B0>","<openexp._canvas.legacy.legacy object at 0x0495A410>","<openexp._canvas.legacy.legacy object at 0x04A509D0>","<openexp._canvas.legacy.legacy object at 0x04A214B0>","<openexp._canvas.legacy.legacy object at 0x04969D50>","<openexp._canvas.legacy.legacy object at 0x04A229F0>","75","IndividualPriorityWithDis_v1.osexp","C:/Userdata/Michel/SpatialProb/IndividualPriorityMaps/Experiment2","no","mono","no","18","no","white","no","yes","0.09","98","1050","legacy","45","36","36","1","C:/Userdata/Michel/SpatialProb/IndividualPriorityMaps/Experiment2/data/subject-17.csv","legacy","9","192","25","Jazzy James","3.1.3","yes","598477b2b83f69022949e7e9","47","red","rectangular","green","rectangular","0","\","1184","space","9494","9494","(80, 80, 80)","(0, 122, 0)","(179, 0, 0)","(155, 155, 155)","2","legacy","experiment","[0, 1, 2, 3, 4, 5, 6, 7]","\","2500","3000","0","8","252.758751519","1024","2","48000","-16","main","[(0, -252), (178, -178), (252, 0), (178, 178), (0, 252), (-178, 178), (-252, 0), (-178, -178)]","[]","17","odd","5","194277","407077","407076","107629","106623","1793","122042","122042","1793","1793","117123","510024","1792","407077","508838","507851","507851","NA","981","study_X","0","9494","1","yes","1680"
"undefined","undefined","9494","9494","black","no","legacy","legacy","legacy","0","red","(179, 0, 0)","color","present","lowProb3","circular","same","swap","same","swap","green","(0, 122, 0)","lowProb","lowProb5","circular","uniform","1","undefined","0.177083333333","1","1","242.854166667","1","34","46628","0","0","0","0","0","0","0","0","62","0","1","0.177083333333","242.854166667","34","46628","62","62","62","08/23/17 11:16:08","Default description","yes","<openexp._canvas.legacy.legacy object at 0x049627F0>","<openexp._canvas.legacy.legacy object at 0x0496E7B0>","<openexp._canvas.legacy.legacy object at 0x0495A410>","<openexp._canvas.legacy.legacy object at 0x04A509D0>","<openexp._canvas.legacy.legacy object at 0x04A214B0>","<openexp._canvas.legacy.legacy object at 0x04A50030>","<openexp._canvas.legacy.legacy object at 0x04A229F0>","75","IndividualPriorityWithDis_v1.osexp","C:/Userdata/Michel/SpatialProb/IndividualPriorityMaps/Experiment2","no","mono","no","18","no","white","no","yes","0.09","98","1050","legacy","45","37","37","1","C:/Userdata/Michel/SpatialProb/IndividualPriorityMaps/Experiment2/data/subject-17.csv","legacy","9","192","25","Jazzy James","3.1.3","yes","598477b2b83f69022949e7e9","47","red","circular","green","circular","0","\","485","space","9494","9494","(80, 80, 80)","(0, 122, 0)","(179, 0, 0)","(155, 155, 155)","2","legacy","experiment","[0, 1, 2, 3, 4, 5, 6, 7]","\","2500","3000","0","8","252.758751519","1024","2","48000","-16","main","[(0, -252), (178, -178), (252, 0), (178, 178), (0, 252), (-178, 178), (-252, 0), (-178, -178)]","[]","17","odd","6","194277","407077","407076","107629","106623","1793","122042","122042","1793","1793","117123","511912","1792","407077","511423","510436","510436","NA","981","study_X","0","9494","1","yes","1680"
"undefined","undefined","9494","9494","black","no","legacy","legacy","legacy","0","red","(179, 0, 0)","color","present","highProb","rectangular","same","swap","same","swap","green","(0, 122, 0)","lowProb","lowProb4","rectangular","uniform","1","undefined","0.182291666667","1","1","246.270833333","1","35","47284","0","0","0","0","0","0","0","0","63","0","1","0.182291666667","246.270833333","35","47284","63","63","63","08/23/17 11:16:08","Default description","yes","<openexp._canvas.legacy.legacy object at 0x049627F0>","<openexp._canvas.legacy.legacy object at 0x0496E7B0>","<openexp._canvas.legacy.legacy object at 0x0495A410>","<openexp._canvas.legacy.legacy object at 0x04A509D0>","<openexp._canvas.legacy.legacy object at 0x04A214B0>","<openexp._canvas.legacy.legacy object at 0x0495ED50>","<openexp._canvas.legacy.legacy object at 0x04A229F0>","75","IndividualPriorityWithDis_v1.osexp","C:/Userdata/Michel/SpatialProb/IndividualPriorityMaps/Experiment2","no","mono","no","18","no","white","no","yes","0.09","98","1050","legacy","45","38","38","1","C:/Userdata/Michel/SpatialProb/IndividualPriorityMaps/Experiment2/data/subject-17.csv","legacy","9","192","25","Jazzy James","3.1.3","yes","598477b2b83f69022949e7e9","47","red","rectangular","green","rectangular","0","\","656","space","9494","9494","(80, 80, 80)","(0, 122, 0)","(179, 0, 0)","(155, 155, 155)","2","legacy","experiment","[0, 1, 2, 3, 4, 5, 6, 7]","\","2500","3000","0","8","252.758751519","1024","2","48000","-16","main","[(0, -252), (178, -178), (252, 0), (178, 178), (0, 252), (-178, 178), (-252, 0), (-178, -178)]","[]","17","odd","5","194277","407077","407076","107629","106623","1793","122042","122042","1793","1793","117123","513960","1792","407077","513300","512313","512313","NA","981","study_X","0","9494","1","yes","1680"
"undefined","undefined","9494","9494","black","no","legacy","legacy","legacy","0","green","(0, 122, 0)","color","present","highProb","rectangular","swap","same","swap","same","red","(179, 0, 0)","lowProb","lowProb3","rectangular","uniform","1","undefined","0.1875","1","1","252.604166667","1","36","48500","0","0","0","0","0","0","0","0","64","0","1","0.1875","252.604166667","36","48500","64","64","64","08/23/17 11:16:08","Default description","yes","<openexp._canvas.legacy.legacy object at 0x049627F0>","<openexp._canvas.legacy.legacy object at 0x0496E7B0>","<openexp._canvas.legacy.legacy object at 0x0495A410>","<openexp._canvas.legacy.legacy object at 0x04A509D0>","<openexp._canvas.legacy.legacy object at 0x04A214B0>","<openexp._canvas.legacy.legacy object at 0x04A51A70>","<openexp._canvas.legacy.legacy object at 0x04A229F0>","75","IndividualPriorityWithDis_v1.osexp","C:/Userdata/Michel/SpatialProb/IndividualPriorityMaps/Experiment2","no","mono","no","18","no","white","no","yes","0.09","98","1050","legacy","45","39","39","1","C:/Userdata/Michel/SpatialProb/IndividualPriorityMaps/Experiment2/data/subject-17.csv","legacy","9","192","25","Jazzy James","3.1.3","yes","598477b2b83f69022949e7e9","47","green","rectangular","red","rectangular","0","\","1216","space","9494","9494","(80, 80, 80)","(0, 122, 0)","(179, 0, 0)","(155, 155, 155)","2","legacy","experiment","[0, 1, 2, 3, 4, 5, 6, 7]","\","2500","3000","0","8","252.758751519","1024","2","48000","-16","main","[(0, -252), (178, -178), (252, 0), (178, 178), (0, 252), (-178, 178), (-252, 0), (-178, -178)]","[]","17","odd","3","194277","407077","407076","107629","106623","1793","122042","122042","1793","1793","117123","516568","1792","407077","515349","514362","514362","NA","981","study_X","0","9494","1","yes","1680"
"undefined","undefined","9494","9494","black","no","legacy","legacy","legacy","0","red","(179, 0, 0)","color","absent","lowProb5","circular","swap","swap","same","swap","red","(179, 0, 0)","lowProb","lowProb2","circular","uniform","1","undefined","0.192708333333","1","1","257.213541667","1","37","49385","0","0","0","0","0","0","0","0","65","0","1","0.192708333333","257.213541667","37","49385","65","65","65","08/23/17 11:16:08","Default description","yes","<openexp._canvas.legacy.legacy object at 0x049627F0>","<openexp._canvas.legacy.legacy object at 0x0496E7B0>","<openexp._canvas.legacy.legacy object at 0x0495A410>","<openexp._canvas.legacy.legacy object at 0x04A509D0>","<openexp._canvas.legacy.legacy object at 0x04A214B0>","<openexp._canvas.legacy.legacy object at 0x04A50A30>","<openexp._canvas.legacy.legacy object at 0x04A229F0>","75","IndividualPriorityWithDis_v1.osexp","C:/Userdata/Michel/SpatialProb/IndividualPriorityMaps/Experiment2","no","mono","no","18","no","white","no","yes","0.09","98","1050","legacy","45","40","40","1","C:/Userdata/Michel/SpatialProb/IndividualPriorityMaps/Experiment2/data/subject-17.csv","legacy","9","192","25","Jazzy James","3.1.3","yes","598477b2b83f69022949e7e9","47","red","circular","red","circular","0","\","885","space","9494","9494","(80, 80, 80)","(0, 122, 0)","(179, 0, 0)","(155, 155, 155)","2","legacy","experiment","[0, 1, 2, 3, 4, 5, 6, 7]","\","2500","3000","0","8","252.758751519","1024","2","48000","-16","main","[(0, -252), (178, -178), (252, 0), (178, 178), (0, 252), (-178, 178), (-252, 0), (-178, -178)]","[]","17","odd","2","194277","407077","407076","107629","106623","1793","122042","122042","1793","1793","117123","518856","1792","407077","517968","516981","516981","NA","981","study_X","0","9494","1","yes","1680"
"undefined","undefined","9494","9494","black","no","legacy","legacy","legacy","0","green","(0, 122, 0)","color","present","highProb","rectangular","swap","swap","same","swap","red","(179, 0, 0)","lowProb","lowProb6","rectangular","uniform","1","undefined","0.197916666667","1","1","262.973958333","1","38","50491","0","0","0","0","0","0","0","0","66","0","1","0.197916666667","262.973958333","38","50491","66","66","66","08/23/17 11:16:08","Default description","yes","<openexp._canvas.legacy.legacy object at 0x049627F0>","<openexp._canvas.legacy.legacy object at 0x0496E7B0>","<openexp._canvas.legacy.legacy object at 0x0495A410>","<openexp._canvas.legacy.legacy object at 0x04A509D0>","<openexp._canvas.legacy.legacy object at 0x04A214B0>","<openexp._canvas.legacy.legacy object at 0x04979050>","<openexp._canvas.legacy.legacy object at 0x04A229F0>","75","IndividualPriorityWithDis_v1.osexp","C:/Userdata/Michel/SpatialProb/IndividualPriorityMaps/Experiment2","no","mono","no","18","no","white","no","yes","0.09","98","1050","legacy","45","41","41","1","C:/Userdata/Michel/SpatialProb/IndividualPriorityMaps/Experiment2/data/subject-17.csv","legacy","9","192","25","Jazzy James","3.1.3","yes","598477b2b83f69022949e7e9","47","green","rectangular","red","rectangular","0","\","1106","space","9494","9494","(80, 80, 80)","(0, 122, 0)","(179, 0, 0)","(155, 155, 155)","2","legacy","experiment","[0, 1, 2, 3, 4, 5, 6, 7]","\","2500","3000","0","8","252.758751519","1024","2","48000","-16","main","[(0, -252), (178, -178), (252, 0), (178, 178), (0, 252), (-178, 178), (-252, 0), (-178, -178)]","[]","17","odd","7","194277","407077","407076","107629","106623","1793","122042","122042","1793","1793","117123","521352","1792","407077","520244","519257","519257","NA","981","study_X","0","9494","1","yes","1680"
"undefined","undefined","9494","9494","black","no","legacy","legacy","legacy","0","green","(0, 122, 0)","color","present","highProb","circular","same","swap","same","swap","red","(179, 0, 0)","highProbShape","highProbShape","circular","uniform","0","undefined","0.197916666667","1","1","266.614583333","1","38","51190","0","0","0","0","0","0","0","0","67","0","1","0.197916666667","266.614583333","38","51190","67","67","67","08/23/17 11:16:08","Default description","yes","<openexp._canvas.legacy.legacy object at 0x049627F0>","<openexp._canvas.legacy.legacy object at 0x0496E7B0>","<openexp._canvas.legacy.legacy object at 0x0495A410>","<openexp._canvas.legacy.legacy object at 0x04A509D0>","<openexp._canvas.legacy.legacy object at 0x04A214B0>","<openexp._canvas.legacy.legacy object at 0x049793F0>","<openexp._canvas.legacy.legacy object at 0x04A229F0>","75","IndividualPriorityWithDis_v1.osexp","C:/Userdata/Michel/SpatialProb/IndividualPriorityMaps/Experiment2","no","mono","no","18","no","white","no","yes","0.09","98","1050","legacy","45","42","42","1","C:/Userdata/Michel/SpatialProb/IndividualPriorityMaps/Experiment2/data/subject-17.csv","legacy","9","192","25","Jazzy James","3.1.3","yes","598477b2b83f69022949e7e9","47","green","circular","red","circular","0","/","699","space","9494","9494","(80, 80, 80)","(0, 122, 0)","(179, 0, 0)","(155, 155, 155)","2","legacy","experiment","[0, 1, 2, 3, 4, 5, 6, 7]","\","2500","3000","0","8","252.758751519","1024","2","48000","-16","main","[(0, -252), (178, -178), (252, 0), (178, 178), (0, 252), (-178, 178), (-252, 0), (-178, -178)]","[]","17","odd","4","194277","407077","407076","107629","106623","1793","122042","122042","1793","1793","117123","523464","1792","407077","522763","521776","521777","NA","981","study_X","0","9494","1","yes","1680"
"undefined","undefined","9494","9494","black","no","legacy","legacy","legacy","0","red","(179, 0, 0)","color","present","highProb","rectangular","swap","swap","swap","swap","green","(0, 122, 0)","lowProb","lowProb5","rectangular","uniform","1","undefined","0.203125","1","1","269.895833333","1","39","51820","0","0","0","0","0","0","0","0","68","0","1","0.203125","269.895833333","39","51820","68","68","68","08/23/17 11:16:08","Default description","yes","<openexp._canvas.legacy.legacy object at 0x049627F0>","<openexp._canvas.legacy.legacy object at 0x0496E7B0>","<openexp._canvas.legacy.legacy object at 0x0495A410>","<openexp._canvas.legacy.legacy object at 0x04A509D0>","<openexp._canvas.legacy.legacy object at 0x04A214B0>","<openexp._canvas.legacy.legacy object at 0x04A51BB0>","<openexp._canvas.legacy.legacy object at 0x04A229F0>","75","IndividualPriorityWithDis_v1.osexp","C:/Userdata/Michel/SpatialProb/IndividualPriorityMaps/Experiment2","no","mono","no","18","no","white","no","yes","0.09","98","1050","legacy","45","43","43","1","C:/Userdata/Michel/SpatialProb/IndividualPriorityMaps/Experiment2/data/subject-17.csv","legacy","9","192","25","Jazzy James","3.1.3","yes","598477b2b83f69022949e7e9","47","red","rectangular","green","rectangular","0","\","630","space","9494","9494","(80, 80, 80)","(0, 122, 0)","(179, 0, 0)","(155, 155, 155)","2","legacy","experiment","[0, 1, 2, 3, 4, 5, 6, 7]","\","2500","3000","0","8","252.758751519","1024","2","48000","-16","main","[(0, -252), (178, -178), (252, 0), (178, 178), (0, 252), (-178, 178), (-252, 0), (-178, -178)]","[]","17","odd","6","194277","407077","407076","107629","106623","1793","122042","122042","1793","1793","117123","525496","1792","407077","524864","523877","523877","NA","981","study_X","0","9494","1","yes","1680"
"undefined","undefined","9494","9494","black","no","legacy","legacy","legacy","0","red","(179, 0, 0)","color","absent","lowProb4","rectangular","same","same","swap","same","red","(179, 0, 0)","lowProb","lowProb5","rectangular","uniform","1","undefined","0.208333333333","1","1","272.984375","1","40","52413","0","0","0","0","0","0","0","0","69","0","1","0.208333333333","272.984375","40","52413","69","69","69","08/23/17 11:16:08","Default description","yes","<openexp._canvas.legacy.legacy object at 0x049627F0>","<openexp._canvas.legacy.legacy object at 0x0496E7B0>","<openexp._canvas.legacy.legacy object at 0x0495A410>","<openexp._canvas.legacy.legacy object at 0x04A509D0>","<openexp._canvas.legacy.legacy object at 0x04A214B0>","<openexp._canvas.legacy.legacy object at 0x04972810>","<openexp._canvas.legacy.legacy object at 0x04A229F0>","75","IndividualPriorityWithDis_v1.osexp","C:/Userdata/Michel/SpatialProb/IndividualPriorityMaps/Experiment2","no","mono","no","18","no","white","no","yes","0.09","98","1050","legacy","45","44","44","1","C:/Userdata/Michel/SpatialProb/IndividualPriorityMaps/Experiment2/data/subject-17.csv","legacy","9","192","25","Jazzy James","3.1.3","yes","598477b2b83f69022949e7e9","47","red","rectangular","red","rectangular","0","\","593","space","9494","9494","(80, 80, 80)","(0, 122, 0)","(179, 0, 0)","(155, 155, 155)","2","legacy","experiment","[0, 1, 2, 3, 4, 5, 6, 7]","\","2500","3000","0","8","252.758751519","1024","2","48000","-16","main","[(0, -252), (178, -178), (252, 0), (178, 178), (0, 252), (-178, 178), (-252, 0), (-178, -178)]","[]","17","odd","6","194277","407077","407076","107629","106623","1793","122042","122042","1793","1793","117123","527480","1792","407077","526883","525896","525896","NA","981","study_X","0","9494","1","yes","1680"
"undefined","undefined","9494","9494","black","no","legacy","legacy","legacy","0","green","(0, 122, 0)","shape","present","highProb","rectangular","swap","same","swap","swap","green","(0, 122, 0)","lowProb","lowProb5","circular","uniform","1","undefined","0.213541666667","1","1","275.6875","1","41","52932","0","0","0","0","0","0","0","0","70","0","1","0.213541666667","275.6875","41","52932","70","70","70","08/23/17 11:16:08","Default description","yes","<openexp._canvas.legacy.legacy object at 0x049627F0>","<openexp._canvas.legacy.legacy object at 0x0496E7B0>","<openexp._canvas.legacy.legacy object at 0x0495A410>","<openexp._canvas.legacy.legacy object at 0x04A509D0>","<openexp._canvas.legacy.legacy object at 0x04A214B0>","<openexp._canvas.legacy.legacy object at 0x04A51590>","<openexp._canvas.legacy.legacy object at 0x04A229F0>","75","IndividualPriorityWithDis_v1.osexp","C:/Userdata/Michel/SpatialProb/IndividualPriorityMaps/Experiment2","no","mono","no","18","no","white","no","yes","0.09","98","1050","legacy","45","45","45","1","C:/Userdata/Michel/SpatialProb/IndividualPriorityMaps/Experiment2/data/subject-17.csv","legacy","9","192","25","Jazzy James","3.1.3","yes","598477b2b83f69022949e7e9","47","green","rectangular","green","circular","0","\","519","space","9494","9494","(80, 80, 80)","(0, 122, 0)","(179, 0, 0)","(155, 155, 155)","2","legacy","experiment","[0, 1, 2, 3, 4, 5, 6, 7]","\","2500","3000","0","8","252.758751519","1024","2","48000","-16","main","[(0, -252), (178, -178), (252, 0), (178, 178), (0, 252), (-178, 178), (-252, 0), (-178, -178)]","[]","17","odd","6","194277","407077","407076","107629","106623","1793","122042","122042","1793","1793","117123","529416","1792","407077","528893","527906","527906","NA","981","study_X","0","9494","1","yes","1680"
"undefined","undefined","9494","9494","black","no","legacy","legacy","legacy","0","green","(0, 122, 0)","shape","present","lowProb4","circular","same","swap","same","swap","green","(0, 122, 0)","highProbColor","highProbColor","rectangular","uniform","1","undefined","0.21875","1","1","283.223958333","1","42","54379","0","0","0","0","0","0","0","0","71","0","1","0.21875","283.223958333","42","54379","71","71","71","08/23/17 11:16:08","Default description","yes","<openexp._canvas.legacy.legacy object at 0x049627F0>","<openexp._canvas.legacy.legacy object at 0x0496E7B0>","<openexp._canvas.legacy.legacy object at 0x0495A410>","<openexp._canvas.legacy.legacy object at 0x04A509D0>","<openexp._canvas.legacy.legacy object at 0x04A214B0>","<openexp._canvas.legacy.legacy object at 0x0495AB70>","<openexp._canvas.legacy.legacy object at 0x04A229F0>","75","IndividualPriorityWithDis_v1.osexp","C:/Userdata/Michel/SpatialProb/IndividualPriorityMaps/Experiment2","no","mono","no","18","no","white","no","yes","0.09","98","1050","legacy","45","46","46","1","C:/Userdata/Michel/SpatialProb/IndividualPriorityMaps/Experiment2/data/subject-17.csv","legacy","9","192","25","Jazzy James","3.1.3","yes","598477b2b83f69022949e7e9","47","green","circular","green","rectangular","0","\","1447","space","9494","9494","(80, 80, 80)","(0, 122, 0)","(179, 0, 0)","(155, 155, 155)","2","legacy","experiment","[0, 1, 2, 3, 4, 5, 6, 7]","\","2500","3000","0","8","252.758751519","1024","2","48000","-16","main","[(0, -252), (178, -178), (252, 0), (178, 178), (0, 252), (-178, 178), (-252, 0), (-178, -178)]","[]","17","odd","0","194277","407077","407076","107629","106623","1793","122042","122042","1793","1793","117123","532264","1792","407077","530813","529826","529827","NA","981","study_X","0","9494","1","yes","1680"
"undefined","undefined","9494","9494","black","no","legacy","legacy","legacy","0","green","(0, 122, 0)","color","present","highProb","rectangular","same","swap","swap","same","red","(179, 0, 0)","lowProb","lowProb1","rectangular","uniform","1","undefined","0.223958333333","1","1","288.630208333","1","43","55417","0","0","0","0","0","0","0","0","72","0","1","0.223958333333","288.630208333","43","55417","72","72","72","08/23/17 11:16:08","Default description","yes","<openexp._canvas.legacy.legacy object at 0x049627F0>","<openexp._canvas.legacy.legacy object at 0x0496E7B0>","<openexp._canvas.legacy.legacy object at 0x0495A410>","<openexp._canvas.legacy.legacy object at 0x04A509D0>","<openexp._canvas.legacy.legacy object at 0x04A214B0>","<openexp._canvas.legacy.legacy object at 0x04972610>","<openexp._canvas.legacy.legacy object at 0x04A229F0>","75","IndividualPriorityWithDis_v1.osexp","C:/Userdata/Michel/SpatialProb/IndividualPriorityMaps/Experiment2","no","mono","no","18","no","white","no","yes","0.09","98","1050","legacy","315","47","47","1","C:/Userdata/Michel/SpatialProb/IndividualPriorityMaps/Experiment2/data/subject-17.csv","legacy","9","192","25","Jazzy James","3.1.3","yes","598477b2b83f69022949e7e9","47","green","rectangular","red","rectangular","0","/","1038","space","9494","9494","(80, 80, 80)","(0, 122, 0)","(179, 0, 0)","(155, 155, 155)","2","legacy","experiment","[0, 1, 2, 3, 4, 5, 6, 7]","/","2500","3000","0","8","252.758751519","1024","2","48000","-16","main","[(0, -252), (178, -178), (252, 0), (178, 178), (0, 252), (-178, 178), (-252, 0), (-178, -178)]","[]","17","odd","1","194277","407077","407076","107629","106623","1793","122042","122042","1793","1793","117123","534695","1792","407077","533654","532667","532667","NA","981","study_X","0","9494","1","yes","1680"
"undefined","undefined","9494","9494","black","no","legacy","legacy","legacy","0","green","(0, 122, 0)","color","present","lowProb2","rectangular","same","same","same","same","red","(179, 0, 0)","highProbColor","highProbColor","rectangular","uniform","1","undefined","0.229166666667","1","1","295.026041667","1","44","56645","0","0","0","0","0","0","0","0","73","0","1","0.229166666667","295.026041667","44","56645","73","73","73","08/23/17 11:16:08","Default description","yes","<openexp._canvas.legacy.legacy object at 0x049627F0>","<openexp._canvas.legacy.legacy object at 0x0496E7B0>","<openexp._canvas.legacy.legacy object at 0x0495A410>","<openexp._canvas.legacy.legacy object at 0x04A509D0>","<openexp._canvas.legacy.legacy object at 0x04A214B0>","<openexp._canvas.legacy.legacy object at 0x049740F0>","<openexp._canvas.legacy.legacy object at 0x04A229F0>","75","IndividualPriorityWithDis_v1.osexp","C:/Userdata/Michel/SpatialProb/IndividualPriorityMaps/Experiment2","no","mono","no","18","no","white","no","yes","0.09","98","1050","legacy","45","48","48","1","C:/Userdata/Michel/SpatialProb/IndividualPriorityMaps/Experiment2/data/subject-17.csv","legacy","9","192","25","Jazzy James","3.1.3","yes","598477b2b83f69022949e7e9","47","green","rectangular","red","rectangular","0","\","1228","space","9494","9494","(80, 80, 80)","(0, 122, 0)","(179, 0, 0)","(155, 155, 155)","2","legacy","experiment","[0, 1, 2, 3, 4, 5, 6, 7]","\","2500","3000","0","8","252.758751519","1024","2","48000","-16","main","[(0, -252), (178, -178), (252, 0), (178, 178), (0, 252), (-178, 178), (-252, 0), (-178, -178)]","[]","17","odd","0","194277","407077","407076","107629","106623","1793","122042","122042","1793","1793","117123","537320","1792","407077","536089","535102","535102","NA","981","study_X","0","9494","1","yes","1680"
"undefined","undefined","9494","9494","black","no","legacy","legacy","legacy","0","red","(179, 0, 0)","color","absent","highProb","circular","swap","swap","same","swap","red","(179, 0, 0)","lowProb","lowProb5","circular","uniform","1","undefined","0.234375","1","1","298.989583333","1","45","57406","0","0","0","0","0","0","0","0","74","0","1","0.234375","298.989583333","45","57406","74","74","74","08/23/17 11:16:08","Default description","yes","<openexp._canvas.legacy.legacy object at 0x049627F0>","<openexp._canvas.legacy.legacy object at 0x0496E7B0>","<openexp._canvas.legacy.legacy object at 0x0495A410>","<openexp._canvas.legacy.legacy object at 0x04A509D0>","<openexp._canvas.legacy.legacy object at 0x04A214B0>","<openexp._canvas.legacy.legacy object at 0x04A4BF50>","<openexp._canvas.legacy.legacy object at 0x04A229F0>","75","IndividualPriorityWithDis_v1.osexp","C:/Userdata/Michel/SpatialProb/IndividualPriorityMaps/Experiment2","no","mono","no","18","no","white","no","yes","0.09","98","1050","legacy","315","49","49","1","C:/Userdata/Michel/SpatialProb/IndividualPriorityMaps/Experiment2/data/subject-17.csv","legacy","9","192","25","Jazzy James","3.1.3","yes","598477b2b83f69022949e7e9","47","red","circular","red","circular","0","/","761","space","9494","9494","(80, 80, 80)","(0, 122, 0)","(179, 0, 0)","(155, 155, 155)","2","legacy","experiment","[0, 1, 2, 3, 4, 5, 6, 7]","/","2500","3000","0","8","252.758751519","1024","2","48000","-16","main","[(0, -252), (178, -178), (252, 0), (178, 178), (0, 252), (-178, 178), (-252, 0), (-178, -178)]","[]","17","odd","6","194277","407077","407076","107629","106623","1793","122042","122042","1793","1793","117123","539480","1792","407077","538717","537730","537730","NA","981","study_X","0","9494","1","yes","1680"
"undefined","undefined","9494","9494","black","no","legacy","legacy","legacy","0","red","(179, 0, 0)","color","present","highProb","rectangular","same","swap","swap","swap","green","(0, 122, 0)","highProbShape","highProbShape","rectangular","uniform","0","undefined","0.234375","1","1","303.572916667","1","45","58286","0","0","0","0","0","0","0","0","75","0","1","0.234375","303.572916667","45","58286","75","75","75","08/23/17 11:16:08","Default description","yes","<openexp._canvas.legacy.legacy object at 0x049627F0>","<openexp._canvas.legacy.legacy object at 0x0496E7B0>","<openexp._canvas.legacy.legacy object at 0x0495A410>","<openexp._canvas.legacy.legacy object at 0x04A509D0>","<openexp._canvas.legacy.legacy object at 0x04A214B0>","<openexp._canvas.legacy.legacy object at 0x049649D0>","<openexp._canvas.legacy.legacy object at 0x04A229F0>","75","IndividualPriorityWithDis_v1.osexp","C:/Userdata/Michel/SpatialProb/IndividualPriorityMaps/Experiment2","no","mono","no","18","no","white","no","yes","0.09","98","1050","legacy","315","50","50","1","C:/Userdata/Michel/SpatialProb/IndividualPriorityMaps/Experiment2/data/subject-17.csv","legacy","9","192","25","Jazzy James","3.1.3","yes","598477b2b83f69022949e7e9","47","red","rectangular","green","rectangular","0","\","880","space","9494","9494","(80, 80, 80)","(0, 122, 0)","(179, 0, 0)","(155, 155, 155)","2","legacy","experiment","[0, 1, 2, 3, 4, 5, 6, 7]","/","2500","3000","0","8","252.758751519","1024","2","48000","-16","main","[(0, -252), (178, -178), (252, 0), (178, 178), (0, 252), (-178, 178), (-252, 0), (-178, -178)]","[]","17","odd","4","194277","407077","407076","107629","106623","1793","122042","122042","1793","1793","117123","541752","1792","407077","540869","539882","539882","NA","981","study_X","0","9494","1","yes","1680"
"undefined","undefined","9494","9494","black","no","legacy","legacy","legacy","0","red","(179, 0, 0)","color","absent","lowProb1","circular","same","swap","swap","swap","red","(179, 0, 0)","lowProb","lowProb2","circular","uniform","1","undefined","0.239583333333","1","1","306.84375","1","46","58914","0","0","0","0","0","0","0","0","76","0","1","0.239583333333","306.84375","46","58914","76","76","76","08/23/17 11:16:08","Default description","yes","<openexp._canvas.legacy.legacy object at 0x049627F0>","<openexp._canvas.legacy.legacy object at 0x0496E7B0>","<openexp._canvas.legacy.legacy object at 0x0495A410>","<openexp._canvas.legacy.legacy object at 0x04A509D0>","<openexp._canvas.legacy.legacy object at 0x04A214B0>","<openexp._canvas.legacy.legacy object at 0x0496EBF0>","<openexp._canvas.legacy.legacy object at 0x04A229F0>","75","IndividualPriorityWithDis_v1.osexp","C:/Userdata/Michel/SpatialProb/IndividualPriorityMaps/Experiment2","no","mono","no","18","no","white","no","yes","0.09","98","1050","legacy","45","51","51","1","C:/Userdata/Michel/SpatialProb/IndividualPriorityMaps/Experiment2/data/subject-17.csv","legacy","9","192","25","Jazzy James","3.1.3","yes","598477b2b83f69022949e7e9","47","red","circular","red","circular","0","\","628","space","9494","9494","(80, 80, 80)","(0, 122, 0)","(179, 0, 0)","(155, 155, 155)","2","legacy","experiment","[0, 1, 2, 3, 4, 5, 6, 7]","\","2500","3000","0","8","252.758751519","1024","2","48000","-16","main","[(0, -252), (178, -178), (252, 0), (178, 178), (0, 252), (-178, 178), (-252, 0), (-178, -178)]","[]","17","odd","2","194277","407077","407076","107629","106623","1793","122042","122042","1793","1793","117123","543792","1792","407077","543161","542174","542174","NA","981","study_X","0","9494","1","yes","1680"
"undefined","undefined","9494","9494","black","no","legacy","legacy","legacy","0","red","(179, 0, 0)","color","present","highProb","circular","same","same","swap","same","green","(0, 122, 0)","lowProb","lowProb5","circular","uniform","1","undefined","0.244791666667","1","1","309.510416667","1","47","59426","0","0","0","0","0","0","0","0","77","0","1","0.244791666667","309.510416667","47","59426","77","77","77","08/23/17 11:16:08","Default description","yes","<openexp._canvas.legacy.legacy object at 0x049627F0>","<openexp._canvas.legacy.legacy object at 0x0496E7B0>","<openexp._canvas.legacy.legacy object at 0x0495A410>","<openexp._canvas.legacy.legacy object at 0x04A509D0>","<openexp._canvas.legacy.legacy object at 0x04A214B0>","<openexp._canvas.legacy.legacy object at 0x04A50410>","<openexp._canvas.legacy.legacy object at 0x04A229F0>","75","IndividualPriorityWithDis_v1.osexp","C:/Userdata/Michel/SpatialProb/IndividualPriorityMaps/Experiment2","no","mono","no","18","no","white","no","yes","0.09","98","1050","legacy","315","52","52","1","C:/Userdata/Michel/SpatialProb/IndividualPriorityMaps/Experiment2/data/subject-17.csv","legacy","9","192","25","Jazzy James","3.1.3","yes","598477b2b83f69022949e7e9","47","red","circular","green","circular","0","/","512","space","9494","9494","(80, 80, 80)","(0, 122, 0)","(179, 0, 0)","(155, 155, 155)","2","legacy","experiment","[0, 1, 2, 3, 4, 5, 6, 7]","/","2500","3000","0","8","252.758751519","1024","2","48000","-16","main","[(0, -252), (178, -178), (252, 0), (178, 178), (0, 252), (-178, 178), (-252, 0), (-178, -178)]","[]","17","odd","6","194277","407077","407076","107629","106623","1793","122042","122042","1793","1793","117123","545704","1792","407077","545188","544201","544202","NA","981","study_X","0","9494","1","yes","1680"
"undefined","undefined","9494","9494","black","no","legacy","legacy","legacy","0","red","(179, 0, 0)","shape","present","highProb","circular","same","same","swap","swap","red","(179, 0, 0)","lowProb","lowProb3","rectangular","uniform","1","undefined","0.25","1","1","314.401041667","1","48","60365","0","0","0","0","0","0","0","0","78","0","1","0.25","314.401041667","48","60365","78","78","78","08/23/17 11:16:08","Default description","yes","<openexp._canvas.legacy.legacy object at 0x049627F0>","<openexp._canvas.legacy.legacy object at 0x0496E7B0>","<openexp._canvas.legacy.legacy object at 0x0495A410>","<openexp._canvas.legacy.legacy object at 0x04A509D0>","<openexp._canvas.legacy.legacy object at 0x04A214B0>","<openexp._canvas.legacy.legacy object at 0x04A51150>","<openexp._canvas.legacy.legacy object at 0x04A229F0>","75","IndividualPriorityWithDis_v1.osexp","C:/Userdata/Michel/SpatialProb/IndividualPriorityMaps/Experiment2","no","mono","no","18","no","white","no","yes","0.09","98","1050","legacy","45","53","53","1","C:/Userdata/Michel/SpatialProb/IndividualPriorityMaps/Experiment2/data/subject-17.csv","legacy","9","192","25","Jazzy James","3.1.3","yes","598477b2b83f69022949e7e9","47","red","circular","red","rectangular","0","\","939","space","9494","9494","(80, 80, 80)","(0, 122, 0)","(179, 0, 0)","(155, 155, 155)","2","legacy","experiment","[0, 1, 2, 3, 4, 5, 6, 7]","\","2500","3000","0","8","252.758751519","1024","2","48000","-16","main","[(0, -252), (178, -178), (252, 0), (178, 178), (0, 252), (-178, 178), (-252, 0), (-178, -178)]","[]","17","odd","3","194277","407077","407076","107629","106623","1793","122042","122042","1793","1793","117123","548040","1792","407077","547097","546110","546110","NA","981","study_X","0","9494","1","yes","1680"
