acc,accuracy,answerQ1,answerQ2,answerQ3,average_response_time,avg_rt,background,bidi,canvas_backend,clock_backend,color_backend,compensation,cond_disColor,cond_disColorRGB,cond_disFeature,cond_disPresent,cond_disProbability,cond_disShape,cond_primingDisColor,cond_primingDisShape,cond_primingTarColor,cond_primingTarShape,cond_tarColor,cond_tarColorRGB,cond_tarLocation,cond_tarLocationLong,cond_tarShape,coordinates,correct,correct_continuePress,count_Questions,count_blockAcc,count_blockFeed,count_blockLoop,count_blockRT,count_blockSeq,count_blockSumCorrect,count_blockSumRT,count_continuePress,count_example,count_expSettings,count_exp_mainLoop,count_experiment,count_instructions,count_instructions1,count_instructions2,count_log,count_main,count_prepCanvas,count_totalAcc,count_totalRT,count_totalSumCorrect,count_totalSumRT,count_trialResp,count_trialSeq,count_trialTask,datetime,description,disable_garbage_collection,dispBlank,dispBlockStart,dispFeedBlock,dispFix,dispInstructions,dispQuestions,dispSearch,dispStartScreen,distance2screen,experiment_file,experiment_path,font_bold,font_family,font_italic,font_size,font_underline,foreground,form_clicks,fullscreen,gaborFreq,gaborSize,height,keyboard_backend,lineOriTar,live_row,live_row_blockLoop,live_row_exp_mainLoop,logfile,mouse_backend,noExpBlocks,noExpTrials,noPracTrials,opensesame_codename,opensesame_version,osf_always_upload_experiment,osf_id,physical_screensize,previousDisColor,previousDisShape,previousTarColor,previousTarShape,repeat_cycle,response,responseTime,response_continuePress,response_time,response_time_continuePress,rgb_gray,rgb_green,rgb_red,rgb_white,round_decimals,sampler_backend,set_blockType,set_counterPositions,set_respCorrect,set_respTimeoutExp,set_respTimeoutPrac,set_rotation,set_setSize,sizeImaginary,sound_buf_size,sound_channels,sound_freq,sound_sample_size,start,stimPositions,stimuli,subject_nr,subject_parity,tarIdx,time_Questions,time_blockFeed,time_blockLoop,time_blockSeq,time_continuePress,time_example,time_expSettings,time_exp_mainLoop,time_experiment,time_instructions,time_instructions1,time_instructions2,time_log,time_main,time_prepCanvas,time_trialResp,time_trialSeq,time_trialTask,timing_EEGwait,timing_fix,title,total_correct,total_response_time,total_responses,uniform_coordinates,width
undefined,undefined,NA,NA,NA,7586,7586,black,no,legacy,legacy,legacy,0,red,"(177, 0, 0)",shape,absent,lowProb3,circular,same,swap,same,swap,red,"(177, 0, 0)",lowProb,lowProb4,circular,uniform,1,undefined,0,0.005208333,1,1,5.151041667,1,1,989,0,0,0,0,0,0,0,0,26,0,1,0.005208333,5.151041667,1,989,25,25,25,11/22/2018 13:30,Default description,yes,<openexp._canvas.legacy.legacy object at 0x04285C10>,<openexp._canvas.legacy.legacy object at 0x042996B0>,<openexp._canvas.legacy.legacy object at 0x042A0E10>,<openexp._canvas.legacy.legacy object at 0x042939D0>,<openexp._canvas.legacy.legacy object at 0x042D1070>,<openexp._canvas.legacy.legacy object at 0x042761F0>,<openexp._canvas.legacy.legacy object at 0x042A0110>,<openexp._canvas.legacy.legacy object at 0x0429D150>,75,SpatProbMultiple3.osexp,C:/Userdata/Michel/SpatProbMultiple3,no,mono,no,18,no,white,no,yes,0.09,98,1050,legacy,315,0,0,1,C:/Userdata/Michel/SpatProbMultiple3/beh/subject-3.csv,legacy,12,192,25,Jazzy James,3.1.9,yes,598477b2b83f69022949e7e9,47,red,circular,red,circular,0,/,989,space,7586,7586,"(80, 80, 80)","(0, 123, 0)","(177, 0, 0)","(155, 155, 155)",2,legacy,experiment,"[2, 3, 4, 5, 6, 7, 0, 1]",/,2500,3000,0,8,252.7587515,1024,2,48000,-16,main,"[(0, -252), (178, -178), (252, 0), (178, 178), (0, 252), (-178, 178), (-252, 0), (-178, -178)]",[],27,odd,7,NA,268543,280079,280079,170478,169469,2549,192172,192172,2549,2549,178065,287400,2545,280079,286407,280473,280473,NA,848,study_X,0,7586,1,yes,1680
undefined,undefined,NA,NA,NA,7586,7586,black,no,legacy,legacy,legacy,0,red,"(177, 0, 0)",color,present,lowProb6,circular,same,same,swap,same,green,"(0, 123, 0)",lowProb,lowProb4,circular,uniform,1,undefined,0,0.010416667,1,1,8.395833333,1,2,1612,0,0,0,0,0,0,0,0,27,0,1,0.010416667,8.395833333,2,1612,26,26,26,11/22/2018 13:30,Default description,yes,<openexp._canvas.legacy.legacy object at 0x04285C10>,<openexp._canvas.legacy.legacy object at 0x042996B0>,<openexp._canvas.legacy.legacy object at 0x042A0E10>,<openexp._canvas.legacy.legacy object at 0x042939D0>,<openexp._canvas.legacy.legacy object at 0x042D1070>,<openexp._canvas.legacy.legacy object at 0x042761F0>,<openexp._canvas.legacy.legacy object at 0x042859F0>,<openexp._canvas.legacy.legacy object at 0x0429D150>,75,SpatProbMultiple3.osexp,C:/Userdata/Michel/SpatProbMultiple3,no,mono,no,18,no,white,no,yes,0.09,98,1050,legacy,315,1,1,1,C:/Userdata/Michel/SpatProbMultiple3/beh/subject-3.csv,legacy,12,192,25,Jazzy James,3.1.9,yes,598477b2b83f69022949e7e9,47,red,circular,green,circular,0,/,623,space,7586,7586,"(80, 80, 80)","(0, 123, 0)","(177, 0, 0)","(155, 155, 155)",2,legacy,experiment,"[2, 3, 4, 5, 6, 7, 0, 1]",/,2500,3000,0,8,252.7587515,1024,2,48000,-16,main,"[(0, -252), (178, -178), (252, 0), (178, 178), (0, 252), (-178, 178), (-252, 0), (-178, -178)]",[],27,odd,7,NA,268543,280079,280079,170478,169469,2549,192172,192172,2549,2549,178065,289360,2545,280079,288733,287876,287876,NA,848,study_X,0,7586,1,yes,1680
undefined,undefined,NA,NA,NA,7586,7586,black,no,legacy,legacy,legacy,0,red,"(177, 0, 0)",shape,present,lowProb4,circular,same,same,swap,swap,red,"(177, 0, 0)",highProbColor,highProbColor,rectangular,uniform,1,undefined,0,0.015625,1,1,16.54166667,1,3,3176,0,0,0,0,0,0,0,0,28,0,1,0.015625,16.54166667,3,3176,27,27,27,11/22/2018 13:30,Default description,yes,<openexp._canvas.legacy.legacy object at 0x04285C10>,<openexp._canvas.legacy.legacy object at 0x042996B0>,<openexp._canvas.legacy.legacy object at 0x042A0E10>,<openexp._canvas.legacy.legacy object at 0x042939D0>,<openexp._canvas.legacy.legacy object at 0x042D1070>,<openexp._canvas.legacy.legacy object at 0x042761F0>,<openexp._canvas.legacy.legacy object at 0x042859D0>,<openexp._canvas.legacy.legacy object at 0x0429D150>,75,SpatProbMultiple3.osexp,C:/Userdata/Michel/SpatProbMultiple3,no,mono,no,18,no,white,no,yes,0.09,98,1050,legacy,45,2,2,1,C:/Userdata/Michel/SpatProbMultiple3/beh/subject-3.csv,legacy,12,192,25,Jazzy James,3.1.9,yes,598477b2b83f69022949e7e9,47,red,circular,red,rectangular,0,\,1564,space,7586,7586,"(80, 80, 80)","(0, 123, 0)","(177, 0, 0)","(155, 155, 155)",2,legacy,experiment,"[2, 3, 4, 5, 6, 7, 0, 1]",\,2500,3000,0,8,252.7587515,1024,2,48000,-16,main,"[(0, -252), (178, -178), (252, 0), (178, 178), (0, 252), (-178, 178), (-252, 0), (-178, -178)]",[],27,odd,2,NA,268543,280079,280079,170478,169469,2549,192172,192172,2549,2549,178065,292233,2545,280079,290665,289808,289808,NA,848,study_X,0,7586,1,yes,1680
undefined,undefined,NA,NA,NA,7586,7586,black,no,legacy,legacy,legacy,0,green,"(0, 123, 0)",color,present,highProb,circular,swap,same,same,swap,red,"(177, 0, 0)",lowProb,lowProb3,circular,uniform,1,undefined,0,0.020833333,1,1,22.08854167,1,4,4241,0,0,0,0,0,0,0,0,29,0,1,0.020833333,22.08854167,4,4241,28,28,28,11/22/2018 13:30,Default description,yes,<openexp._canvas.legacy.legacy object at 0x04285C10>,<openexp._canvas.legacy.legacy object at 0x042996B0>,<openexp._canvas.legacy.legacy object at 0x042A0E10>,<openexp._canvas.legacy.legacy object at 0x042939D0>,<openexp._canvas.legacy.legacy object at 0x042D1070>,<openexp._canvas.legacy.legacy object at 0x042761F0>,<openexp._canvas.legacy.legacy object at 0x042A0BB0>,<openexp._canvas.legacy.legacy object at 0x0429D150>,75,SpatProbMultiple3.osexp,C:/Userdata/Michel/SpatProbMultiple3,no,mono,no,18,no,white,no,yes,0.09,98,1050,legacy,45,3,3,1,C:/Userdata/Michel/SpatProbMultiple3/beh/subject-3.csv,legacy,12,192,25,Jazzy James,3.1.9,yes,598477b2b83f69022949e7e9,47,green,circular,red,circular,0,\,1065,space,7586,7586,"(80, 80, 80)","(0, 123, 0)","(177, 0, 0)","(155, 155, 155)",2,legacy,experiment,"[2, 3, 4, 5, 6, 7, 0, 1]",\,2500,3000,0,8,252.7587515,1024,2,48000,-16,main,"[(0, -252), (178, -178), (252, 0), (178, 178), (0, 252), (-178, 178), (-252, 0), (-178, -178)]",[],27,odd,5,NA,268543,280079,280079,170478,169469,2549,192172,192172,2549,2549,178065,294608,2545,280079,293540,292683,292683,NA,848,study_X,0,7586,1,yes,1680
undefined,undefined,NA,NA,NA,7586,7586,black,no,legacy,legacy,legacy,0,green,"(0, 123, 0)",shape,absent,lowProb5,rectangular,same,swap,swap,swap,green,"(0, 123, 0)",lowProb,lowProb5,rectangular,uniform,1,undefined,0,0.026041667,1,1,27.72395833,1,5,5323,0,0,0,0,0,0,0,0,30,0,1,0.026041667,27.72395833,5,5323,29,29,29,11/22/2018 13:30,Default description,yes,<openexp._canvas.legacy.legacy object at 0x04285C10>,<openexp._canvas.legacy.legacy object at 0x042996B0>,<openexp._canvas.legacy.legacy object at 0x042A0E10>,<openexp._canvas.legacy.legacy object at 0x042939D0>,<openexp._canvas.legacy.legacy object at 0x042D1070>,<openexp._canvas.legacy.legacy object at 0x042761F0>,<openexp._canvas.legacy.legacy object at 0x042A80D0>,<openexp._canvas.legacy.legacy object at 0x0429D150>,75,SpatProbMultiple3.osexp,C:/Userdata/Michel/SpatProbMultiple3,no,mono,no,18,no,white,no,yes,0.09,98,1050,legacy,45,4,4,1,C:/Userdata/Michel/SpatProbMultiple3/beh/subject-3.csv,legacy,12,192,25,Jazzy James,3.1.9,yes,598477b2b83f69022949e7e9,47,green,rectangular,green,rectangular,0,\,1082,space,7586,7586,"(80, 80, 80)","(0, 123, 0)","(177, 0, 0)","(155, 155, 155)",2,legacy,experiment,"[2, 3, 4, 5, 6, 7, 0, 1]",\,2500,3000,0,8,252.7587515,1024,2,48000,-16,main,"[(0, -252), (178, -178), (252, 0), (178, 178), (0, 252), (-178, 178), (-252, 0), (-178, -178)]",[],27,odd,0,NA,268543,280079,280079,170478,169469,2549,192172,192172,2549,2549,178065,297000,2545,280079,295915,295057,295057,NA,848,study_X,0,7586,1,yes,1680
undefined,undefined,NA,NA,NA,7586,7586,black,no,legacy,legacy,legacy,0,red,"(177, 0, 0)",shape,present,highProb,circular,swap,swap,swap,same,red,"(177, 0, 0)",lowProb,lowProb3,rectangular,uniform,1,undefined,0,0.03125,1,1,39.88020833,1,6,7657,0,0,0,0,0,0,0,0,31,0,1,0.03125,39.88020833,6,7657,30,30,30,11/22/2018 13:30,Default description,yes,<openexp._canvas.legacy.legacy object at 0x04285C10>,<openexp._canvas.legacy.legacy object at 0x042996B0>,<openexp._canvas.legacy.legacy object at 0x042A0E10>,<openexp._canvas.legacy.legacy object at 0x042939D0>,<openexp._canvas.legacy.legacy object at 0x042D1070>,<openexp._canvas.legacy.legacy object at 0x042761F0>,<openexp._canvas.legacy.legacy object at 0x0427C810>,<openexp._canvas.legacy.legacy object at 0x0429D150>,75,SpatProbMultiple3.osexp,C:/Userdata/Michel/SpatProbMultiple3,no,mono,no,18,no,white,no,yes,0.09,98,1050,legacy,315,5,5,1,C:/Userdata/Michel/SpatProbMultiple3/beh/subject-3.csv,legacy,12,192,25,Jazzy James,3.1.9,yes,598477b2b83f69022949e7e9,47,red,circular,red,rectangular,0,/,2334,space,7586,7586,"(80, 80, 80)","(0, 123, 0)","(177, 0, 0)","(155, 155, 155)",2,legacy,experiment,"[2, 3, 4, 5, 6, 7, 0, 1]",/,2500,3000,0,8,252.7587515,1024,2,48000,-16,main,"[(0, -252), (178, -178), (252, 0), (178, 178), (0, 252), (-178, 178), (-252, 0), (-178, -178)]",[],27,odd,5,NA,268543,280079,280079,170478,169469,2549,192172,192172,2549,2549,178065,300664,2545,280079,298327,297470,297470,NA,848,study_X,0,7586,1,yes,1680
undefined,undefined,NA,NA,NA,7586,7586,black,no,legacy,legacy,legacy,0,green,"(0, 123, 0)",color,present,highProb,rectangular,swap,swap,same,same,red,"(177, 0, 0)",lowProb,lowProb5,rectangular,uniform,1,undefined,0,0.036458333,1,1,47.11979167,1,7,9047,0,0,0,0,0,0,0,0,32,0,1,0.036458333,47.11979167,7,9047,31,31,31,11/22/2018 13:30,Default description,yes,<openexp._canvas.legacy.legacy object at 0x04285C10>,<openexp._canvas.legacy.legacy object at 0x042996B0>,<openexp._canvas.legacy.legacy object at 0x042A0E10>,<openexp._canvas.legacy.legacy object at 0x042939D0>,<openexp._canvas.legacy.legacy object at 0x042D1070>,<openexp._canvas.legacy.legacy object at 0x042761F0>,<openexp._canvas.legacy.legacy object at 0x042A0910>,<openexp._canvas.legacy.legacy object at 0x0429D150>,75,SpatProbMultiple3.osexp,C:/Userdata/Michel/SpatProbMultiple3,no,mono,no,18,no,white,no,yes,0.09,98,1050,legacy,45,6,6,1,C:/Userdata/Michel/SpatProbMultiple3/beh/subject-3.csv,legacy,12,192,25,Jazzy James,3.1.9,yes,598477b2b83f69022949e7e9,47,green,rectangular,red,rectangular,0,\,1390,space,7586,7586,"(80, 80, 80)","(0, 123, 0)","(177, 0, 0)","(155, 155, 155)",2,legacy,experiment,"[2, 3, 4, 5, 6, 7, 0, 1]",\,2500,3000,0,8,252.7587515,1024,2,48000,-16,main,"[(0, -252), (178, -178), (252, 0), (178, 178), (0, 252), (-178, 178), (-252, 0), (-178, -178)]",[],27,odd,0,NA,268543,280079,280079,170478,169469,2549,192172,192172,2549,2549,178065,303360,2545,280079,301966,301109,301109,NA,848,study_X,0,7586,1,yes,1680
undefined,undefined,NA,NA,NA,7586,7586,black,no,legacy,legacy,legacy,0,green,"(0, 123, 0)",color,present,highProb,circular,same,swap,same,swap,red,"(177, 0, 0)",lowProb,lowProb4,circular,uniform,1,undefined,0,0.041666667,1,1,52.86979167,1,8,10151,0,0,0,0,0,0,0,0,33,0,1,0.041666667,52.86979167,8,10151,32,32,32,11/22/2018 13:30,Default description,yes,<openexp._canvas.legacy.legacy object at 0x04285C10>,<openexp._canvas.legacy.legacy object at 0x042996B0>,<openexp._canvas.legacy.legacy object at 0x042A0E10>,<openexp._canvas.legacy.legacy object at 0x042939D0>,<openexp._canvas.legacy.legacy object at 0x042D1070>,<openexp._canvas.legacy.legacy object at 0x042761F0>,<openexp._canvas.legacy.legacy object at 0x04285EF0>,<openexp._canvas.legacy.legacy object at 0x0429D150>,75,SpatProbMultiple3.osexp,C:/Userdata/Michel/SpatProbMultiple3,no,mono,no,18,no,white,no,yes,0.09,98,1050,legacy,45,7,7,1,C:/Userdata/Michel/SpatProbMultiple3/beh/subject-3.csv,legacy,12,192,25,Jazzy James,3.1.9,yes,598477b2b83f69022949e7e9,47,green,circular,red,circular,0,\,1104,space,7586,7586,"(80, 80, 80)","(0, 123, 0)","(177, 0, 0)","(155, 155, 155)",2,legacy,experiment,"[2, 3, 4, 5, 6, 7, 0, 1]",\,2500,3000,0,8,252.7587515,1024,2,48000,-16,main,"[(0, -252), (178, -178), (252, 0), (178, 178), (0, 252), (-178, 178), (-252, 0), (-178, -178)]",[],27,odd,7,NA,268543,280079,280079,170478,169469,2549,192172,192172,2549,2549,178065,305752,2545,280079,304645,303788,303788,NA,848,study_X,0,7586,1,yes,1680
undefined,undefined,NA,NA,NA,7586,7586,black,no,legacy,legacy,legacy,0,green,"(0, 123, 0)",shape,present,highProb,rectangular,same,swap,swap,same,green,"(0, 123, 0)",lowProb,lowProb1,circular,uniform,1,undefined,0,0.046875,1,1,59.89583333,1,9,11500,0,0,0,0,0,0,0,0,34,0,1,0.046875,59.89583333,9,11500,33,33,33,11/22/2018 13:30,Default description,yes,<openexp._canvas.legacy.legacy object at 0x04285C10>,<openexp._canvas.legacy.legacy object at 0x042996B0>,<openexp._canvas.legacy.legacy object at 0x042A0E10>,<openexp._canvas.legacy.legacy object at 0x042939D0>,<openexp._canvas.legacy.legacy object at 0x042D1070>,<openexp._canvas.legacy.legacy object at 0x042761F0>,<openexp._canvas.legacy.legacy object at 0x04299230>,<openexp._canvas.legacy.legacy object at 0x0429D150>,75,SpatProbMultiple3.osexp,C:/Userdata/Michel/SpatProbMultiple3,no,mono,no,18,no,white,no,yes,0.09,98,1050,legacy,45,8,8,1,C:/Userdata/Michel/SpatProbMultiple3/beh/subject-3.csv,legacy,12,192,25,Jazzy James,3.1.9,yes,598477b2b83f69022949e7e9,47,green,rectangular,green,circular,0,\,1349,space,7586,7586,"(80, 80, 80)","(0, 123, 0)","(177, 0, 0)","(155, 155, 155)",2,legacy,experiment,"[2, 3, 4, 5, 6, 7, 0, 1]",\,2500,3000,0,8,252.7587515,1024,2,48000,-16,main,"[(0, -252), (178, -178), (252, 0), (178, 178), (0, 252), (-178, 178), (-252, 0), (-178, -178)]",[],27,odd,3,NA,268543,280079,280079,170478,169469,2549,192172,192172,2549,2549,178065,308448,2545,280079,307096,306239,306239,NA,848,study_X,0,7586,1,yes,1680
undefined,undefined,NA,NA,NA,7586,7586,black,no,legacy,legacy,legacy,0,green,"(0, 123, 0)",color,present,highProb,rectangular,same,same,swap,swap,red,"(177, 0, 0)",highProbShape,highProbShape,rectangular,uniform,1,undefined,0,0.052083333,1,1,67.56770833,1,10,12973,0,0,0,0,0,0,0,0,35,0,1,0.052083333,67.56770833,10,12973,34,34,34,11/22/2018 13:30,Default description,yes,<openexp._canvas.legacy.legacy object at 0x04285C10>,<openexp._canvas.legacy.legacy object at 0x042996B0>,<openexp._canvas.legacy.legacy object at 0x042A0E10>,<openexp._canvas.legacy.legacy object at 0x042939D0>,<openexp._canvas.legacy.legacy object at 0x042D1070>,<openexp._canvas.legacy.legacy object at 0x042761F0>,<openexp._canvas.legacy.legacy object at 0x042A0DB0>,<openexp._canvas.legacy.legacy object at 0x0429D150>,75,SpatProbMultiple3.osexp,C:/Userdata/Michel/SpatProbMultiple3,no,mono,no,18,no,white,no,yes,0.09,98,1050,legacy,45,9,9,1,C:/Userdata/Michel/SpatProbMultiple3/beh/subject-3.csv,legacy,12,192,25,Jazzy James,3.1.9,yes,598477b2b83f69022949e7e9,47,green,rectangular,red,rectangular,0,\,1473,space,7586,7586,"(80, 80, 80)","(0, 123, 0)","(177, 0, 0)","(155, 155, 155)",2,legacy,experiment,"[2, 3, 4, 5, 6, 7, 0, 1]",\,2500,3000,0,8,252.7587515,1024,2,48000,-16,main,"[(0, -252), (178, -178), (252, 0), (178, 178), (0, 252), (-178, 178), (-252, 0), (-178, -178)]",[],27,odd,6,NA,268543,280079,280079,170478,169469,2549,192172,192172,2549,2549,178065,311192,2545,280079,309716,308859,308859,NA,848,study_X,0,7586,1,yes,1680
undefined,undefined,NA,NA,NA,7586,7586,black,no,legacy,legacy,legacy,0,red,"(177, 0, 0)",color,present,lowProb3,circular,swap,swap,swap,swap,green,"(0, 123, 0)",highProbColor,highProbColor,circular,uniform,0,undefined,0,0.052083333,1,1,80.58854167,1,10,15473,0,0,0,0,0,0,0,0,36,0,1,0.052083333,80.58854167,10,15473,35,35,35,11/22/2018 13:30,Default description,yes,<openexp._canvas.legacy.legacy object at 0x04285C10>,<openexp._canvas.legacy.legacy object at 0x042996B0>,<openexp._canvas.legacy.legacy object at 0x042A0E10>,<openexp._canvas.legacy.legacy object at 0x042939D0>,<openexp._canvas.legacy.legacy object at 0x042D1070>,<openexp._canvas.legacy.legacy object at 0x042761F0>,<openexp._canvas.legacy.legacy object at 0x04283ED0>,<openexp._canvas.legacy.legacy object at 0x0429D150>,75,SpatProbMultiple3.osexp,C:/Userdata/Michel/SpatProbMultiple3,no,mono,no,18,no,white,no,yes,0.09,98,1050,legacy,315,10,10,1,C:/Userdata/Michel/SpatProbMultiple3/beh/subject-3.csv,legacy,12,192,25,Jazzy James,3.1.9,yes,598477b2b83f69022949e7e9,47,red,circular,green,circular,0,None,2500,space,7586,7586,"(80, 80, 80)","(0, 123, 0)","(177, 0, 0)","(155, 155, 155)",2,legacy,experiment,"[2, 3, 4, 5, 6, 7, 0, 1]",/,2500,3000,0,8,252.7587515,1024,2,48000,-16,main,"[(0, -252), (178, -178), (252, 0), (178, 178), (0, 252), (-178, 178), (-252, 0), (-178, -178)]",[],27,odd,2,NA,268543,280079,280079,170478,169469,2549,192172,192172,2549,2549,178065,314988,2545,280079,312485,311628,311628,NA,848,study_X,0,7586,1,yes,1680
undefined,undefined,NA,NA,NA,7586,7586,black,no,legacy,legacy,legacy,0,green,"(0, 123, 0)",color,absent,highProb,rectangular,swap,swap,same,swap,green,"(0, 123, 0)",lowProb,lowProb5,rectangular,uniform,1,undefined,0,0.057291667,1,1,86.25,1,11,16560,0,0,0,0,0,0,0,0,37,0,1,0.057291667,86.25,11,16560,36,36,36,11/22/2018 13:30,Default description,yes,<openexp._canvas.legacy.legacy object at 0x04285C10>,<openexp._canvas.legacy.legacy object at 0x042996B0>,<openexp._canvas.legacy.legacy object at 0x042A0E10>,<openexp._canvas.legacy.legacy object at 0x042939D0>,<openexp._canvas.legacy.legacy object at 0x042D1070>,<openexp._canvas.legacy.legacy object at 0x042761F0>,<openexp._canvas.legacy.legacy object at 0x047CFBD0>,<openexp._canvas.legacy.legacy object at 0x0429D150>,75,SpatProbMultiple3.osexp,C:/Userdata/Michel/SpatProbMultiple3,no,mono,no,18,no,white,no,yes,0.09,98,1050,legacy,315,11,11,1,C:/Userdata/Michel/SpatProbMultiple3/beh/subject-3.csv,legacy,12,192,25,Jazzy James,3.1.9,yes,598477b2b83f69022949e7e9,47,green,rectangular,green,rectangular,0,/,1087,space,7586,7586,"(80, 80, 80)","(0, 123, 0)","(177, 0, 0)","(155, 155, 155)",2,legacy,experiment,"[2, 3, 4, 5, 6, 7, 0, 1]",/,2500,3000,0,8,252.7587515,1024,2,48000,-16,main,"[(0, -252), (178, -178), (252, 0), (178, 178), (0, 252), (-178, 178), (-252, 0), (-178, -178)]",[],27,odd,0,NA,268543,280079,280079,170478,169469,2549,192172,192172,2549,2549,178065,317376,2545,280079,316285,315428,315428,NA,848,study_X,0,7586,1,yes,1680
undefined,undefined,NA,NA,NA,7586,7586,black,no,legacy,legacy,legacy,0,green,"(0, 123, 0)",shape,present,highProb,rectangular,same,same,same,swap,green,"(0, 123, 0)",lowProb,lowProb2,circular,uniform,1,undefined,0,0.0625,1,1,92.34895833,1,12,17731,0,0,0,0,0,0,0,0,38,0,1,0.0625,92.34895833,12,17731,37,37,37,11/22/2018 13:30,Default description,yes,<openexp._canvas.legacy.legacy object at 0x04285C10>,<openexp._canvas.legacy.legacy object at 0x042996B0>,<openexp._canvas.legacy.legacy object at 0x042A0E10>,<openexp._canvas.legacy.legacy object at 0x042939D0>,<openexp._canvas.legacy.legacy object at 0x042D1070>,<openexp._canvas.legacy.legacy object at 0x042761F0>,<openexp._canvas.legacy.legacy object at 0x042A00D0>,<openexp._canvas.legacy.legacy object at 0x0429D150>,75,SpatProbMultiple3.osexp,C:/Userdata/Michel/SpatProbMultiple3,no,mono,no,18,no,white,no,yes,0.09,98,1050,legacy,315,12,12,1,C:/Userdata/Michel/SpatProbMultiple3/beh/subject-3.csv,legacy,12,192,25,Jazzy James,3.1.9,yes,598477b2b83f69022949e7e9,47,green,rectangular,green,circular,0,/,1171,space,7586,7586,"(80, 80, 80)","(0, 123, 0)","(177, 0, 0)","(155, 155, 155)",2,legacy,experiment,"[2, 3, 4, 5, 6, 7, 0, 1]",/,2500,3000,0,8,252.7587515,1024,2,48000,-16,main,"[(0, -252), (178, -178), (252, 0), (178, 178), (0, 252), (-178, 178), (-252, 0), (-178, -178)]",[],27,odd,4,NA,268543,280079,280079,170478,169469,2549,192172,192172,2549,2549,178065,319856,2545,280079,318681,317824,317824,NA,848,study_X,0,7586,1,yes,1680
undefined,undefined,NA,NA,NA,7586,7586,black,no,legacy,legacy,legacy,0,red,"(177, 0, 0)",shape,present,highProb,circular,swap,swap,swap,swap,red,"(177, 0, 0)",highProbColor,highProbColor,rectangular,uniform,1,undefined,0,0.067708333,1,1,104.0260417,1,13,19973,0,0,0,0,0,0,0,0,39,0,1,0.067708333,104.0260417,13,19973,38,38,38,11/22/2018 13:30,Default description,yes,<openexp._canvas.legacy.legacy object at 0x04285C10>,<openexp._canvas.legacy.legacy object at 0x042996B0>,<openexp._canvas.legacy.legacy object at 0x042A0E10>,<openexp._canvas.legacy.legacy object at 0x042939D0>,<openexp._canvas.legacy.legacy object at 0x042D1070>,<openexp._canvas.legacy.legacy object at 0x042761F0>,<openexp._canvas.legacy.legacy object at 0x0429D190>,<openexp._canvas.legacy.legacy object at 0x0429D150>,75,SpatProbMultiple3.osexp,C:/Userdata/Michel/SpatProbMultiple3,no,mono,no,18,no,white,no,yes,0.09,98,1050,legacy,45,13,13,1,C:/Userdata/Michel/SpatProbMultiple3/beh/subject-3.csv,legacy,12,192,25,Jazzy James,3.1.9,yes,598477b2b83f69022949e7e9,47,red,circular,red,rectangular,0,\,2242,space,7586,7586,"(80, 80, 80)","(0, 123, 0)","(177, 0, 0)","(155, 155, 155)",2,legacy,experiment,"[2, 3, 4, 5, 6, 7, 0, 1]",\,2500,3000,0,8,252.7587515,1024,2,48000,-16,main,"[(0, -252), (178, -178), (252, 0), (178, 178), (0, 252), (-178, 178), (-252, 0), (-178, -178)]",[],27,odd,2,NA,268543,280079,280079,170478,169469,2549,192172,192172,2549,2549,178065,323376,2545,280079,321130,320273,320273,NA,848,study_X,0,7586,1,yes,1680
undefined,undefined,NA,NA,NA,7586,7586,black,no,legacy,legacy,legacy,0,red,"(177, 0, 0)",color,present,lowProb2,rectangular,same,swap,swap,same,green,"(0, 123, 0)",highProbColor,highProbColor,rectangular,uniform,1,undefined,0,0.072916667,1,1,114.46875,1,14,21978,0,0,0,0,0,0,0,0,40,0,1,0.072916667,114.46875,14,21978,39,39,39,11/22/2018 13:30,Default description,yes,<openexp._canvas.legacy.legacy object at 0x04285C10>,<openexp._canvas.legacy.legacy object at 0x042996B0>,<openexp._canvas.legacy.legacy object at 0x042A0E10>,<openexp._canvas.legacy.legacy object at 0x042939D0>,<openexp._canvas.legacy.legacy object at 0x042D1070>,<openexp._canvas.legacy.legacy object at 0x042761F0>,<openexp._canvas.legacy.legacy object at 0x047CFD90>,<openexp._canvas.legacy.legacy object at 0x0429D150>,75,SpatProbMultiple3.osexp,C:/Userdata/Michel/SpatProbMultiple3,no,mono,no,18,no,white,no,yes,0.09,98,1050,legacy,45,14,14,1,C:/Userdata/Michel/SpatProbMultiple3/beh/subject-3.csv,legacy,12,192,25,Jazzy James,3.1.9,yes,598477b2b83f69022949e7e9,47,red,rectangular,green,rectangular,0,\,2005,space,7586,7586,"(80, 80, 80)","(0, 123, 0)","(177, 0, 0)","(155, 155, 155)",2,legacy,experiment,"[2, 3, 4, 5, 6, 7, 0, 1]",\,2500,3000,0,8,252.7587515,1024,2,48000,-16,main,"[(0, -252), (178, -178), (252, 0), (178, 178), (0, 252), (-178, 178), (-252, 0), (-178, -178)]",[],27,odd,2,NA,268543,280079,280079,170478,169469,2549,192172,192172,2549,2549,178065,326656,2545,280079,324649,323792,323792,NA,848,study_X,0,7586,1,yes,1680
undefined,undefined,NA,NA,NA,7586,7586,black,no,legacy,legacy,legacy,0,green,"(0, 123, 0)",color,present,highProbOther,circular,swap,swap,swap,swap,red,"(177, 0, 0)",lowProb,lowProb4,circular,uniform,1,undefined,0,0.078125,1,1,121.765625,1,15,23379,0,0,0,0,0,0,0,0,41,0,1,0.078125,121.765625,15,23379,40,40,40,11/22/2018 13:30,Default description,yes,<openexp._canvas.legacy.legacy object at 0x04285C10>,<openexp._canvas.legacy.legacy object at 0x042996B0>,<openexp._canvas.legacy.legacy object at 0x042A0E10>,<openexp._canvas.legacy.legacy object at 0x042939D0>,<openexp._canvas.legacy.legacy object at 0x042D1070>,<openexp._canvas.legacy.legacy object at 0x042761F0>,<openexp._canvas.legacy.legacy object at 0x042A03D0>,<openexp._canvas.legacy.legacy object at 0x0429D150>,75,SpatProbMultiple3.osexp,C:/Userdata/Michel/SpatProbMultiple3,no,mono,no,18,no,white,no,yes,0.09,98,1050,legacy,315,15,15,1,C:/Userdata/Michel/SpatProbMultiple3/beh/subject-3.csv,legacy,12,192,25,Jazzy James,3.1.9,yes,598477b2b83f69022949e7e9,47,green,circular,red,circular,0,/,1401,space,7586,7586,"(80, 80, 80)","(0, 123, 0)","(177, 0, 0)","(155, 155, 155)",2,legacy,experiment,"[2, 3, 4, 5, 6, 7, 0, 1]",/,2500,3000,0,8,252.7587515,1024,2,48000,-16,main,"[(0, -252), (178, -178), (252, 0), (178, 178), (0, 252), (-178, 178), (-252, 0), (-178, -178)]",[],27,odd,7,NA,268543,280079,280079,170478,169469,2549,192172,192172,2549,2549,178065,329384,2545,280079,327980,327123,327123,NA,848,study_X,0,7586,1,yes,1680
undefined,undefined,NA,NA,NA,7586,7586,black,no,legacy,legacy,legacy,0,green,"(0, 123, 0)",shape,present,lowProb3,circular,same,same,swap,swap,green,"(0, 123, 0)",lowProb,lowProb5,rectangular,uniform,1,undefined,0,0.083333333,1,1,128.5052083,1,16,24673,0,0,0,0,0,0,0,0,42,0,1,0.083333333,128.5052083,16,24673,41,41,41,11/22/2018 13:30,Default description,yes,<openexp._canvas.legacy.legacy object at 0x04285C10>,<openexp._canvas.legacy.legacy object at 0x042996B0>,<openexp._canvas.legacy.legacy object at 0x042A0E10>,<openexp._canvas.legacy.legacy object at 0x042939D0>,<openexp._canvas.legacy.legacy object at 0x042D1070>,<openexp._canvas.legacy.legacy object at 0x042761F0>,<openexp._canvas.legacy.legacy object at 0x0429D630>,<openexp._canvas.legacy.legacy object at 0x0429D150>,75,SpatProbMultiple3.osexp,C:/Userdata/Michel/SpatProbMultiple3,no,mono,no,18,no,white,no,yes,0.09,98,1050,legacy,315,16,16,1,C:/Userdata/Michel/SpatProbMultiple3/beh/subject-3.csv,legacy,12,192,25,Jazzy James,3.1.9,yes,598477b2b83f69022949e7e9,47,green,circular,green,rectangular,0,/,1294,space,7586,7586,"(80, 80, 80)","(0, 123, 0)","(177, 0, 0)","(155, 155, 155)",2,legacy,experiment,"[2, 3, 4, 5, 6, 7, 0, 1]",/,2500,3000,0,8,252.7587515,1024,2,48000,-16,main,"[(0, -252), (178, -178), (252, 0), (178, 178), (0, 252), (-178, 178), (-252, 0), (-178, -178)]",[],27,odd,0,NA,268543,280079,280079,170478,169469,2549,192172,192172,2549,2549,178065,331952,2545,280079,330655,329798,329798,NA,848,study_X,0,7586,1,yes,1680
undefined,undefined,NA,NA,NA,7586,7586,black,no,legacy,legacy,legacy,0,green,"(0, 123, 0)",color,present,highProb,circular,same,same,swap,swap,red,"(177, 0, 0)",lowProb,lowProb4,circular,uniform,1,undefined,0,0.088541667,1,1,138.5885417,1,17,26609,0,0,0,0,0,0,0,0,43,0,1,0.088541667,138.5885417,17,26609,42,42,42,11/22/2018 13:30,Default description,yes,<openexp._canvas.legacy.legacy object at 0x04285C10>,<openexp._canvas.legacy.legacy object at 0x042996B0>,<openexp._canvas.legacy.legacy object at 0x042A0E10>,<openexp._canvas.legacy.legacy object at 0x042939D0>,<openexp._canvas.legacy.legacy object at 0x042D1070>,<openexp._canvas.legacy.legacy object at 0x042761F0>,<openexp._canvas.legacy.legacy object at 0x0429D550>,<openexp._canvas.legacy.legacy object at 0x0429D150>,75,SpatProbMultiple3.osexp,C:/Userdata/Michel/SpatProbMultiple3,no,mono,no,18,no,white,no,yes,0.09,98,1050,legacy,45,17,17,1,C:/Userdata/Michel/SpatProbMultiple3/beh/subject-3.csv,legacy,12,192,25,Jazzy James,3.1.9,yes,598477b2b83f69022949e7e9,47,green,circular,red,circular,0,\,1936,space,7586,7586,"(80, 80, 80)","(0, 123, 0)","(177, 0, 0)","(155, 155, 155)",2,legacy,experiment,"[2, 3, 4, 5, 6, 7, 0, 1]",\,2500,3000,0,8,252.7587515,1024,2,48000,-16,main,"[(0, -252), (178, -178), (252, 0), (178, 178), (0, 252), (-178, 178), (-252, 0), (-178, -178)]",[],27,odd,7,NA,268543,280079,280079,170478,169469,2549,192172,192172,2549,2549,178065,335208,2545,280079,333268,332410,332411,NA,848,study_X,0,7586,1,yes,1680
undefined,undefined,NA,NA,NA,7586,7586,black,no,legacy,legacy,legacy,0,red,"(177, 0, 0)",color,present,highProb,circular,swap,same,swap,same,green,"(0, 123, 0)",lowProb,lowProb2,circular,uniform,1,undefined,0,0.09375,1,1,145.9479167,1,18,28022,0,0,0,0,0,0,0,0,44,0,1,0.09375,145.9479167,18,28022,43,43,43,11/22/2018 13:30,Default description,yes,<openexp._canvas.legacy.legacy object at 0x04285C10>,<openexp._canvas.legacy.legacy object at 0x042996B0>,<openexp._canvas.legacy.legacy object at 0x042A0E10>,<openexp._canvas.legacy.legacy object at 0x042939D0>,<openexp._canvas.legacy.legacy object at 0x042D1070>,<openexp._canvas.legacy.legacy object at 0x042761F0>,<openexp._canvas.legacy.legacy object at 0x042A06D0>,<openexp._canvas.legacy.legacy object at 0x0429D150>,75,SpatProbMultiple3.osexp,C:/Userdata/Michel/SpatProbMultiple3,no,mono,no,18,no,white,no,yes,0.09,98,1050,legacy,45,18,18,1,C:/Userdata/Michel/SpatProbMultiple3/beh/subject-3.csv,legacy,12,192,25,Jazzy James,3.1.9,yes,598477b2b83f69022949e7e9,47,red,circular,green,circular,0,\,1413,space,7586,7586,"(80, 80, 80)","(0, 123, 0)","(177, 0, 0)","(155, 155, 155)",2,legacy,experiment,"[2, 3, 4, 5, 6, 7, 0, 1]",\,2500,3000,0,8,252.7587515,1024,2,48000,-16,main,"[(0, -252), (178, -178), (252, 0), (178, 178), (0, 252), (-178, 178), (-252, 0), (-178, -178)]",[],27,odd,4,NA,268543,280079,280079,170478,169469,2549,192172,192172,2549,2549,178065,337920,2545,280079,336503,335645,335646,NA,848,study_X,0,7586,1,yes,1680
undefined,undefined,NA,NA,NA,7586,7586,black,no,legacy,legacy,legacy,0,green,"(0, 123, 0)",color,present,highProb,rectangular,swap,swap,swap,swap,red,"(177, 0, 0)",lowProb,lowProb4,rectangular,uniform,1,undefined,0,0.098958333,1,1,153.7604167,1,19,29522,0,0,0,0,0,0,0,0,45,0,1,0.098958333,153.7604167,19,29522,44,44,44,11/22/2018 13:30,Default description,yes,<openexp._canvas.legacy.legacy object at 0x04285C10>,<openexp._canvas.legacy.legacy object at 0x042996B0>,<openexp._canvas.legacy.legacy object at 0x042A0E10>,<openexp._canvas.legacy.legacy object at 0x042939D0>,<openexp._canvas.legacy.legacy object at 0x042D1070>,<openexp._canvas.legacy.legacy object at 0x042761F0>,<openexp._canvas.legacy.legacy object at 0x04283D30>,<openexp._canvas.legacy.legacy object at 0x0429D150>,75,SpatProbMultiple3.osexp,C:/Userdata/Michel/SpatProbMultiple3,no,mono,no,18,no,white,no,yes,0.09,98,1050,legacy,315,19,19,1,C:/Userdata/Michel/SpatProbMultiple3/beh/subject-3.csv,legacy,12,192,25,Jazzy James,3.1.9,yes,598477b2b83f69022949e7e9,47,green,rectangular,red,rectangular,0,/,1500,space,7586,7586,"(80, 80, 80)","(0, 123, 0)","(177, 0, 0)","(155, 155, 155)",2,legacy,experiment,"[2, 3, 4, 5, 6, 7, 0, 1]",/,2500,3000,0,8,252.7587515,1024,2,48000,-16,main,"[(0, -252), (178, -178), (252, 0), (178, 178), (0, 252), (-178, 178), (-252, 0), (-178, -178)]",[],27,odd,7,NA,268543,280079,280079,170478,169469,2549,192172,192172,2549,2549,178065,340703,2545,280079,339200,338343,338343,NA,848,study_X,0,7586,1,yes,1680
undefined,undefined,NA,NA,NA,7586,7586,black,no,legacy,legacy,legacy,0,green,"(0, 123, 0)",color,present,lowProb6,rectangular,same,same,same,same,red,"(177, 0, 0)",lowProb,lowProb2,rectangular,uniform,1,undefined,0,0.104166667,1,1,159.5572917,1,20,30635,0,0,0,0,0,0,0,0,46,0,1,0.104166667,159.5572917,20,30635,45,45,45,11/22/2018 13:30,Default description,yes,<openexp._canvas.legacy.legacy object at 0x04285C10>,<openexp._canvas.legacy.legacy object at 0x042996B0>,<openexp._canvas.legacy.legacy object at 0x042A0E10>,<openexp._canvas.legacy.legacy object at 0x042939D0>,<openexp._canvas.legacy.legacy object at 0x042D1070>,<openexp._canvas.legacy.legacy object at 0x042761F0>,<openexp._canvas.legacy.legacy object at 0x047CF150>,<openexp._canvas.legacy.legacy object at 0x0429D150>,75,SpatProbMultiple3.osexp,C:/Userdata/Michel/SpatProbMultiple3,no,mono,no,18,no,white,no,yes,0.09,98,1050,legacy,45,20,20,1,C:/Userdata/Michel/SpatProbMultiple3/beh/subject-3.csv,legacy,12,192,25,Jazzy James,3.1.9,yes,598477b2b83f69022949e7e9,47,green,rectangular,red,rectangular,0,\,1113,space,7586,7586,"(80, 80, 80)","(0, 123, 0)","(177, 0, 0)","(155, 155, 155)",2,legacy,experiment,"[2, 3, 4, 5, 6, 7, 0, 1]",\,2500,3000,0,8,252.7587515,1024,2,48000,-16,main,"[(0, -252), (178, -178), (252, 0), (178, 178), (0, 252), (-178, 178), (-252, 0), (-178, -178)]",[],27,odd,4,NA,268543,280079,280079,170478,169469,2549,192172,192172,2549,2549,178065,343088,2545,280079,341973,341116,341116,NA,848,study_X,0,7586,1,yes,1680
undefined,undefined,NA,NA,NA,7586,7586,black,no,legacy,legacy,legacy,0,red,"(177, 0, 0)",color,absent,lowProb1,rectangular,swap,same,same,same,red,"(177, 0, 0)",lowProb,lowProb4,rectangular,uniform,1,undefined,0,0.109375,1,1,165.0677083,1,21,31693,0,0,0,0,0,0,0,0,47,0,1,0.109375,165.0677083,21,31693,46,46,46,11/22/2018 13:30,Default description,yes,<openexp._canvas.legacy.legacy object at 0x04285C10>,<openexp._canvas.legacy.legacy object at 0x042996B0>,<openexp._canvas.legacy.legacy object at 0x042A0E10>,<openexp._canvas.legacy.legacy object at 0x042939D0>,<openexp._canvas.legacy.legacy object at 0x042D1070>,<openexp._canvas.legacy.legacy object at 0x042761F0>,<openexp._canvas.legacy.legacy object at 0x042A0B50>,<openexp._canvas.legacy.legacy object at 0x0429D150>,75,SpatProbMultiple3.osexp,C:/Userdata/Michel/SpatProbMultiple3,no,mono,no,18,no,white,no,yes,0.09,98,1050,legacy,315,21,21,1,C:/Userdata/Michel/SpatProbMultiple3/beh/subject-3.csv,legacy,12,192,25,Jazzy James,3.1.9,yes,598477b2b83f69022949e7e9,47,red,rectangular,red,rectangular,0,/,1058,space,7586,7586,"(80, 80, 80)","(0, 123, 0)","(177, 0, 0)","(155, 155, 155)",2,legacy,experiment,"[2, 3, 4, 5, 6, 7, 0, 1]",/,2500,3000,0,8,252.7587515,1024,2,48000,-16,main,"[(0, -252), (178, -178), (252, 0), (178, 178), (0, 252), (-178, 178), (-252, 0), (-178, -178)]",[],27,odd,7,NA,268543,280079,280079,170478,169469,2549,192172,192172,2549,2549,178065,345448,2545,280079,344388,343531,343531,NA,848,study_X,0,7586,1,yes,1680
undefined,undefined,NA,NA,NA,7586,7586,black,no,legacy,legacy,legacy,0,green,"(0, 123, 0)",shape,present,highProb,rectangular,swap,same,swap,swap,green,"(0, 123, 0)",lowProb,lowProb4,circular,uniform,1,undefined,0,0.114583333,1,1,170.6614583,1,22,32767,0,0,0,0,0,0,0,0,48,0,1,0.114583333,170.6614583,22,32767,47,47,47,11/22/2018 13:30,Default description,yes,<openexp._canvas.legacy.legacy object at 0x04285C10>,<openexp._canvas.legacy.legacy object at 0x042996B0>,<openexp._canvas.legacy.legacy object at 0x042A0E10>,<openexp._canvas.legacy.legacy object at 0x042939D0>,<openexp._canvas.legacy.legacy object at 0x042D1070>,<openexp._canvas.legacy.legacy object at 0x042761F0>,<openexp._canvas.legacy.legacy object at 0x04283D70>,<openexp._canvas.legacy.legacy object at 0x0429D150>,75,SpatProbMultiple3.osexp,C:/Userdata/Michel/SpatProbMultiple3,no,mono,no,18,no,white,no,yes,0.09,98,1050,legacy,45,22,22,1,C:/Userdata/Michel/SpatProbMultiple3/beh/subject-3.csv,legacy,12,192,25,Jazzy James,3.1.9,yes,598477b2b83f69022949e7e9,47,green,rectangular,green,circular,0,\,1074,space,7586,7586,"(80, 80, 80)","(0, 123, 0)","(177, 0, 0)","(155, 155, 155)",2,legacy,experiment,"[2, 3, 4, 5, 6, 7, 0, 1]",\,2500,3000,0,8,252.7587515,1024,2,48000,-16,main,"[(0, -252), (178, -178), (252, 0), (178, 178), (0, 252), (-178, 178), (-252, 0), (-178, -178)]",[],27,odd,7,NA,268543,280079,280079,170478,169469,2549,192172,192172,2549,2549,178065,347808,2545,280079,346732,345875,345875,NA,848,study_X,0,7586,1,yes,1680
undefined,undefined,NA,NA,NA,7586,7586,black,no,legacy,legacy,legacy,0,green,"(0, 123, 0)",color,present,highProb,circular,same,swap,swap,same,red,"(177, 0, 0)",lowProb,lowProb6,circular,uniform,1,undefined,0,0.119791667,1,1,176.2135417,1,23,33833,0,0,0,0,0,0,0,0,49,0,1,0.119791667,176.2135417,23,33833,48,48,48,11/22/2018 13:30,Default description,yes,<openexp._canvas.legacy.legacy object at 0x04285C10>,<openexp._canvas.legacy.legacy object at 0x042996B0>,<openexp._canvas.legacy.legacy object at 0x042A0E10>,<openexp._canvas.legacy.legacy object at 0x042939D0>,<openexp._canvas.legacy.legacy object at 0x042D1070>,<openexp._canvas.legacy.legacy object at 0x042761F0>,<openexp._canvas.legacy.legacy object at 0x04299830>,<openexp._canvas.legacy.legacy object at 0x0429D150>,75,SpatProbMultiple3.osexp,C:/Userdata/Michel/SpatProbMultiple3,no,mono,no,18,no,white,no,yes,0.09,98,1050,legacy,315,23,23,1,C:/Userdata/Michel/SpatProbMultiple3/beh/subject-3.csv,legacy,12,192,25,Jazzy James,3.1.9,yes,598477b2b83f69022949e7e9,47,green,circular,red,circular,0,/,1066,space,7586,7586,"(80, 80, 80)","(0, 123, 0)","(177, 0, 0)","(155, 155, 155)",2,legacy,experiment,"[2, 3, 4, 5, 6, 7, 0, 1]",/,2500,3000,0,8,252.7587515,1024,2,48000,-16,main,"[(0, -252), (178, -178), (252, 0), (178, 178), (0, 252), (-178, 178), (-252, 0), (-178, -178)]",[],27,odd,1,NA,268543,280079,280079,170478,169469,2549,192172,192172,2549,2549,178065,350200,2545,280079,349130,348273,348273,NA,848,study_X,0,7586,1,yes,1680
undefined,undefined,NA,NA,NA,7586,7586,black,no,legacy,legacy,legacy,0,red,"(177, 0, 0)",shape,present,lowProb5,rectangular,swap,swap,same,same,red,"(177, 0, 0)",highProbColor,highProbColor,circular,uniform,1,undefined,0,0.125,1,1,184.3697917,1,24,35399,0,0,0,0,0,0,0,0,50,0,1,0.125,184.3697917,24,35399,49,49,49,11/22/2018 13:30,Default description,yes,<openexp._canvas.legacy.legacy object at 0x04285C10>,<openexp._canvas.legacy.legacy object at 0x042996B0>,<openexp._canvas.legacy.legacy object at 0x042A0E10>,<openexp._canvas.legacy.legacy object at 0x042939D0>,<openexp._canvas.legacy.legacy object at 0x042D1070>,<openexp._canvas.legacy.legacy object at 0x042761F0>,<openexp._canvas.legacy.legacy object at 0x042A09F0>,<openexp._canvas.legacy.legacy object at 0x0429D150>,75,SpatProbMultiple3.osexp,C:/Userdata/Michel/SpatProbMultiple3,no,mono,no,18,no,white,no,yes,0.09,98,1050,legacy,315,24,24,1,C:/Userdata/Michel/SpatProbMultiple3/beh/subject-3.csv,legacy,12,192,25,Jazzy James,3.1.9,yes,598477b2b83f69022949e7e9,47,red,rectangular,red,circular,0,/,1566,space,7586,7586,"(80, 80, 80)","(0, 123, 0)","(177, 0, 0)","(155, 155, 155)",2,legacy,experiment,"[2, 3, 4, 5, 6, 7, 0, 1]",/,2500,3000,0,8,252.7587515,1024,2,48000,-16,main,"[(0, -252), (178, -178), (252, 0), (178, 178), (0, 252), (-178, 178), (-252, 0), (-178, -178)]",[],27,odd,2,NA,268543,280079,280079,170478,169469,2549,192172,192172,2549,2549,178065,353072,2545,280079,351502,350645,350645,NA,848,study_X,0,7586,1,yes,1680
undefined,undefined,NA,NA,NA,7586,7586,black,no,legacy,legacy,legacy,0,red,"(177, 0, 0)",shape,present,highProb,rectangular,same,same,same,same,red,"(177, 0, 0)",lowProb,lowProb2,circular,uniform,1,undefined,0,0.130208333,1,1,189.6458333,1,25,36412,0,0,0,0,0,0,0,0,51,0,1,0.130208333,189.6458333,25,36412,50,50,50,11/22/2018 13:30,Default description,yes,<openexp._canvas.legacy.legacy object at 0x04285C10>,<openexp._canvas.legacy.legacy object at 0x042996B0>,<openexp._canvas.legacy.legacy object at 0x042A0E10>,<openexp._canvas.legacy.legacy object at 0x042939D0>,<openexp._canvas.legacy.legacy object at 0x042D1070>,<openexp._canvas.legacy.legacy object at 0x042761F0>,<openexp._canvas.legacy.legacy object at 0x04283F10>,<openexp._canvas.legacy.legacy object at 0x0429D150>,75,SpatProbMultiple3.osexp,C:/Userdata/Michel/SpatProbMultiple3,no,mono,no,18,no,white,no,yes,0.09,98,1050,legacy,45,25,25,1,C:/Userdata/Michel/SpatProbMultiple3/beh/subject-3.csv,legacy,12,192,25,Jazzy James,3.1.9,yes,598477b2b83f69022949e7e9,47,red,rectangular,red,circular,0,\,1013,space,7586,7586,"(80, 80, 80)","(0, 123, 0)","(177, 0, 0)","(155, 155, 155)",2,legacy,experiment,"[2, 3, 4, 5, 6, 7, 0, 1]",\,2500,3000,0,8,252.7587515,1024,2,48000,-16,main,"[(0, -252), (178, -178), (252, 0), (178, 178), (0, 252), (-178, 178), (-252, 0), (-178, -178)]",[],27,odd,4,NA,268543,280079,280079,170478,169469,2549,192172,192172,2549,2549,178065,355391,2545,280079,354376,353519,353519,NA,848,study_X,0,7586,1,yes,1680
undefined,undefined,NA,NA,NA,7586,7586,black,no,legacy,legacy,legacy,0,red,"(177, 0, 0)",shape,present,lowProb4,rectangular,same,same,same,same,red,"(177, 0, 0)",highProbShape,highProbShape,circular,uniform,1,undefined,0,0.135416667,1,1,197.0208333,1,26,37828,0,0,0,0,0,0,0,0,52,0,1,0.135416667,197.0208333,26,37828,51,51,51,11/22/2018 13:30,Default description,yes,<openexp._canvas.legacy.legacy object at 0x04285C10>,<openexp._canvas.legacy.legacy object at 0x042996B0>,<openexp._canvas.legacy.legacy object at 0x042A0E10>,<openexp._canvas.legacy.legacy object at 0x042939D0>,<openexp._canvas.legacy.legacy object at 0x042D1070>,<openexp._canvas.legacy.legacy object at 0x042761F0>,<openexp._canvas.legacy.legacy object at 0x042990F0>,<openexp._canvas.legacy.legacy object at 0x0429D150>,75,SpatProbMultiple3.osexp,C:/Userdata/Michel/SpatProbMultiple3,no,mono,no,18,no,white,no,yes,0.09,98,1050,legacy,315,26,26,1,C:/Userdata/Michel/SpatProbMultiple3/beh/subject-3.csv,legacy,12,192,25,Jazzy James,3.1.9,yes,598477b2b83f69022949e7e9,47,red,rectangular,red,circular,0,/,1416,space,7586,7586,"(80, 80, 80)","(0, 123, 0)","(177, 0, 0)","(155, 155, 155)",2,legacy,experiment,"[2, 3, 4, 5, 6, 7, 0, 1]",/,2500,3000,0,8,252.7587515,1024,2,48000,-16,main,"[(0, -252), (178, -178), (252, 0), (178, 178), (0, 252), (-178, 178), (-252, 0), (-178, -178)]",[],27,odd,6,NA,268543,280079,280079,170478,169469,2549,192172,192172,2549,2549,178065,358079,2545,280079,356661,355804,355804,NA,848,study_X,0,7586,1,yes,1680
undefined,undefined,NA,NA,NA,7586,7586,black,no,legacy,legacy,legacy,0,green,"(0, 123, 0)",shape,present,lowProb2,rectangular,swap,same,swap,same,green,"(0, 123, 0)",lowProb,lowProb4,circular,uniform,0,undefined,0,0.135416667,1,1,210.0416667,1,26,40328,0,0,0,0,0,0,0,0,53,0,1,0.135416667,210.0416667,26,40328,52,52,52,11/22/2018 13:30,Default description,yes,<openexp._canvas.legacy.legacy object at 0x04285C10>,<openexp._canvas.legacy.legacy object at 0x042996B0>,<openexp._canvas.legacy.legacy object at 0x042A0E10>,<openexp._canvas.legacy.legacy object at 0x042939D0>,<openexp._canvas.legacy.legacy object at 0x042D1070>,<openexp._canvas.legacy.legacy object at 0x042761F0>,<openexp._canvas.legacy.legacy object at 0x04284E10>,<openexp._canvas.legacy.legacy object at 0x0429D150>,75,SpatProbMultiple3.osexp,C:/Userdata/Michel/SpatProbMultiple3,no,mono,no,18,no,white,no,yes,0.09,98,1050,legacy,315,27,27,1,C:/Userdata/Michel/SpatProbMultiple3/beh/subject-3.csv,legacy,12,192,25,Jazzy James,3.1.9,yes,598477b2b83f69022949e7e9,47,green,rectangular,green,circular,0,None,2500,space,7586,7586,"(80, 80, 80)","(0, 123, 0)","(177, 0, 0)","(155, 155, 155)",2,legacy,experiment,"[2, 3, 4, 5, 6, 7, 0, 1]",/,2500,3000,0,8,252.7587515,1024,2,48000,-16,main,"[(0, -252), (178, -178), (252, 0), (178, 178), (0, 252), (-178, 178), (-252, 0), (-178, -178)]",[],27,odd,7,NA,268543,280079,280079,170478,169469,2549,192172,192172,2549,2549,178065,361867,2545,280079,359364,358507,358507,NA,848,study_X,0,7586,1,yes,1680
undefined,undefined,NA,NA,NA,7586,7586,black,no,legacy,legacy,legacy,0,red,"(177, 0, 0)",color,present,lowProb4,circular,swap,swap,same,same,green,"(0, 123, 0)",lowProb,lowProb6,circular,uniform,1,undefined,0,0.140625,1,1,215.3125,1,27,41340,0,0,0,0,0,0,0,0,54,0,1,0.140625,215.3125,27,41340,53,53,53,11/22/2018 13:30,Default description,yes,<openexp._canvas.legacy.legacy object at 0x04285C10>,<openexp._canvas.legacy.legacy object at 0x042996B0>,<openexp._canvas.legacy.legacy object at 0x042A0E10>,<openexp._canvas.legacy.legacy object at 0x042939D0>,<openexp._canvas.legacy.legacy object at 0x042D1070>,<openexp._canvas.legacy.legacy object at 0x042761F0>,<openexp._canvas.legacy.legacy object at 0x0427CC50>,<openexp._canvas.legacy.legacy object at 0x0429D150>,75,SpatProbMultiple3.osexp,C:/Userdata/Michel/SpatProbMultiple3,no,mono,no,18,no,white,no,yes,0.09,98,1050,legacy,315,28,28,1,C:/Userdata/Michel/SpatProbMultiple3/beh/subject-3.csv,legacy,12,192,25,Jazzy James,3.1.9,yes,598477b2b83f69022949e7e9,47,red,circular,green,circular,0,/,1012,space,7586,7586,"(80, 80, 80)","(0, 123, 0)","(177, 0, 0)","(155, 155, 155)",2,legacy,experiment,"[2, 3, 4, 5, 6, 7, 0, 1]",/,2500,3000,0,8,252.7587515,1024,2,48000,-16,main,"[(0, -252), (178, -178), (252, 0), (178, 178), (0, 252), (-178, 178), (-252, 0), (-178, -178)]",[],27,odd,1,NA,268543,280079,280079,170478,169469,2549,192172,192172,2549,2549,178065,364192,2545,280079,363176,362319,362319,NA,848,study_X,0,7586,1,yes,1680
undefined,undefined,NA,NA,NA,7586,7586,black,no,legacy,legacy,legacy,0,red,"(177, 0, 0)",shape,present,highProb,circular,same,same,swap,swap,red,"(177, 0, 0)",lowProb,lowProb4,rectangular,uniform,1,undefined,0,0.145833333,1,1,219.5729167,1,28,42158,0,0,0,0,0,0,0,0,55,0,1,0.145833333,219.5729167,28,42158,54,54,54,11/22/2018 13:30,Default description,yes,<openexp._canvas.legacy.legacy object at 0x04285C10>,<openexp._canvas.legacy.legacy object at 0x042996B0>,<openexp._canvas.legacy.legacy object at 0x042A0E10>,<openexp._canvas.legacy.legacy object at 0x042939D0>,<openexp._canvas.legacy.legacy object at 0x042D1070>,<openexp._canvas.legacy.legacy object at 0x042761F0>,<openexp._canvas.legacy.legacy object at 0x047CFCF0>,<openexp._canvas.legacy.legacy object at 0x0429D150>,75,SpatProbMultiple3.osexp,C:/Userdata/Michel/SpatProbMultiple3,no,mono,no,18,no,white,no,yes,0.09,98,1050,legacy,45,29,29,1,C:/Userdata/Michel/SpatProbMultiple3/beh/subject-3.csv,legacy,12,192,25,Jazzy James,3.1.9,yes,598477b2b83f69022949e7e9,47,red,circular,red,rectangular,0,\,818,space,7586,7586,"(80, 80, 80)","(0, 123, 0)","(177, 0, 0)","(155, 155, 155)",2,legacy,experiment,"[2, 3, 4, 5, 6, 7, 0, 1]",\,2500,3000,0,8,252.7587515,1024,2,48000,-16,main,"[(0, -252), (178, -178), (252, 0), (178, 178), (0, 252), (-178, 178), (-252, 0), (-178, -178)]",[],27,odd,7,NA,268543,280079,280079,170478,169469,2549,192172,192172,2549,2549,178065,366304,2545,280079,365482,364624,364624,NA,848,study_X,0,7586,1,yes,1680
undefined,undefined,NA,NA,NA,7586,7586,black,no,legacy,legacy,legacy,0,green,"(0, 123, 0)",shape,present,lowProb2,circular,swap,same,swap,same,green,"(0, 123, 0)",lowProb,lowProb5,rectangular,uniform,1,undefined,0,0.151041667,1,1,225.8958333,1,29,43372,0,0,0,0,0,0,0,0,56,0,1,0.151041667,225.8958333,29,43372,55,55,55,11/22/2018 13:30,Default description,yes,<openexp._canvas.legacy.legacy object at 0x04285C10>,<openexp._canvas.legacy.legacy object at 0x042996B0>,<openexp._canvas.legacy.legacy object at 0x042A0E10>,<openexp._canvas.legacy.legacy object at 0x042939D0>,<openexp._canvas.legacy.legacy object at 0x042D1070>,<openexp._canvas.legacy.legacy object at 0x042761F0>,<openexp._canvas.legacy.legacy object at 0x0427CA50>,<openexp._canvas.legacy.legacy object at 0x0429D150>,75,SpatProbMultiple3.osexp,C:/Userdata/Michel/SpatProbMultiple3,no,mono,no,18,no,white,no,yes,0.09,98,1050,legacy,45,30,30,1,C:/Userdata/Michel/SpatProbMultiple3/beh/subject-3.csv,legacy,12,192,25,Jazzy James,3.1.9,yes,598477b2b83f69022949e7e9,47,green,circular,green,rectangular,0,\,1214,space,7586,7586,"(80, 80, 80)","(0, 123, 0)","(177, 0, 0)","(155, 155, 155)",2,legacy,experiment,"[2, 3, 4, 5, 6, 7, 0, 1]",\,2500,3000,0,8,252.7587515,1024,2,48000,-16,main,"[(0, -252), (178, -178), (252, 0), (178, 178), (0, 252), (-178, 178), (-252, 0), (-178, -178)]",[],27,odd,0,NA,268543,280079,280079,170478,169469,2549,192172,192172,2549,2549,178065,368824,2545,280079,367606,366749,366749,NA,848,study_X,0,7586,1,yes,1680
undefined,undefined,NA,NA,NA,7586,7586,black,no,legacy,legacy,legacy,0,green,"(0, 123, 0)",color,present,lowProb1,rectangular,same,swap,swap,same,red,"(177, 0, 0)",highProbShape,highProbShape,rectangular,uniform,1,undefined,0,0.15625,1,1,232.03125,1,30,44550,0,0,0,0,0,0,0,0,57,0,1,0.15625,232.03125,30,44550,56,56,56,11/22/2018 13:30,Default description,yes,<openexp._canvas.legacy.legacy object at 0x04285C10>,<openexp._canvas.legacy.legacy object at 0x042996B0>,<openexp._canvas.legacy.legacy object at 0x042A0E10>,<openexp._canvas.legacy.legacy object at 0x042939D0>,<openexp._canvas.legacy.legacy object at 0x042D1070>,<openexp._canvas.legacy.legacy object at 0x042761F0>,<openexp._canvas.legacy.legacy object at 0x042A8330>,<openexp._canvas.legacy.legacy object at 0x0429D150>,75,SpatProbMultiple3.osexp,C:/Userdata/Michel/SpatProbMultiple3,no,mono,no,18,no,white,no,yes,0.09,98,1050,legacy,45,31,31,1,C:/Userdata/Michel/SpatProbMultiple3/beh/subject-3.csv,legacy,12,192,25,Jazzy James,3.1.9,yes,598477b2b83f69022949e7e9,47,green,rectangular,red,rectangular,0,\,1178,space,7586,7586,"(80, 80, 80)","(0, 123, 0)","(177, 0, 0)","(155, 155, 155)",2,legacy,experiment,"[2, 3, 4, 5, 6, 7, 0, 1]",\,2500,3000,0,8,252.7587515,1024,2,48000,-16,main,"[(0, -252), (178, -178), (252, 0), (178, 178), (0, 252), (-178, 178), (-252, 0), (-178, -178)]",[],27,odd,6,NA,268543,280079,280079,170478,169469,2549,192172,192172,2549,2549,178065,371319,2545,280079,370138,369281,369281,NA,848,study_X,0,7586,1,yes,1680
undefined,undefined,NA,NA,NA,7586,7586,black,no,legacy,legacy,legacy,0,red,"(177, 0, 0)",shape,present,highProbOther,circular,swap,swap,same,same,red,"(177, 0, 0)",lowProb,lowProb6,rectangular,uniform,1,undefined,0,0.161458333,1,1,239.2604167,1,31,45938,0,0,0,0,0,0,0,0,58,0,1,0.161458333,239.2604167,31,45938,57,57,57,11/22/2018 13:30,Default description,yes,<openexp._canvas.legacy.legacy object at 0x04285C10>,<openexp._canvas.legacy.legacy object at 0x042996B0>,<openexp._canvas.legacy.legacy object at 0x042A0E10>,<openexp._canvas.legacy.legacy object at 0x042939D0>,<openexp._canvas.legacy.legacy object at 0x042D1070>,<openexp._canvas.legacy.legacy object at 0x042761F0>,<openexp._canvas.legacy.legacy object at 0x04285E70>,<openexp._canvas.legacy.legacy object at 0x0429D150>,75,SpatProbMultiple3.osexp,C:/Userdata/Michel/SpatProbMultiple3,no,mono,no,18,no,white,no,yes,0.09,98,1050,legacy,45,32,32,1,C:/Userdata/Michel/SpatProbMultiple3/beh/subject-3.csv,legacy,12,192,25,Jazzy James,3.1.9,yes,598477b2b83f69022949e7e9,47,red,circular,red,rectangular,0,\,1388,space,7586,7586,"(80, 80, 80)","(0, 123, 0)","(177, 0, 0)","(155, 155, 155)",2,legacy,experiment,"[2, 3, 4, 5, 6, 7, 0, 1]",\,2500,3000,0,8,252.7587515,1024,2,48000,-16,main,"[(0, -252), (178, -178), (252, 0), (178, 178), (0, 252), (-178, 178), (-252, 0), (-178, -178)]",[],27,odd,1,NA,268543,280079,280079,170478,169469,2549,192172,192172,2549,2549,178065,374031,2545,280079,372640,371783,371783,NA,848,study_X,0,7586,1,yes,1680
undefined,undefined,NA,NA,NA,7586,7586,black,no,legacy,legacy,legacy,0,green,"(0, 123, 0)",shape,absent,lowProb1,rectangular,swap,swap,swap,same,green,"(0, 123, 0)",highProbShape,highProbShape,rectangular,uniform,1,undefined,0,0.166666667,1,1,251.3489583,1,32,48259,0,0,0,0,0,0,0,0,59,0,1,0.166666667,251.3489583,32,48259,58,58,58,11/22/2018 13:30,Default description,yes,<openexp._canvas.legacy.legacy object at 0x04285C10>,<openexp._canvas.legacy.legacy object at 0x042996B0>,<openexp._canvas.legacy.legacy object at 0x042A0E10>,<openexp._canvas.legacy.legacy object at 0x042939D0>,<openexp._canvas.legacy.legacy object at 0x042D1070>,<openexp._canvas.legacy.legacy object at 0x042761F0>,<openexp._canvas.legacy.legacy object at 0x042A0890>,<openexp._canvas.legacy.legacy object at 0x0429D150>,75,SpatProbMultiple3.osexp,C:/Userdata/Michel/SpatProbMultiple3,no,mono,no,18,no,white,no,yes,0.09,98,1050,legacy,315,33,33,1,C:/Userdata/Michel/SpatProbMultiple3/beh/subject-3.csv,legacy,12,192,25,Jazzy James,3.1.9,yes,598477b2b83f69022949e7e9,47,green,rectangular,green,rectangular,0,/,2321,space,7586,7586,"(80, 80, 80)","(0, 123, 0)","(177, 0, 0)","(155, 155, 155)",2,legacy,experiment,"[2, 3, 4, 5, 6, 7, 0, 1]",/,2500,3000,0,8,252.7587515,1024,2,48000,-16,main,"[(0, -252), (178, -178), (252, 0), (178, 178), (0, 252), (-178, 178), (-252, 0), (-178, -178)]",[],27,odd,6,NA,268543,280079,280079,170478,169469,2549,192172,192172,2549,2549,178065,377631,2545,280079,375307,374450,374450,NA,848,study_X,0,7586,1,yes,1680
undefined,undefined,NA,NA,NA,7586,7586,black,no,legacy,legacy,legacy,0,red,"(177, 0, 0)",color,present,highProb,rectangular,swap,same,same,same,green,"(0, 123, 0)",lowProb,lowProb2,rectangular,uniform,1,undefined,0,0.171875,1,1,264.2239583,1,33,50731,0,0,0,0,0,0,0,0,60,0,1,0.171875,264.2239583,33,50731,59,59,59,11/22/2018 13:30,Default description,yes,<openexp._canvas.legacy.legacy object at 0x04285C10>,<openexp._canvas.legacy.legacy object at 0x042996B0>,<openexp._canvas.legacy.legacy object at 0x042A0E10>,<openexp._canvas.legacy.legacy object at 0x042939D0>,<openexp._canvas.legacy.legacy object at 0x042D1070>,<openexp._canvas.legacy.legacy object at 0x042761F0>,<openexp._canvas.legacy.legacy object at 0x042A0150>,<openexp._canvas.legacy.legacy object at 0x0429D150>,75,SpatProbMultiple3.osexp,C:/Userdata/Michel/SpatProbMultiple3,no,mono,no,18,no,white,no,yes,0.09,98,1050,legacy,315,34,34,1,C:/Userdata/Michel/SpatProbMultiple3/beh/subject-3.csv,legacy,12,192,25,Jazzy James,3.1.9,yes,598477b2b83f69022949e7e9,47,red,rectangular,green,rectangular,0,/,2472,space,7586,7586,"(80, 80, 80)","(0, 123, 0)","(177, 0, 0)","(155, 155, 155)",2,legacy,experiment,"[2, 3, 4, 5, 6, 7, 0, 1]",/,2500,3000,0,8,252.7587515,1024,2,48000,-16,main,"[(0, -252), (178, -178), (252, 0), (178, 178), (0, 252), (-178, 178), (-252, 0), (-178, -178)]",[],27,odd,4,NA,268543,280079,280079,170478,169469,2549,192172,192172,2549,2549,178065,381400,2545,280079,378924,378067,378067,NA,848,study_X,0,7586,1,yes,1680
undefined,undefined,NA,NA,NA,7586,7586,black,no,legacy,legacy,legacy,0,red,"(177, 0, 0)",color,present,lowProb2,circular,same,swap,same,swap,green,"(0, 123, 0)",lowProb,lowProb1,circular,uniform,1,undefined,0,0.177083333,1,1,269.578125,1,34,51759,0,0,0,0,0,0,0,0,61,0,1,0.177083333,269.578125,34,51759,60,60,60,11/22/2018 13:30,Default description,yes,<openexp._canvas.legacy.legacy object at 0x04285C10>,<openexp._canvas.legacy.legacy object at 0x042996B0>,<openexp._canvas.legacy.legacy object at 0x042A0E10>,<openexp._canvas.legacy.legacy object at 0x042939D0>,<openexp._canvas.legacy.legacy object at 0x042D1070>,<openexp._canvas.legacy.legacy object at 0x042761F0>,<openexp._canvas.legacy.legacy object at 0x042A03D0>,<openexp._canvas.legacy.legacy object at 0x0429D150>,75,SpatProbMultiple3.osexp,C:/Userdata/Michel/SpatProbMultiple3,no,mono,no,18,no,white,no,yes,0.09,98,1050,legacy,315,35,35,1,C:/Userdata/Michel/SpatProbMultiple3/beh/subject-3.csv,legacy,12,192,25,Jazzy James,3.1.9,yes,598477b2b83f69022949e7e9,47,red,circular,green,circular,0,/,1028,space,7586,7586,"(80, 80, 80)","(0, 123, 0)","(177, 0, 0)","(155, 155, 155)",2,legacy,experiment,"[2, 3, 4, 5, 6, 7, 0, 1]",/,2500,3000,0,8,252.7587515,1024,2,48000,-16,main,"[(0, -252), (178, -178), (252, 0), (178, 178), (0, 252), (-178, 178), (-252, 0), (-178, -178)]",[],27,odd,3,NA,268543,280079,280079,170478,169469,2549,192172,192172,2549,2549,178065,383736,2545,280079,382704,381847,381847,NA,848,study_X,0,7586,1,yes,1680
undefined,undefined,NA,NA,NA,7586,7586,black,no,legacy,legacy,legacy,0,green,"(0, 123, 0)",shape,present,highProb,rectangular,swap,swap,same,same,green,"(0, 123, 0)",lowProb,lowProb2,circular,uniform,1,undefined,0,0.182291667,1,1,273.6875,1,35,52548,0,0,0,0,0,0,0,0,62,0,1,0.182291667,273.6875,35,52548,61,61,61,11/22/2018 13:30,Default description,yes,<openexp._canvas.legacy.legacy object at 0x04285C10>,<openexp._canvas.legacy.legacy object at 0x042996B0>,<openexp._canvas.legacy.legacy object at 0x042A0E10>,<openexp._canvas.legacy.legacy object at 0x042939D0>,<openexp._canvas.legacy.legacy object at 0x042D1070>,<openexp._canvas.legacy.legacy object at 0x042761F0>,<openexp._canvas.legacy.legacy object at 0x0429DF50>,<openexp._canvas.legacy.legacy object at 0x0429D150>,75,SpatProbMultiple3.osexp,C:/Userdata/Michel/SpatProbMultiple3,no,mono,no,18,no,white,no,yes,0.09,98,1050,legacy,315,36,36,1,C:/Userdata/Michel/SpatProbMultiple3/beh/subject-3.csv,legacy,12,192,25,Jazzy James,3.1.9,yes,598477b2b83f69022949e7e9,47,green,rectangular,green,circular,0,/,789,space,7586,7586,"(80, 80, 80)","(0, 123, 0)","(177, 0, 0)","(155, 155, 155)",2,legacy,experiment,"[2, 3, 4, 5, 6, 7, 0, 1]",/,2500,3000,0,8,252.7587515,1024,2,48000,-16,main,"[(0, -252), (178, -178), (252, 0), (178, 178), (0, 252), (-178, 178), (-252, 0), (-178, -178)]",[],27,odd,4,NA,268543,280079,280079,170478,169469,2549,192172,192172,2549,2549,178065,385840,2545,280079,385047,384190,384190,NA,848,study_X,0,7586,1,yes,1680
undefined,undefined,NA,NA,NA,7586,7586,black,no,legacy,legacy,legacy,0,green,"(0, 123, 0)",color,present,lowProb5,rectangular,same,same,swap,swap,red,"(177, 0, 0)",highProbColor,highProbColor,rectangular,uniform,1,undefined,0,0.1875,1,1,281.4479167,1,36,54038,0,0,0,0,0,0,0,0,63,0,1,0.1875,281.4479167,36,54038,62,62,62,11/22/2018 13:30,Default description,yes,<openexp._canvas.legacy.legacy object at 0x04285C10>,<openexp._canvas.legacy.legacy object at 0x042996B0>,<openexp._canvas.legacy.legacy object at 0x042A0E10>,<openexp._canvas.legacy.legacy object at 0x042939D0>,<openexp._canvas.legacy.legacy object at 0x042D1070>,<openexp._canvas.legacy.legacy object at 0x042761F0>,<openexp._canvas.legacy.legacy object at 0x04284270>,<openexp._canvas.legacy.legacy object at 0x0429D150>,75,SpatProbMultiple3.osexp,C:/Userdata/Michel/SpatProbMultiple3,no,mono,no,18,no,white,no,yes,0.09,98,1050,legacy,45,37,37,1,C:/Userdata/Michel/SpatProbMultiple3/beh/subject-3.csv,legacy,12,192,25,Jazzy James,3.1.9,yes,598477b2b83f69022949e7e9,47,green,rectangular,red,rectangular,0,\,1490,space,7586,7586,"(80, 80, 80)","(0, 123, 0)","(177, 0, 0)","(155, 155, 155)",2,legacy,experiment,"[2, 3, 4, 5, 6, 7, 0, 1]",\,2500,3000,0,8,252.7587515,1024,2,48000,-16,main,"[(0, -252), (178, -178), (252, 0), (178, 178), (0, 252), (-178, 178), (-252, 0), (-178, -178)]",[],27,odd,2,NA,268543,280079,280079,170478,169469,2549,192172,192172,2549,2549,178065,388647,2545,280079,387154,386297,386297,NA,848,study_X,0,7586,1,yes,1680
undefined,undefined,NA,NA,NA,7586,7586,black,no,legacy,legacy,legacy,0,green,"(0, 123, 0)",shape,present,highProb,circular,same,swap,swap,same,green,"(0, 123, 0)",lowProb,lowProb1,rectangular,uniform,1,undefined,0,0.192708333,1,1,286.7552083,1,37,55057,0,0,0,0,0,0,0,0,64,0,1,0.192708333,286.7552083,37,55057,63,63,63,11/22/2018 13:30,Default description,yes,<openexp._canvas.legacy.legacy object at 0x04285C10>,<openexp._canvas.legacy.legacy object at 0x042996B0>,<openexp._canvas.legacy.legacy object at 0x042A0E10>,<openexp._canvas.legacy.legacy object at 0x042939D0>,<openexp._canvas.legacy.legacy object at 0x042D1070>,<openexp._canvas.legacy.legacy object at 0x042761F0>,<openexp._canvas.legacy.legacy object at 0x042A0590>,<openexp._canvas.legacy.legacy object at 0x0429D150>,75,SpatProbMultiple3.osexp,C:/Userdata/Michel/SpatProbMultiple3,no,mono,no,18,no,white,no,yes,0.09,98,1050,legacy,45,38,38,1,C:/Userdata/Michel/SpatProbMultiple3/beh/subject-3.csv,legacy,12,192,25,Jazzy James,3.1.9,yes,598477b2b83f69022949e7e9,47,green,circular,green,rectangular,0,\,1019,space,7586,7586,"(80, 80, 80)","(0, 123, 0)","(177, 0, 0)","(155, 155, 155)",2,legacy,experiment,"[2, 3, 4, 5, 6, 7, 0, 1]",\,2500,3000,0,8,252.7587515,1024,2,48000,-16,main,"[(0, -252), (178, -178), (252, 0), (178, 178), (0, 252), (-178, 178), (-252, 0), (-178, -178)]",[],27,odd,3,NA,268543,280079,280079,170478,169469,2549,192172,192172,2549,2549,178065,390951,2545,280079,389930,389073,389073,NA,848,study_X,0,7586,1,yes,1680
undefined,undefined,NA,NA,NA,7586,7586,black,no,legacy,legacy,legacy,0,red,"(177, 0, 0)",color,present,highProb,circular,swap,same,same,swap,green,"(0, 123, 0)",lowProb,lowProb2,circular,uniform,1,undefined,0,0.197916667,1,1,292.3697917,1,38,56135,0,0,0,0,0,0,0,0,65,0,1,0.197916667,292.3697917,38,56135,64,64,64,11/22/2018 13:30,Default description,yes,<openexp._canvas.legacy.legacy object at 0x04285C10>,<openexp._canvas.legacy.legacy object at 0x042996B0>,<openexp._canvas.legacy.legacy object at 0x042A0E10>,<openexp._canvas.legacy.legacy object at 0x042939D0>,<openexp._canvas.legacy.legacy object at 0x042D1070>,<openexp._canvas.legacy.legacy object at 0x042761F0>,<openexp._canvas.legacy.legacy object at 0x047CF2F0>,<openexp._canvas.legacy.legacy object at 0x0429D150>,75,SpatProbMultiple3.osexp,C:/Userdata/Michel/SpatProbMultiple3,no,mono,no,18,no,white,no,yes,0.09,98,1050,legacy,315,39,39,1,C:/Userdata/Michel/SpatProbMultiple3/beh/subject-3.csv,legacy,12,192,25,Jazzy James,3.1.9,yes,598477b2b83f69022949e7e9,47,red,circular,green,circular,0,/,1078,space,7586,7586,"(80, 80, 80)","(0, 123, 0)","(177, 0, 0)","(155, 155, 155)",2,legacy,experiment,"[2, 3, 4, 5, 6, 7, 0, 1]",/,2500,3000,0,8,252.7587515,1024,2,48000,-16,main,"[(0, -252), (178, -178), (252, 0), (178, 178), (0, 252), (-178, 178), (-252, 0), (-178, -178)]",[],27,odd,4,NA,268543,280079,280079,170478,169469,2549,192172,192172,2549,2549,178065,393319,2545,280079,392239,391382,391382,NA,848,study_X,0,7586,1,yes,1680
undefined,undefined,NA,NA,NA,7586,7586,black,no,legacy,legacy,legacy,0,green,"(0, 123, 0)",color,absent,lowProb5,circular,swap,same,same,same,green,"(0, 123, 0)",lowProb,lowProb1,circular,uniform,1,undefined,0,0.203125,1,1,297.40625,1,39,57102,0,0,0,0,0,0,0,0,66,0,1,0.203125,297.40625,39,57102,65,65,65,11/22/2018 13:30,Default description,yes,<openexp._canvas.legacy.legacy object at 0x04285C10>,<openexp._canvas.legacy.legacy object at 0x042996B0>,<openexp._canvas.legacy.legacy object at 0x042A0E10>,<openexp._canvas.legacy.legacy object at 0x042939D0>,<openexp._canvas.legacy.legacy object at 0x042D1070>,<openexp._canvas.legacy.legacy object at 0x042761F0>,<openexp._canvas.legacy.legacy object at 0x04299A90>,<openexp._canvas.legacy.legacy object at 0x0429D150>,75,SpatProbMultiple3.osexp,C:/Userdata/Michel/SpatProbMultiple3,no,mono,no,18,no,white,no,yes,0.09,98,1050,legacy,315,40,40,1,C:/Userdata/Michel/SpatProbMultiple3/beh/subject-3.csv,legacy,12,192,25,Jazzy James,3.1.9,yes,598477b2b83f69022949e7e9,47,green,circular,green,circular,0,/,967,space,7586,7586,"(80, 80, 80)","(0, 123, 0)","(177, 0, 0)","(155, 155, 155)",2,legacy,experiment,"[2, 3, 4, 5, 6, 7, 0, 1]",/,2500,3000,0,8,252.7587515,1024,2,48000,-16,main,"[(0, -252), (178, -178), (252, 0), (178, 178), (0, 252), (-178, 178), (-252, 0), (-178, -178)]",[],27,odd,3,NA,268543,280079,280079,170478,169469,2549,192172,192172,2549,2549,178065,395592,2545,280079,394621,393764,393764,NA,848,study_X,0,7586,1,yes,1680
undefined,undefined,NA,NA,NA,7586,7586,black,no,legacy,legacy,legacy,0,red,"(177, 0, 0)",shape,present,highProb,circular,swap,same,swap,swap,red,"(177, 0, 0)",lowProb,lowProb6,rectangular,uniform,1,undefined,0,0.208333333,1,1,303.8177083,1,40,58333,0,0,0,0,0,0,0,0,67,0,1,0.208333333,303.8177083,40,58333,66,66,66,11/22/2018 13:30,Default description,yes,<openexp._canvas.legacy.legacy object at 0x04285C10>,<openexp._canvas.legacy.legacy object at 0x042996B0>,<openexp._canvas.legacy.legacy object at 0x042A0E10>,<openexp._canvas.legacy.legacy object at 0x042939D0>,<openexp._canvas.legacy.legacy object at 0x042D1070>,<openexp._canvas.legacy.legacy object at 0x042761F0>,<openexp._canvas.legacy.legacy object at 0x047CF210>,<openexp._canvas.legacy.legacy object at 0x0429D150>,75,SpatProbMultiple3.osexp,C:/Userdata/Michel/SpatProbMultiple3,no,mono,no,18,no,white,no,yes,0.09,98,1050,legacy,315,41,41,1,C:/Userdata/Michel/SpatProbMultiple3/beh/subject-3.csv,legacy,12,192,25,Jazzy James,3.1.9,yes,598477b2b83f69022949e7e9,47,red,circular,red,rectangular,0,/,1231,space,7586,7586,"(80, 80, 80)","(0, 123, 0)","(177, 0, 0)","(155, 155, 155)",2,legacy,experiment,"[2, 3, 4, 5, 6, 7, 0, 1]",/,2500,3000,0,8,252.7587515,1024,2,48000,-16,main,"[(0, -252), (178, -178), (252, 0), (178, 178), (0, 252), (-178, 178), (-252, 0), (-178, -178)]",[],27,odd,1,NA,268543,280079,280079,170478,169469,2549,192172,192172,2549,2549,178065,398152,2545,280079,396918,396060,396060,NA,848,study_X,0,7586,1,yes,1680
undefined,undefined,NA,NA,NA,7586,7586,black,no,legacy,legacy,legacy,0,red,"(177, 0, 0)",color,present,highProb,rectangular,same,swap,swap,same,green,"(0, 123, 0)",lowProb,lowProb2,rectangular,uniform,1,undefined,0,0.213541667,1,1,310.6041667,1,41,59636,0,0,0,0,0,0,0,0,68,0,1,0.213541667,310.6041667,41,59636,67,67,67,11/22/2018 13:30,Default description,yes,<openexp._canvas.legacy.legacy object at 0x04285C10>,<openexp._canvas.legacy.legacy object at 0x042996B0>,<openexp._canvas.legacy.legacy object at 0x042A0E10>,<openexp._canvas.legacy.legacy object at 0x042939D0>,<openexp._canvas.legacy.legacy object at 0x042D1070>,<openexp._canvas.legacy.legacy object at 0x042761F0>,<openexp._canvas.legacy.legacy object at 0x04284990>,<openexp._canvas.legacy.legacy object at 0x0429D150>,75,SpatProbMultiple3.osexp,C:/Userdata/Michel/SpatProbMultiple3,no,mono,no,18,no,white,no,yes,0.09,98,1050,legacy,315,42,42,1,C:/Userdata/Michel/SpatProbMultiple3/beh/subject-3.csv,legacy,12,192,25,Jazzy James,3.1.9,yes,598477b2b83f69022949e7e9,47,red,rectangular,green,rectangular,0,/,1303,space,7586,7586,"(80, 80, 80)","(0, 123, 0)","(177, 0, 0)","(155, 155, 155)",2,legacy,experiment,"[2, 3, 4, 5, 6, 7, 0, 1]",/,2500,3000,0,8,252.7587515,1024,2,48000,-16,main,"[(0, -252), (178, -178), (252, 0), (178, 178), (0, 252), (-178, 178), (-252, 0), (-178, -178)]",[],27,odd,4,NA,268543,280079,280079,170478,169469,2549,192172,192172,2549,2549,178065,400728,2545,280079,399421,398564,398564,NA,848,study_X,0,7586,1,yes,1680
undefined,undefined,NA,NA,NA,7586,7586,black,no,legacy,legacy,legacy,0,green,"(0, 123, 0)",color,present,lowProb6,rectangular,swap,same,swap,same,red,"(177, 0, 0)",lowProb,lowProb2,rectangular,uniform,1,undefined,0,0.21875,1,1,315.65625,1,42,60606,0,0,0,0,0,0,0,0,69,0,1,0.21875,315.65625,42,60606,68,68,68,11/22/2018 13:30,Default description,yes,<openexp._canvas.legacy.legacy object at 0x04285C10>,<openexp._canvas.legacy.legacy object at 0x042996B0>,<openexp._canvas.legacy.legacy object at 0x042A0E10>,<openexp._canvas.legacy.legacy object at 0x042939D0>,<openexp._canvas.legacy.legacy object at 0x042D1070>,<openexp._canvas.legacy.legacy object at 0x042761F0>,<openexp._canvas.legacy.legacy object at 0x04299F90>,<openexp._canvas.legacy.legacy object at 0x0429D150>,75,SpatProbMultiple3.osexp,C:/Userdata/Michel/SpatProbMultiple3,no,mono,no,18,no,white,no,yes,0.09,98,1050,legacy,45,43,43,1,C:/Userdata/Michel/SpatProbMultiple3/beh/subject-3.csv,legacy,12,192,25,Jazzy James,3.1.9,yes,598477b2b83f69022949e7e9,47,green,rectangular,red,rectangular,0,\,970,space,7586,7586,"(80, 80, 80)","(0, 123, 0)","(177, 0, 0)","(155, 155, 155)",2,legacy,experiment,"[2, 3, 4, 5, 6, 7, 0, 1]",\,2500,3000,0,8,252.7587515,1024,2,48000,-16,main,"[(0, -252), (178, -178), (252, 0), (178, 178), (0, 252), (-178, 178), (-252, 0), (-178, -178)]",[],27,odd,4,NA,268543,280079,280079,170478,169469,2549,192172,192172,2549,2549,178065,402967,2545,280079,401994,401137,401137,NA,848,study_X,0,7586,1,yes,1680
undefined,undefined,NA,NA,NA,7586,7586,black,no,legacy,legacy,legacy,0,green,"(0, 123, 0)",color,present,highProb,circular,same,swap,same,swap,red,"(177, 0, 0)",lowProb,lowProb4,circular,uniform,1,undefined,0,0.223958333,1,1,321.25,1,43,61680,0,0,0,0,0,0,0,0,70,0,1,0.223958333,321.25,43,61680,69,69,69,11/22/2018 13:30,Default description,yes,<openexp._canvas.legacy.legacy object at 0x04285C10>,<openexp._canvas.legacy.legacy object at 0x042996B0>,<openexp._canvas.legacy.legacy object at 0x042A0E10>,<openexp._canvas.legacy.legacy object at 0x042939D0>,<openexp._canvas.legacy.legacy object at 0x042D1070>,<openexp._canvas.legacy.legacy object at 0x042761F0>,<openexp._canvas.legacy.legacy object at 0x0427CF50>,<openexp._canvas.legacy.legacy object at 0x0429D150>,75,SpatProbMultiple3.osexp,C:/Userdata/Michel/SpatProbMultiple3,no,mono,no,18,no,white,no,yes,0.09,98,1050,legacy,45,44,44,1,C:/Userdata/Michel/SpatProbMultiple3/beh/subject-3.csv,legacy,12,192,25,Jazzy James,3.1.9,yes,598477b2b83f69022949e7e9,47,green,circular,red,circular,0,\,1074,space,7586,7586,"(80, 80, 80)","(0, 123, 0)","(177, 0, 0)","(155, 155, 155)",2,legacy,experiment,"[2, 3, 4, 5, 6, 7, 0, 1]",\,2500,3000,0,8,252.7587515,1024,2,48000,-16,main,"[(0, -252), (178, -178), (252, 0), (178, 178), (0, 252), (-178, 178), (-252, 0), (-178, -178)]",[],27,odd,7,NA,268543,280079,280079,170478,169469,2549,192172,192172,2549,2549,178065,405319,2545,280079,404242,403385,403385,NA,848,study_X,0,7586,1,yes,1680
undefined,undefined,NA,NA,NA,7586,7586,black,no,legacy,legacy,legacy,0,green,"(0, 123, 0)",shape,present,highProbOther,circular,same,same,swap,swap,green,"(0, 123, 0)",highProbShape,highProbShape,rectangular,uniform,0,undefined,0,0.223958333,1,1,334.2708333,1,43,64180,0,0,0,0,0,0,0,0,71,0,1,0.223958333,334.2708333,43,64180,70,70,70,11/22/2018 13:30,Default description,yes,<openexp._canvas.legacy.legacy object at 0x04285C10>,<openexp._canvas.legacy.legacy object at 0x042996B0>,<openexp._canvas.legacy.legacy object at 0x042A0E10>,<openexp._canvas.legacy.legacy object at 0x042939D0>,<openexp._canvas.legacy.legacy object at 0x042D1070>,<openexp._canvas.legacy.legacy object at 0x042761F0>,<openexp._canvas.legacy.legacy object at 0x042A8130>,<openexp._canvas.legacy.legacy object at 0x0429D150>,75,SpatProbMultiple3.osexp,C:/Userdata/Michel/SpatProbMultiple3,no,mono,no,18,no,white,no,yes,0.09,98,1050,legacy,315,45,45,1,C:/Userdata/Michel/SpatProbMultiple3/beh/subject-3.csv,legacy,12,192,25,Jazzy James,3.1.9,yes,598477b2b83f69022949e7e9,47,green,circular,green,rectangular,0,None,2500,space,7586,7586,"(80, 80, 80)","(0, 123, 0)","(177, 0, 0)","(155, 155, 155)",2,legacy,experiment,"[2, 3, 4, 5, 6, 7, 0, 1]",/,2500,3000,0,8,252.7587515,1024,2,48000,-16,main,"[(0, -252), (178, -178), (252, 0), (178, 178), (0, 252), (-178, 178), (-252, 0), (-178, -178)]",[],27,odd,6,NA,268543,280079,280079,170478,169469,2549,192172,192172,2549,2549,178065,409101,2545,280079,406598,405741,405741,NA,848,study_X,0,7586,1,yes,1680
undefined,undefined,NA,NA,NA,7586,7586,black,no,legacy,legacy,legacy,0,red,"(177, 0, 0)",shape,absent,lowProb5,circular,swap,same,swap,swap,red,"(177, 0, 0)",lowProb,lowProb3,circular,uniform,1,undefined,0,0.229166667,1,1,338.8072917,1,44,65051,0,0,0,0,0,0,0,0,72,0,1,0.229166667,338.8072917,44,65051,71,71,71,11/22/2018 13:30,Default description,yes,<openexp._canvas.legacy.legacy object at 0x04285C10>,<openexp._canvas.legacy.legacy object at 0x042996B0>,<openexp._canvas.legacy.legacy object at 0x042A0E10>,<openexp._canvas.legacy.legacy object at 0x042939D0>,<openexp._canvas.legacy.legacy object at 0x042D1070>,<openexp._canvas.legacy.legacy object at 0x042761F0>,<openexp._canvas.legacy.legacy object at 0x04299A30>,<openexp._canvas.legacy.legacy object at 0x0429D150>,75,SpatProbMultiple3.osexp,C:/Userdata/Michel/SpatProbMultiple3,no,mono,no,18,no,white,no,yes,0.09,98,1050,legacy,45,46,46,1,C:/Userdata/Michel/SpatProbMultiple3/beh/subject-3.csv,legacy,12,192,25,Jazzy James,3.1.9,yes,598477b2b83f69022949e7e9,47,red,circular,red,circular,0,\,871,space,7586,7586,"(80, 80, 80)","(0, 123, 0)","(177, 0, 0)","(155, 155, 155)",2,legacy,experiment,"[2, 3, 4, 5, 6, 7, 0, 1]",\,2500,3000,0,8,252.7587515,1024,2,48000,-16,main,"[(0, -252), (178, -178), (252, 0), (178, 178), (0, 252), (-178, 178), (-252, 0), (-178, -178)]",[],27,odd,5,NA,268543,280079,280079,170478,169469,2549,192172,192172,2549,2549,178065,411263,2545,280079,410388,409531,409531,NA,848,study_X,0,7586,1,yes,1680
undefined,undefined,NA,NA,NA,7586,7586,black,no,legacy,legacy,legacy,0,red,"(177, 0, 0)",shape,present,highProbOther,rectangular,same,swap,same,same,red,"(177, 0, 0)",lowProb,lowProb1,circular,uniform,1,undefined,0,0.234375,1,1,343.9270833,1,45,66034,0,0,0,0,0,0,0,0,73,0,1,0.234375,343.9270833,45,66034,72,72,72,11/22/2018 13:30,Default description,yes,<openexp._canvas.legacy.legacy object at 0x04285C10>,<openexp._canvas.legacy.legacy object at 0x042996B0>,<openexp._canvas.legacy.legacy object at 0x042A0E10>,<openexp._canvas.legacy.legacy object at 0x042939D0>,<openexp._canvas.legacy.legacy object at 0x042D1070>,<openexp._canvas.legacy.legacy object at 0x042761F0>,<openexp._canvas.legacy.legacy object at 0x047CF0B0>,<openexp._canvas.legacy.legacy object at 0x0429D150>,75,SpatProbMultiple3.osexp,C:/Userdata/Michel/SpatProbMultiple3,no,mono,no,18,no,white,no,yes,0.09,98,1050,legacy,45,47,47,1,C:/Userdata/Michel/SpatProbMultiple3/beh/subject-3.csv,legacy,12,192,25,Jazzy James,3.1.9,yes,598477b2b83f69022949e7e9,47,red,rectangular,red,circular,0,\,983,space,7586,7586,"(80, 80, 80)","(0, 123, 0)","(177, 0, 0)","(155, 155, 155)",2,legacy,experiment,"[2, 3, 4, 5, 6, 7, 0, 1]",\,2500,3000,0,8,252.7587515,1024,2,48000,-16,main,"[(0, -252), (178, -178), (252, 0), (178, 178), (0, 252), (-178, 178), (-252, 0), (-178, -178)]",[],27,odd,3,NA,268543,280079,280079,170478,169469,2549,192172,192172,2549,2549,178065,413544,2545,280079,412557,411700,411700,NA,848,study_X,0,7586,1,yes,1680
undefined,undefined,NA,NA,NA,7586,7586,black,no,legacy,legacy,legacy,0,red,"(177, 0, 0)",color,present,lowProb5,rectangular,same,same,swap,swap,green,"(0, 123, 0)",highProbShape,highProbShape,rectangular,uniform,1,undefined,0,0.239583333,1,1,351.421875,1,46,67473,0,0,0,0,0,0,0,0,74,0,1,0.239583333,351.421875,46,67473,73,73,73,11/22/2018 13:30,Default description,yes,<openexp._canvas.legacy.legacy object at 0x04285C10>,<openexp._canvas.legacy.legacy object at 0x042996B0>,<openexp._canvas.legacy.legacy object at 0x042A0E10>,<openexp._canvas.legacy.legacy object at 0x042939D0>,<openexp._canvas.legacy.legacy object at 0x042D1070>,<openexp._canvas.legacy.legacy object at 0x042761F0>,<openexp._canvas.legacy.legacy object at 0x042841B0>,<openexp._canvas.legacy.legacy object at 0x0429D150>,75,SpatProbMultiple3.osexp,C:/Userdata/Michel/SpatProbMultiple3,no,mono,no,18,no,white,no,yes,0.09,98,1050,legacy,45,48,48,1,C:/Userdata/Michel/SpatProbMultiple3/beh/subject-3.csv,legacy,12,192,25,Jazzy James,3.1.9,yes,598477b2b83f69022949e7e9,47,red,rectangular,green,rectangular,0,\,1439,space,7586,7586,"(80, 80, 80)","(0, 123, 0)","(177, 0, 0)","(155, 155, 155)",2,legacy,experiment,"[2, 3, 4, 5, 6, 7, 0, 1]",\,2500,3000,0,8,252.7587515,1024,2,48000,-16,main,"[(0, -252), (178, -178), (252, 0), (178, 178), (0, 252), (-178, 178), (-252, 0), (-178, -178)]",[],27,odd,6,NA,268543,280079,280079,170478,169469,2549,192172,192172,2549,2549,178065,416328,2545,280079,414885,414027,414028,NA,848,study_X,0,7586,1,yes,1680
undefined,undefined,NA,NA,NA,7586,7586,black,no,legacy,legacy,legacy,0,green,"(0, 123, 0)",shape,present,lowProb5,circular,swap,swap,same,same,green,"(0, 123, 0)",highProbShape,highProbShape,rectangular,uniform,1,undefined,0,0.244791667,1,1,362.2291667,1,47,69548,0,0,0,0,0,0,0,0,75,0,1,0.244791667,362.2291667,47,69548,74,74,74,11/22/2018 13:30,Default description,yes,<openexp._canvas.legacy.legacy object at 0x04285C10>,<openexp._canvas.legacy.legacy object at 0x042996B0>,<openexp._canvas.legacy.legacy object at 0x042A0E10>,<openexp._canvas.legacy.legacy object at 0x042939D0>,<openexp._canvas.legacy.legacy object at 0x042D1070>,<openexp._canvas.legacy.legacy object at 0x042761F0>,<openexp._canvas.legacy.legacy object at 0x042998F0>,<openexp._canvas.legacy.legacy object at 0x0429D150>,75,SpatProbMultiple3.osexp,C:/Userdata/Michel/SpatProbMultiple3,no,mono,no,18,no,white,no,yes,0.09,98,1050,legacy,45,49,49,1,C:/Userdata/Michel/SpatProbMultiple3/beh/subject-3.csv,legacy,12,192,25,Jazzy James,3.1.9,yes,598477b2b83f69022949e7e9,47,green,circular,green,rectangular,0,\,2075,space,7586,7586,"(80, 80, 80)","(0, 123, 0)","(177, 0, 0)","(155, 155, 155)",2,legacy,experiment,"[2, 3, 4, 5, 6, 7, 0, 1]",\,2500,3000,0,8,252.7587515,1024,2,48000,-16,main,"[(0, -252), (178, -178), (252, 0), (178, 178), (0, 252), (-178, 178), (-252, 0), (-178, -178)]",[],27,odd,6,NA,268543,280079,280079,170478,169469,2549,192172,192172,2549,2549,178065,419695,2545,280079,417617,416760,416760,NA,848,study_X,0,7586,1,yes,1680
undefined,undefined,NA,NA,NA,7586,7586,black,no,legacy,legacy,legacy,0,red,"(177, 0, 0)",shape,present,lowProb6,circular,swap,same,swap,same,red,"(177, 0, 0)",highProbShape,highProbShape,rectangular,uniform,1,undefined,0,0.25,1,1,368.078125,1,48,70671,0,0,0,0,0,0,0,0,76,0,1,0.25,368.078125,48,70671,75,75,75,11/22/2018 13:30,Default description,yes,<openexp._canvas.legacy.legacy object at 0x04285C10>,<openexp._canvas.legacy.legacy object at 0x042996B0>,<openexp._canvas.legacy.legacy object at 0x042A0E10>,<openexp._canvas.legacy.legacy object at 0x042939D0>,<openexp._canvas.legacy.legacy object at 0x042D1070>,<openexp._canvas.legacy.legacy object at 0x042761F0>,<openexp._canvas.legacy.legacy object at 0x042A8330>,<openexp._canvas.legacy.legacy object at 0x0429D150>,75,SpatProbMultiple3.osexp,C:/Userdata/Michel/SpatProbMultiple3,no,mono,no,18,no,white,no,yes,0.09,98,1050,legacy,45,50,50,1,C:/Userdata/Michel/SpatProbMultiple3/beh/subject-3.csv,legacy,12,192,25,Jazzy James,3.1.9,yes,598477b2b83f69022949e7e9,47,red,circular,red,rectangular,0,\,1123,space,7586,7586,"(80, 80, 80)","(0, 123, 0)","(177, 0, 0)","(155, 155, 155)",2,legacy,experiment,"[2, 3, 4, 5, 6, 7, 0, 1]",\,2500,3000,0,8,252.7587515,1024,2,48000,-16,main,"[(0, -252), (178, -178), (252, 0), (178, 178), (0, 252), (-178, 178), (-252, 0), (-178, -178)]",[],27,odd,6,NA,268543,280079,280079,170478,169469,2549,192172,192172,2549,2549,178065,422095,2545,280079,420970,420113,420113,NA,848,study_X,0,7586,1,yes,1680
undefined,undefined,NA,NA,NA,7586,7586,black,no,legacy,legacy,legacy,0,green,"(0, 123, 0)",color,present,highProb,rectangular,swap,swap,same,same,red,"(177, 0, 0)",lowProb,lowProb5,rectangular,uniform,1,undefined,0,0.255208333,1,1,376.2552083,1,49,72241,0,0,0,0,0,0,0,0,77,0,1,0.255208333,376.2552083,49,72241,76,76,76,11/22/2018 13:30,Default description,yes,<openexp._canvas.legacy.legacy object at 0x04285C10>,<openexp._canvas.legacy.legacy object at 0x042996B0>,<openexp._canvas.legacy.legacy object at 0x042A0E10>,<openexp._canvas.legacy.legacy object at 0x042939D0>,<openexp._canvas.legacy.legacy object at 0x042D1070>,<openexp._canvas.legacy.legacy object at 0x042761F0>,<openexp._canvas.legacy.legacy object at 0x042A8490>,<openexp._canvas.legacy.legacy object at 0x0429D150>,75,SpatProbMultiple3.osexp,C:/Userdata/Michel/SpatProbMultiple3,no,mono,no,18,no,white,no,yes,0.09,98,1050,legacy,315,51,51,1,C:/Userdata/Michel/SpatProbMultiple3/beh/subject-3.csv,legacy,12,192,25,Jazzy James,3.1.9,yes,598477b2b83f69022949e7e9,47,green,rectangular,red,rectangular,0,/,1570,space,7586,7586,"(80, 80, 80)","(0, 123, 0)","(177, 0, 0)","(155, 155, 155)",2,legacy,experiment,"[2, 3, 4, 5, 6, 7, 0, 1]",/,2500,3000,0,8,252.7587515,1024,2,48000,-16,main,"[(0, -252), (178, -178), (252, 0), (178, 178), (0, 252), (-178, 178), (-252, 0), (-178, -178)]",[],27,odd,0,NA,268543,280079,280079,170478,169469,2549,192172,192172,2549,2549,178065,424951,2545,280079,423378,422521,422521,NA,848,study_X,0,7586,1,yes,1680
undefined,undefined,NA,NA,NA,7586,7586,black,no,legacy,legacy,legacy,0,red,"(177, 0, 0)",color,present,highProb,rectangular,swap,same,swap,same,green,"(0, 123, 0)",lowProb,lowProb5,rectangular,uniform,1,undefined,0,0.260416667,1,1,384.9583333,1,50,73912,0,0,0,0,0,0,0,0,78,0,1,0.260416667,384.9583333,50,73912,77,77,77,11/22/2018 13:30,Default description,yes,<openexp._canvas.legacy.legacy object at 0x04285C10>,<openexp._canvas.legacy.legacy object at 0x042996B0>,<openexp._canvas.legacy.legacy object at 0x042A0E10>,<openexp._canvas.legacy.legacy object at 0x042939D0>,<openexp._canvas.legacy.legacy object at 0x042D1070>,<openexp._canvas.legacy.legacy object at 0x042761F0>,<openexp._canvas.legacy.legacy object at 0x04285DD0>,<openexp._canvas.legacy.legacy object at 0x0429D150>,75,SpatProbMultiple3.osexp,C:/Userdata/Michel/SpatProbMultiple3,no,mono,no,18,no,white,no,yes,0.09,98,1050,legacy,315,52,52,1,C:/Userdata/Michel/SpatProbMultiple3/beh/subject-3.csv,legacy,12,192,25,Jazzy James,3.1.9,yes,598477b2b83f69022949e7e9,47,red,rectangular,green,rectangular,0,/,1671,space,7586,7586,"(80, 80, 80)","(0, 123, 0)","(177, 0, 0)","(155, 155, 155)",2,legacy,experiment,"[2, 3, 4, 5, 6, 7, 0, 1]",/,2500,3000,0,8,252.7587515,1024,2,48000,-16,main,"[(0, -252), (178, -178), (252, 0), (178, 178), (0, 252), (-178, 178), (-252, 0), (-178, -178)]",[],27,odd,0,NA,268543,280079,280079,170478,169469,2549,192172,192172,2549,2549,178065,427895,2545,280079,426220,425362,425363,NA,848,study_X,0,7586,1,yes,1680
undefined,undefined,NA,NA,NA,7586,7586,black,no,legacy,legacy,legacy,0,red,"(177, 0, 0)",shape,present,highProb,rectangular,same,same,swap,swap,red,"(177, 0, 0)",lowProb,lowProb4,circular,uniform,1,undefined,0,0.265625,1,1,391.0625,1,51,75084,0,0,0,0,0,0,0,0,79,0,1,0.265625,391.0625,51,75084,78,78,78,11/22/2018 13:30,Default description,yes,<openexp._canvas.legacy.legacy object at 0x04285C10>,<openexp._canvas.legacy.legacy object at 0x042996B0>,<openexp._canvas.legacy.legacy object at 0x042A0E10>,<openexp._canvas.legacy.legacy object at 0x042939D0>,<openexp._canvas.legacy.legacy object at 0x042D1070>,<openexp._canvas.legacy.legacy object at 0x042761F0>,<openexp._canvas.legacy.legacy object at 0x047CF6D0>,<openexp._canvas.legacy.legacy object at 0x0429D150>,75,SpatProbMultiple3.osexp,C:/Userdata/Michel/SpatProbMultiple3,no,mono,no,18,no,white,no,yes,0.09,98,1050,legacy,45,53,53,1,C:/Userdata/Michel/SpatProbMultiple3/beh/subject-3.csv,legacy,12,192,25,Jazzy James,3.1.9,yes,598477b2b83f69022949e7e9,47,red,rectangular,red,circular,0,\,1172,space,7586,7586,"(80, 80, 80)","(0, 123, 0)","(177, 0, 0)","(155, 155, 155)",2,legacy,experiment,"[2, 3, 4, 5, 6, 7, 0, 1]",\,2500,3000,0,8,252.7587515,1024,2,48000,-16,main,"[(0, -252), (178, -178), (252, 0), (178, 178), (0, 252), (-178, 178), (-252, 0), (-178, -178)]",[],27,odd,7,NA,268543,280079,280079,170478,169469,2549,192172,192172,2549,2549,178065,430352,2545,280079,429176,428319,428319,NA,848,study_X,0,7586,1,yes,1680
undefined,undefined,NA,NA,NA,7586,7586,black,no,legacy,legacy,legacy,0,red,"(177, 0, 0)",shape,present,highProb,rectangular,same,same,same,same,red,"(177, 0, 0)",lowProb,lowProb2,circular,uniform,1,undefined,0,0.270833333,1,1,397.359375,1,52,76293,0,0,0,0,0,0,0,0,80,0,1,0.270833333,397.359375,52,76293,79,79,79,11/22/2018 13:30,Default description,yes,<openexp._canvas.legacy.legacy object at 0x04285C10>,<openexp._canvas.legacy.legacy object at 0x042996B0>,<openexp._canvas.legacy.legacy object at 0x042A0E10>,<openexp._canvas.legacy.legacy object at 0x042939D0>,<openexp._canvas.legacy.legacy object at 0x042D1070>,<openexp._canvas.legacy.legacy object at 0x042761F0>,<openexp._canvas.legacy.legacy object at 0x047CF210>,<openexp._canvas.legacy.legacy object at 0x0429D150>,75,SpatProbMultiple3.osexp,C:/Userdata/Michel/SpatProbMultiple3,no,mono,no,18,no,white,no,yes,0.09,98,1050,legacy,315,54,54,1,C:/Userdata/Michel/SpatProbMultiple3/beh/subject-3.csv,legacy,12,192,25,Jazzy James,3.1.9,yes,598477b2b83f69022949e7e9,47,red,rectangular,red,circular,0,/,1209,space,7586,7586,"(80, 80, 80)","(0, 123, 0)","(177, 0, 0)","(155, 155, 155)",2,legacy,experiment,"[2, 3, 4, 5, 6, 7, 0, 1]",/,2500,3000,0,8,252.7587515,1024,2,48000,-16,main,"[(0, -252), (178, -178), (252, 0), (178, 178), (0, 252), (-178, 178), (-252, 0), (-178, -178)]",[],27,odd,4,NA,268543,280079,280079,170478,169469,2549,192172,192172,2549,2549,178065,432839,2545,280079,431627,430770,430770,NA,848,study_X,0,7586,1,yes,1680
undefined,undefined,NA,NA,NA,7586,7586,black,no,legacy,legacy,legacy,0,green,"(0, 123, 0)",color,absent,lowProb1,circular,swap,swap,swap,same,green,"(0, 123, 0)",lowProb,lowProb5,circular,uniform,1,undefined,0,0.276041667,1,1,402.8489583,1,53,77347,0,0,0,0,0,0,0,0,81,0,1,0.276041667,402.8489583,53,77347,80,80,80,11/22/2018 13:30,Default description,yes,<openexp._canvas.legacy.legacy object at 0x04285C10>,<openexp._canvas.legacy.legacy object at 0x042996B0>,<openexp._canvas.legacy.legacy object at 0x042A0E10>,<openexp._canvas.legacy.legacy object at 0x042939D0>,<openexp._canvas.legacy.legacy object at 0x042D1070>,<openexp._canvas.legacy.legacy object at 0x042761F0>,<openexp._canvas.legacy.legacy object at 0x04284C50>,<openexp._canvas.legacy.legacy object at 0x0429D150>,75,SpatProbMultiple3.osexp,C:/Userdata/Michel/SpatProbMultiple3,no,mono,no,18,no,white,no,yes,0.09,98,1050,legacy,315,55,55,1,C:/Userdata/Michel/SpatProbMultiple3/beh/subject-3.csv,legacy,12,192,25,Jazzy James,3.1.9,yes,598477b2b83f69022949e7e9,47,green,circular,green,circular,0,/,1054,space,7586,7586,"(80, 80, 80)","(0, 123, 0)","(177, 0, 0)","(155, 155, 155)",2,legacy,experiment,"[2, 3, 4, 5, 6, 7, 0, 1]",/,2500,3000,0,8,252.7587515,1024,2,48000,-16,main,"[(0, -252), (178, -178), (252, 0), (178, 178), (0, 252), (-178, 178), (-252, 0), (-178, -178)]",[],27,odd,0,NA,268543,280079,280079,170478,169469,2549,192172,192172,2549,2549,178065,435231,2545,280079,434174,433317,433317,NA,848,study_X,0,7586,1,yes,1680
undefined,undefined,NA,NA,NA,7586,7586,black,no,legacy,legacy,legacy,0,green,"(0, 123, 0)",shape,present,highProb,circular,same,same,same,swap,green,"(0, 123, 0)",lowProb,lowProb5,rectangular,uniform,1,undefined,0,0.28125,1,1,409.0208333,1,54,78532,0,0,0,0,0,0,0,0,82,0,1,0.28125,409.0208333,54,78532,81,81,81,11/22/2018 13:30,Default description,yes,<openexp._canvas.legacy.legacy object at 0x04285C10>,<openexp._canvas.legacy.legacy object at 0x042996B0>,<openexp._canvas.legacy.legacy object at 0x042A0E10>,<openexp._canvas.legacy.legacy object at 0x042939D0>,<openexp._canvas.legacy.legacy object at 0x042D1070>,<openexp._canvas.legacy.legacy object at 0x042761F0>,<openexp._canvas.legacy.legacy object at 0x04285DD0>,<openexp._canvas.legacy.legacy object at 0x0429D150>,75,SpatProbMultiple3.osexp,C:/Userdata/Michel/SpatProbMultiple3,no,mono,no,18,no,white,no,yes,0.09,98,1050,legacy,45,56,56,1,C:/Userdata/Michel/SpatProbMultiple3/beh/subject-3.csv,legacy,12,192,25,Jazzy James,3.1.9,yes,598477b2b83f69022949e7e9,47,green,circular,green,rectangular,0,\,1185,space,7586,7586,"(80, 80, 80)","(0, 123, 0)","(177, 0, 0)","(155, 155, 155)",2,legacy,experiment,"[2, 3, 4, 5, 6, 7, 0, 1]",\,2500,3000,0,8,252.7587515,1024,2,48000,-16,main,"[(0, -252), (178, -178), (252, 0), (178, 178), (0, 252), (-178, 178), (-252, 0), (-178, -178)]",[],27,odd,0,NA,268543,280079,280079,170478,169469,2549,192172,192172,2549,2549,178065,437711,2545,280079,436523,435665,435665,NA,848,study_X,0,7586,1,yes,1680
undefined,undefined,NA,NA,NA,7586,7586,black,no,legacy,legacy,legacy,0,green,"(0, 123, 0)",shape,present,lowProb5,circular,same,same,same,same,green,"(0, 123, 0)",lowProb,lowProb6,rectangular,uniform,1,undefined,0,0.286458333,1,1,415.25,1,55,79728,0,0,0,0,0,0,0,0,83,0,1,0.286458333,415.25,55,79728,82,82,82,11/22/2018 13:30,Default description,yes,<openexp._canvas.legacy.legacy object at 0x04285C10>,<openexp._canvas.legacy.legacy object at 0x042996B0>,<openexp._canvas.legacy.legacy object at 0x042A0E10>,<openexp._canvas.legacy.legacy object at 0x042939D0>,<openexp._canvas.legacy.legacy object at 0x042D1070>,<openexp._canvas.legacy.legacy object at 0x042761F0>,<openexp._canvas.legacy.legacy object at 0x047E0FF0>,<openexp._canvas.legacy.legacy object at 0x0429D150>,75,SpatProbMultiple3.osexp,C:/Userdata/Michel/SpatProbMultiple3,no,mono,no,18,no,white,no,yes,0.09,98,1050,legacy,315,57,57,1,C:/Userdata/Michel/SpatProbMultiple3/beh/subject-3.csv,legacy,12,192,25,Jazzy James,3.1.9,yes,598477b2b83f69022949e7e9,47,green,circular,green,rectangular,0,/,1196,space,7586,7586,"(80, 80, 80)","(0, 123, 0)","(177, 0, 0)","(155, 155, 155)",2,legacy,experiment,"[2, 3, 4, 5, 6, 7, 0, 1]",/,2500,3000,0,8,252.7587515,1024,2,48000,-16,main,"[(0, -252), (178, -178), (252, 0), (178, 178), (0, 252), (-178, 178), (-252, 0), (-178, -178)]",[],27,odd,1,NA,268543,280079,280079,170478,169469,2549,192172,192172,2549,2549,178065,440199,2545,280079,439000,438142,438143,NA,848,study_X,0,7586,1,yes,1680
undefined,undefined,NA,NA,NA,7586,7586,black,no,legacy,legacy,legacy,0,green,"(0, 123, 0)",shape,present,highProb,rectangular,same,swap,same,swap,green,"(0, 123, 0)",lowProb,lowProb2,circular,uniform,1,undefined,0,0.291666667,1,1,419.4166667,1,56,80528,0,0,0,0,0,0,0,0,84,0,1,0.291666667,419.4166667,56,80528,83,83,83,11/22/2018 13:30,Default description,yes,<openexp._canvas.legacy.legacy object at 0x04285C10>,<openexp._canvas.legacy.legacy object at 0x042996B0>,<openexp._canvas.legacy.legacy object at 0x042A0E10>,<openexp._canvas.legacy.legacy object at 0x042939D0>,<openexp._canvas.legacy.legacy object at 0x042D1070>,<openexp._canvas.legacy.legacy object at 0x042761F0>,<openexp._canvas.legacy.legacy object at 0x042A80F0>,<openexp._canvas.legacy.legacy object at 0x0429D150>,75,SpatProbMultiple3.osexp,C:/Userdata/Michel/SpatProbMultiple3,no,mono,no,18,no,white,no,yes,0.09,98,1050,legacy,45,58,58,1,C:/Userdata/Michel/SpatProbMultiple3/beh/subject-3.csv,legacy,12,192,25,Jazzy James,3.1.9,yes,598477b2b83f69022949e7e9,47,green,rectangular,green,circular,0,\,800,space,7586,7586,"(80, 80, 80)","(0, 123, 0)","(177, 0, 0)","(155, 155, 155)",2,legacy,experiment,"[2, 3, 4, 5, 6, 7, 0, 1]",\,2500,3000,0,8,252.7587515,1024,2,48000,-16,main,"[(0, -252), (178, -178), (252, 0), (178, 178), (0, 252), (-178, 178), (-252, 0), (-178, -178)]",[],27,odd,4,NA,268543,280079,280079,170478,169469,2549,192172,192172,2549,2549,178065,442303,2545,280079,441499,440641,440641,NA,848,study_X,0,7586,1,yes,1680
undefined,undefined,NA,NA,NA,7586,7586,black,no,legacy,legacy,legacy,0,green,"(0, 123, 0)",color,present,lowProb2,circular,same,swap,swap,same,red,"(177, 0, 0)",lowProb,lowProb3,circular,uniform,1,undefined,0,0.296875,1,1,427.3645833,1,57,82054,0,0,0,0,0,0,0,0,85,0,1,0.296875,427.3645833,57,82054,84,84,84,11/22/2018 13:30,Default description,yes,<openexp._canvas.legacy.legacy object at 0x04285C10>,<openexp._canvas.legacy.legacy object at 0x042996B0>,<openexp._canvas.legacy.legacy object at 0x042A0E10>,<openexp._canvas.legacy.legacy object at 0x042939D0>,<openexp._canvas.legacy.legacy object at 0x042D1070>,<openexp._canvas.legacy.legacy object at 0x042761F0>,<openexp._canvas.legacy.legacy object at 0x047E6510>,<openexp._canvas.legacy.legacy object at 0x0429D150>,75,SpatProbMultiple3.osexp,C:/Userdata/Michel/SpatProbMultiple3,no,mono,no,18,no,white,no,yes,0.09,98,1050,legacy,45,59,59,1,C:/Userdata/Michel/SpatProbMultiple3/beh/subject-3.csv,legacy,12,192,25,Jazzy James,3.1.9,yes,598477b2b83f69022949e7e9,47,green,circular,red,circular,0,\,1526,space,7586,7586,"(80, 80, 80)","(0, 123, 0)","(177, 0, 0)","(155, 155, 155)",2,legacy,experiment,"[2, 3, 4, 5, 6, 7, 0, 1]",\,2500,3000,0,8,252.7587515,1024,2,48000,-16,main,"[(0, -252), (178, -178), (252, 0), (178, 178), (0, 252), (-178, 178), (-252, 0), (-178, -178)]",[],27,odd,5,NA,268543,280079,280079,170478,169469,2549,192172,192172,2549,2549,178065,445127,2545,280079,443597,442740,442740,NA,848,study_X,0,7586,1,yes,1680
undefined,undefined,NA,NA,NA,7586,7586,black,no,legacy,legacy,legacy,0,green,"(0, 123, 0)",color,present,highProb,circular,same,same,same,same,red,"(177, 0, 0)",highProbShape,highProbShape,circular,uniform,1,undefined,0,0.302083333,1,1,433.171875,1,58,83169,0,0,0,0,0,0,0,0,86,0,1,0.302083333,433.171875,58,83169,85,85,85,11/22/2018 13:30,Default description,yes,<openexp._canvas.legacy.legacy object at 0x04285C10>,<openexp._canvas.legacy.legacy object at 0x042996B0>,<openexp._canvas.legacy.legacy object at 0x042A0E10>,<openexp._canvas.legacy.legacy object at 0x042939D0>,<openexp._canvas.legacy.legacy object at 0x042D1070>,<openexp._canvas.legacy.legacy object at 0x042761F0>,<openexp._canvas.legacy.legacy object at 0x042A0D90>,<openexp._canvas.legacy.legacy object at 0x0429D150>,75,SpatProbMultiple3.osexp,C:/Userdata/Michel/SpatProbMultiple3,no,mono,no,18,no,white,no,yes,0.09,98,1050,legacy,45,60,60,1,C:/Userdata/Michel/SpatProbMultiple3/beh/subject-3.csv,legacy,12,192,25,Jazzy James,3.1.9,yes,598477b2b83f69022949e7e9,47,green,circular,red,circular,0,\,1115,space,7586,7586,"(80, 80, 80)","(0, 123, 0)","(177, 0, 0)","(155, 155, 155)",2,legacy,experiment,"[2, 3, 4, 5, 6, 7, 0, 1]",\,2500,3000,0,8,252.7587515,1024,2,48000,-16,main,"[(0, -252), (178, -178), (252, 0), (178, 178), (0, 252), (-178, 178), (-252, 0), (-178, -178)]",[],27,odd,6,NA,268543,280079,280079,170478,169469,2549,192172,192172,2549,2549,178065,447559,2545,280079,446440,445583,445583,NA,848,study_X,0,7586,1,yes,1680
undefined,undefined,NA,NA,NA,7586,7586,black,no,legacy,legacy,legacy,0,green,"(0, 123, 0)",shape,present,lowProb4,circular,same,same,swap,swap,green,"(0, 123, 0)",lowProb,lowProb6,rectangular,uniform,1,undefined,0,0.307291667,1,1,443.953125,1,59,85239,0,0,0,0,0,0,0,0,87,0,1,0.307291667,443.953125,59,85239,86,86,86,11/22/2018 13:30,Default description,yes,<openexp._canvas.legacy.legacy object at 0x04285C10>,<openexp._canvas.legacy.legacy object at 0x042996B0>,<openexp._canvas.legacy.legacy object at 0x042A0E10>,<openexp._canvas.legacy.legacy object at 0x042939D0>,<openexp._canvas.legacy.legacy object at 0x042D1070>,<openexp._canvas.legacy.legacy object at 0x042761F0>,<openexp._canvas.legacy.legacy object at 0x042849F0>,<openexp._canvas.legacy.legacy object at 0x0429D150>,75,SpatProbMultiple3.osexp,C:/Userdata/Michel/SpatProbMultiple3,no,mono,no,18,no,white,no,yes,0.09,98,1050,legacy,45,61,61,1,C:/Userdata/Michel/SpatProbMultiple3/beh/subject-3.csv,legacy,12,192,25,Jazzy James,3.1.9,yes,598477b2b83f69022949e7e9,47,green,circular,green,rectangular,0,\,2070,space,7586,7586,"(80, 80, 80)","(0, 123, 0)","(177, 0, 0)","(155, 155, 155)",2,legacy,experiment,"[2, 3, 4, 5, 6, 7, 0, 1]",\,2500,3000,0,8,252.7587515,1024,2,48000,-16,main,"[(0, -252), (178, -178), (252, 0), (178, 178), (0, 252), (-178, 178), (-252, 0), (-178, -178)]",[],27,odd,1,NA,268543,280079,280079,170478,169469,2549,192172,192172,2549,2549,178065,450911,2545,280079,448838,447981,447981,NA,848,study_X,0,7586,1,yes,1680
undefined,undefined,NA,NA,NA,7586,7586,black,no,legacy,legacy,legacy,0,green,"(0, 123, 0)",color,absent,lowProb2,rectangular,same,swap,same,same,green,"(0, 123, 0)",lowProb,lowProb4,rectangular,uniform,1,undefined,0,0.3125,1,1,450.2239583,1,60,86443,0,0,0,0,0,0,0,0,88,0,1,0.3125,450.2239583,60,86443,87,87,87,11/22/2018 13:30,Default description,yes,<openexp._canvas.legacy.legacy object at 0x04285C10>,<openexp._canvas.legacy.legacy object at 0x042996B0>,<openexp._canvas.legacy.legacy object at 0x042A0E10>,<openexp._canvas.legacy.legacy object at 0x042939D0>,<openexp._canvas.legacy.legacy object at 0x042D1070>,<openexp._canvas.legacy.legacy object at 0x042761F0>,<openexp._canvas.legacy.legacy object at 0x047CF630>,<openexp._canvas.legacy.legacy object at 0x0429D150>,75,SpatProbMultiple3.osexp,C:/Userdata/Michel/SpatProbMultiple3,no,mono,no,18,no,white,no,yes,0.09,98,1050,legacy,315,62,62,1,C:/Userdata/Michel/SpatProbMultiple3/beh/subject-3.csv,legacy,12,192,25,Jazzy James,3.1.9,yes,598477b2b83f69022949e7e9,47,green,rectangular,green,rectangular,0,/,1204,space,7586,7586,"(80, 80, 80)","(0, 123, 0)","(177, 0, 0)","(155, 155, 155)",2,legacy,experiment,"[2, 3, 4, 5, 6, 7, 0, 1]",/,2500,3000,0,8,252.7587515,1024,2,48000,-16,main,"[(0, -252), (178, -178), (252, 0), (178, 178), (0, 252), (-178, 178), (-252, 0), (-178, -178)]",[],27,odd,7,NA,268543,280079,280079,170478,169469,2549,192172,192172,2549,2549,178065,453447,2545,280079,452240,451383,451383,NA,848,study_X,0,7586,1,yes,1680
undefined,undefined,NA,NA,NA,7586,7586,black,no,legacy,legacy,legacy,0,green,"(0, 123, 0)",color,present,highProb,circular,same,swap,swap,swap,red,"(177, 0, 0)",lowProb,lowProb3,circular,uniform,1,undefined,0,0.317708333,1,1,454.5989583,1,61,87283,0,0,0,0,0,0,0,0,89,0,1,0.317708333,454.5989583,61,87283,88,88,88,11/22/2018 13:30,Default description,yes,<openexp._canvas.legacy.legacy object at 0x04285C10>,<openexp._canvas.legacy.legacy object at 0x042996B0>,<openexp._canvas.legacy.legacy object at 0x042A0E10>,<openexp._canvas.legacy.legacy object at 0x042939D0>,<openexp._canvas.legacy.legacy object at 0x042D1070>,<openexp._canvas.legacy.legacy object at 0x042761F0>,<openexp._canvas.legacy.legacy object at 0x042843D0>,<openexp._canvas.legacy.legacy object at 0x0429D150>,75,SpatProbMultiple3.osexp,C:/Userdata/Michel/SpatProbMultiple3,no,mono,no,18,no,white,no,yes,0.09,98,1050,legacy,45,63,63,1,C:/Userdata/Michel/SpatProbMultiple3/beh/subject-3.csv,legacy,12,192,25,Jazzy James,3.1.9,yes,598477b2b83f69022949e7e9,47,green,circular,red,circular,0,\,840,space,7586,7586,"(80, 80, 80)","(0, 123, 0)","(177, 0, 0)","(155, 155, 155)",2,legacy,experiment,"[2, 3, 4, 5, 6, 7, 0, 1]",\,2500,3000,0,8,252.7587515,1024,2,48000,-16,main,"[(0, -252), (178, -178), (252, 0), (178, 178), (0, 252), (-178, 178), (-252, 0), (-178, -178)]",[],27,odd,5,NA,268543,280079,280079,170478,169469,2549,192172,192172,2549,2549,178065,455631,2545,280079,454788,453931,453931,NA,848,study_X,0,7586,1,yes,1680
undefined,undefined,NA,NA,NA,7586,7586,black,no,legacy,legacy,legacy,0,green,"(0, 123, 0)",shape,present,highProb,rectangular,same,swap,swap,same,green,"(0, 123, 0)",highProbColor,highProbColor,circular,uniform,1,undefined,0,0.322916667,1,1,466.1041667,1,62,89492,0,0,0,0,0,0,0,0,90,0,1,0.322916667,466.1041667,62,89492,89,89,89,11/22/2018 13:30,Default description,yes,<openexp._canvas.legacy.legacy object at 0x04285C10>,<openexp._canvas.legacy.legacy object at 0x042996B0>,<openexp._canvas.legacy.legacy object at 0x042A0E10>,<openexp._canvas.legacy.legacy object at 0x042939D0>,<openexp._canvas.legacy.legacy object at 0x042D1070>,<openexp._canvas.legacy.legacy object at 0x042761F0>,<openexp._canvas.legacy.legacy object at 0x047CFD30>,<openexp._canvas.legacy.legacy object at 0x0429D150>,75,SpatProbMultiple3.osexp,C:/Userdata/Michel/SpatProbMultiple3,no,mono,no,18,no,white,no,yes,0.09,98,1050,legacy,45,64,64,1,C:/Userdata/Michel/SpatProbMultiple3/beh/subject-3.csv,legacy,12,192,25,Jazzy James,3.1.9,yes,598477b2b83f69022949e7e9,47,green,rectangular,green,circular,0,\,2209,space,7586,7586,"(80, 80, 80)","(0, 123, 0)","(177, 0, 0)","(155, 155, 155)",2,legacy,experiment,"[2, 3, 4, 5, 6, 7, 0, 1]",\,2500,3000,0,8,252.7587515,1024,2,48000,-16,main,"[(0, -252), (178, -178), (252, 0), (178, 178), (0, 252), (-178, 178), (-252, 0), (-178, -178)]",[],27,odd,2,NA,268543,280079,280079,170478,169469,2549,192172,192172,2549,2549,178065,459143,2545,280079,456930,456073,456073,NA,848,study_X,0,7586,1,yes,1680
