acc,accuracy,answerQ1,answerQ2,answerQ3,average_response_time,avg_rt,background,bidi,canvas_backend,clock_backend,color_backend,compensation,cond_disColor,cond_disColorRGB,cond_disFeature,cond_disPresent,cond_disProbability,cond_disShape,cond_primingDisColor,cond_primingDisShape,cond_primingTarColor,cond_primingTarShape,cond_tarColor,cond_tarColorRGB,cond_tarLocation,cond_tarLocationLong,cond_tarShape,coordinates,correct,correct_continuePress,count_Questions,count_blockAcc,count_blockFeed,count_blockLoop,count_blockRT,count_blockSeq,count_blockSumCorrect,count_blockSumRT,count_continuePress,count_example,count_expSettings,count_exp_mainLoop,count_experiment,count_instructions,count_instructions1,count_instructions2,count_log,count_main,count_prepCanvas,count_totalAcc,count_totalRT,count_totalSumCorrect,count_totalSumRT,count_trialResp,count_trialSeq,count_trialTask,datetime,description,disable_garbage_collection,dispBlank,dispBlockStart,dispFeedBlock,dispFix,dispInstructions,dispQuestions,dispSearch,dispStartScreen,distance2screen,experiment_file,experiment_path,font_bold,font_family,font_italic,font_size,font_underline,foreground,form_clicks,fullscreen,gaborFreq,gaborSize,height,keyboard_backend,lineOriTar,live_row,live_row_blockLoop,live_row_exp_mainLoop,logfile,mouse_backend,noExpBlocks,noExpTrials,noPracTrials,opensesame_codename,opensesame_version,osf_always_upload_experiment,osf_id,physical_screensize,previousDisColor,previousDisShape,previousTarColor,previousTarShape,repeat_cycle,response,responseTime,response_continuePress,response_time,response_time_continuePress,rgb_gray,rgb_green,rgb_red,rgb_white,round_decimals,sampler_backend,set_blockType,set_counterPositions,set_respCorrect,set_respTimeoutExp,set_respTimeoutPrac,set_rotation,set_setSize,sizeImaginary,sound_buf_size,sound_channels,sound_freq,sound_sample_size,start,stimPositions,stimuli,subject_nr,subject_parity,tarIdx,time_Questions,time_blockFeed,time_blockLoop,time_blockSeq,time_continuePress,time_example,time_expSettings,time_exp_mainLoop,time_experiment,time_instructions,time_instructions1,time_instructions2,time_log,time_main,time_prepCanvas,time_trialResp,time_trialSeq,time_trialTask,timing_EEGwait,timing_fix,title,total_correct,total_response_time,total_responses,uniform_coordinates,width
undefined,undefined,NA,NA,NA,8738,8738,black,no,legacy,legacy,legacy,0,green,"(0, 123, 0)",color,present,lowProb1,rectangular,swap,swap,same,same,red,"(177, 0, 0)",lowProb,lowProb5,rectangular,uniform,1,undefined,0,0.005208333,1,1,6.901041667,1,1,1325,0,0,0,0,0,0,0,0,26,0,1,0.005208333,6.901041667,1,1325,25,25,25,11/21/2018 15:25,Default description,yes,<openexp._canvas.legacy.Legacy object at 0x055E91B0>,<openexp._canvas.legacy.Legacy object at 0x050A6330>,<openexp._canvas.legacy.Legacy object at 0x057BB530>,<openexp._canvas.legacy.Legacy object at 0x05515E70>,<openexp._canvas.legacy.Legacy object at 0x054FF8D0>,<openexp._canvas.legacy.Legacy object at 0x055E31F0>,<openexp._canvas.legacy.Legacy object at 0x057B9A50>,<openexp._canvas.legacy.Legacy object at 0x050A6E50>,75,SpatProbMultiple3 (2).osexp,C:/Userdata/Michel/SpatProbMultiple3,no,mono,no,18,no,white,no,yes,0.09,98,1050,legacy,45,0,0,1,C:/Userdata/Michel/SpatProbMultiple3/beh/subject-10.csv,legacy,12,192,25,Kafkaesque Koffka,3.2.5,yes,598477b2b83f69022949e7e9,47,green,rectangular,red,rectangular,0,\,1325,space,8738,8738,"(80, 80, 80)","(0, 123, 0)","(177, 0, 0)","(155, 155, 155)",2,legacy,experiment,"[1, 2, 3, 4, 5, 6, 7, 0]",\,2500,3000,0,8,252.7587515,1024,2,48000,-16,main,"[(0, -252), (178, -178), (252, 0), (178, 178), (0, 252), (-178, 178), (-252, 0), (-178, -178)]",[],34,even,7,NA,354749,421270,421270,186951,185939,2415,275493,275493,2415,2415,195690,428889,2414,421270,427562,421660,421660,NA,736,study_X,0,8738,1,yes,1680
undefined,undefined,NA,NA,NA,8738,8738,black,no,legacy,legacy,legacy,0,green,"(0, 123, 0)",shape,absent,highProbOther,circular,same,swap,swap,swap,green,"(0, 123, 0)",lowProb,lowProb1,circular,uniform,1,undefined,0,0.010416667,1,1,10.33333333,1,2,1984,0,0,0,0,0,0,0,0,27,0,1,0.010416667,10.33333333,2,1984,26,26,26,11/21/2018 15:25,Default description,yes,<openexp._canvas.legacy.Legacy object at 0x055E91B0>,<openexp._canvas.legacy.Legacy object at 0x050A6330>,<openexp._canvas.legacy.Legacy object at 0x057BB530>,<openexp._canvas.legacy.Legacy object at 0x05515E70>,<openexp._canvas.legacy.Legacy object at 0x054FF8D0>,<openexp._canvas.legacy.Legacy object at 0x055E31F0>,<openexp._canvas.legacy.Legacy object at 0x055F8BB0>,<openexp._canvas.legacy.Legacy object at 0x050A6E50>,75,SpatProbMultiple3 (2).osexp,C:/Userdata/Michel/SpatProbMultiple3,no,mono,no,18,no,white,no,yes,0.09,98,1050,legacy,45,1,1,1,C:/Userdata/Michel/SpatProbMultiple3/beh/subject-10.csv,legacy,12,192,25,Kafkaesque Koffka,3.2.5,yes,598477b2b83f69022949e7e9,47,green,circular,green,circular,0,\,659,space,8738,8738,"(80, 80, 80)","(0, 123, 0)","(177, 0, 0)","(155, 155, 155)",2,legacy,experiment,"[1, 2, 3, 4, 5, 6, 7, 0]",\,2500,3000,0,8,252.7587515,1024,2,48000,-16,main,"[(0, -252), (178, -178), (252, 0), (178, 178), (0, 252), (-178, 178), (-252, 0), (-178, -178)]",[],34,even,2,NA,354749,421270,421270,186951,185939,2415,275493,275493,2415,2415,195690,430761,2414,421270,430098,429352,429353,NA,736,study_X,0,8738,1,yes,1680
undefined,undefined,NA,NA,NA,8738,8738,black,no,legacy,legacy,legacy,0,green,"(0, 123, 0)",color,present,highProb,rectangular,same,swap,swap,swap,red,"(177, 0, 0)",lowProb,lowProb1,rectangular,uniform,1,undefined,0,0.015625,1,1,13.90104167,1,3,2669,0,0,0,0,0,0,0,0,28,0,1,0.015625,13.90104167,3,2669,27,27,27,11/21/2018 15:25,Default description,yes,<openexp._canvas.legacy.Legacy object at 0x055E91B0>,<openexp._canvas.legacy.Legacy object at 0x050A6330>,<openexp._canvas.legacy.Legacy object at 0x057BB530>,<openexp._canvas.legacy.Legacy object at 0x05515E70>,<openexp._canvas.legacy.Legacy object at 0x054FF8D0>,<openexp._canvas.legacy.Legacy object at 0x055E31F0>,<openexp._canvas.legacy.Legacy object at 0x050A6C70>,<openexp._canvas.legacy.Legacy object at 0x050A6E50>,75,SpatProbMultiple3 (2).osexp,C:/Userdata/Michel/SpatProbMultiple3,no,mono,no,18,no,white,no,yes,0.09,98,1050,legacy,45,2,2,1,C:/Userdata/Michel/SpatProbMultiple3/beh/subject-10.csv,legacy,12,192,25,Kafkaesque Koffka,3.2.5,yes,598477b2b83f69022949e7e9,47,green,rectangular,red,rectangular,0,\,685,space,8738,8738,"(80, 80, 80)","(0, 123, 0)","(177, 0, 0)","(155, 155, 155)",2,legacy,experiment,"[1, 2, 3, 4, 5, 6, 7, 0]",\,2500,3000,0,8,252.7587515,1024,2,48000,-16,main,"[(0, -252), (178, -178), (252, 0), (178, 178), (0, 252), (-178, 178), (-252, 0), (-178, -178)]",[],34,even,2,NA,354749,421270,421270,186951,185939,2415,275493,275493,2415,2415,195690,432617,2414,421270,431928,431183,431183,NA,736,study_X,0,8738,1,yes,1680
undefined,undefined,NA,NA,NA,8738,8738,black,no,legacy,legacy,legacy,0,green,"(0, 123, 0)",shape,present,lowProb6,circular,same,swap,swap,same,green,"(0, 123, 0)",highProbShape,highProbShape,rectangular,uniform,1,undefined,0,0.020833333,1,1,23.80208333,1,4,4570,0,0,0,0,0,0,0,0,29,0,1,0.020833333,23.80208333,4,4570,28,28,28,11/21/2018 15:25,Default description,yes,<openexp._canvas.legacy.Legacy object at 0x055E91B0>,<openexp._canvas.legacy.Legacy object at 0x050A6330>,<openexp._canvas.legacy.Legacy object at 0x057BB530>,<openexp._canvas.legacy.Legacy object at 0x05515E70>,<openexp._canvas.legacy.Legacy object at 0x054FF8D0>,<openexp._canvas.legacy.Legacy object at 0x055E31F0>,<openexp._canvas.legacy.Legacy object at 0x055F7FD0>,<openexp._canvas.legacy.Legacy object at 0x050A6E50>,75,SpatProbMultiple3 (2).osexp,C:/Userdata/Michel/SpatProbMultiple3,no,mono,no,18,no,white,no,yes,0.09,98,1050,legacy,45,3,3,1,C:/Userdata/Michel/SpatProbMultiple3/beh/subject-10.csv,legacy,12,192,25,Kafkaesque Koffka,3.2.5,yes,598477b2b83f69022949e7e9,47,green,circular,green,rectangular,0,\,1901,space,8738,8738,"(80, 80, 80)","(0, 123, 0)","(177, 0, 0)","(155, 155, 155)",2,legacy,experiment,"[1, 2, 3, 4, 5, 6, 7, 0]",\,2500,3000,0,8,252.7587515,1024,2,48000,-16,main,"[(0, -252), (178, -178), (252, 0), (178, 178), (0, 252), (-178, 178), (-252, 0), (-178, -178)]",[],34,even,5,NA,354749,421270,421270,186951,185939,2415,275493,275493,2415,2415,195690,435688,2414,421270,433784,433039,433039,NA,736,study_X,0,8738,1,yes,1680
undefined,undefined,NA,NA,NA,8738,8738,black,no,legacy,legacy,legacy,0,red,"(177, 0, 0)",color,present,highProb,rectangular,swap,swap,same,same,green,"(0, 123, 0)",lowProb,lowProb1,rectangular,uniform,1,undefined,0,0.026041667,1,1,28.99479167,1,5,5567,0,0,0,0,0,0,0,0,30,0,1,0.026041667,28.99479167,5,5567,29,29,29,11/21/2018 15:25,Default description,yes,<openexp._canvas.legacy.Legacy object at 0x055E91B0>,<openexp._canvas.legacy.Legacy object at 0x050A6330>,<openexp._canvas.legacy.Legacy object at 0x057BB530>,<openexp._canvas.legacy.Legacy object at 0x05515E70>,<openexp._canvas.legacy.Legacy object at 0x054FF8D0>,<openexp._canvas.legacy.Legacy object at 0x055E31F0>,<openexp._canvas.legacy.Legacy object at 0x055F8850>,<openexp._canvas.legacy.Legacy object at 0x050A6E50>,75,SpatProbMultiple3 (2).osexp,C:/Userdata/Michel/SpatProbMultiple3,no,mono,no,18,no,white,no,yes,0.09,98,1050,legacy,315,4,4,1,C:/Userdata/Michel/SpatProbMultiple3/beh/subject-10.csv,legacy,12,192,25,Kafkaesque Koffka,3.2.5,yes,598477b2b83f69022949e7e9,47,red,rectangular,green,rectangular,0,/,997,space,8738,8738,"(80, 80, 80)","(0, 123, 0)","(177, 0, 0)","(155, 155, 155)",2,legacy,experiment,"[1, 2, 3, 4, 5, 6, 7, 0]",/,2500,3000,0,8,252.7587515,1024,2,48000,-16,main,"[(0, -252), (178, -178), (252, 0), (178, 178), (0, 252), (-178, 178), (-252, 0), (-178, -178)]",[],34,even,2,NA,354749,421270,421270,186951,185939,2415,275493,275493,2415,2415,195690,437856,2414,421270,436857,436112,436112,NA,736,study_X,0,8738,1,yes,1680
undefined,undefined,NA,NA,NA,8738,8738,black,no,legacy,legacy,legacy,0,red,"(177, 0, 0)",shape,present,highProb,rectangular,same,same,swap,swap,red,"(177, 0, 0)",lowProb,lowProb4,circular,uniform,1,undefined,0,0.03125,1,1,40.63541667,1,6,7802,0,0,0,0,0,0,0,0,31,0,1,0.03125,40.63541667,6,7802,30,30,30,11/21/2018 15:25,Default description,yes,<openexp._canvas.legacy.Legacy object at 0x055E91B0>,<openexp._canvas.legacy.Legacy object at 0x050A6330>,<openexp._canvas.legacy.Legacy object at 0x057BB530>,<openexp._canvas.legacy.Legacy object at 0x05515E70>,<openexp._canvas.legacy.Legacy object at 0x054FF8D0>,<openexp._canvas.legacy.Legacy object at 0x055E31F0>,<openexp._canvas.legacy.Legacy object at 0x057C4F70>,<openexp._canvas.legacy.Legacy object at 0x050A6E50>,75,SpatProbMultiple3 (2).osexp,C:/Userdata/Michel/SpatProbMultiple3,no,mono,no,18,no,white,no,yes,0.09,98,1050,legacy,315,5,5,1,C:/Userdata/Michel/SpatProbMultiple3/beh/subject-10.csv,legacy,12,192,25,Kafkaesque Koffka,3.2.5,yes,598477b2b83f69022949e7e9,47,red,rectangular,red,circular,0,/,2235,space,8738,8738,"(80, 80, 80)","(0, 123, 0)","(177, 0, 0)","(155, 155, 155)",2,legacy,experiment,"[1, 2, 3, 4, 5, 6, 7, 0]",/,2500,3000,0,8,252.7587515,1024,2,48000,-16,main,"[(0, -252), (178, -178), (252, 0), (178, 178), (0, 252), (-178, 178), (-252, 0), (-178, -178)]",[],34,even,6,NA,354749,421270,421270,186951,185939,2415,275493,275493,2415,2415,195690,441272,2414,421270,439034,438289,438289,NA,736,study_X,0,8738,1,yes,1680
undefined,undefined,NA,NA,NA,8738,8738,black,no,legacy,legacy,legacy,0,green,"(0, 123, 0)",color,present,highProb,circular,swap,swap,same,same,red,"(177, 0, 0)",lowProb,lowProb6,circular,uniform,1,undefined,0,0.036458333,1,1,50.4375,1,7,9684,0,0,0,0,0,0,0,0,32,0,1,0.036458333,50.4375,7,9684,31,31,31,11/21/2018 15:25,Default description,yes,<openexp._canvas.legacy.Legacy object at 0x055E91B0>,<openexp._canvas.legacy.Legacy object at 0x050A6330>,<openexp._canvas.legacy.Legacy object at 0x057BB530>,<openexp._canvas.legacy.Legacy object at 0x05515E70>,<openexp._canvas.legacy.Legacy object at 0x054FF8D0>,<openexp._canvas.legacy.Legacy object at 0x055E31F0>,<openexp._canvas.legacy.Legacy object at 0x057B9AB0>,<openexp._canvas.legacy.Legacy object at 0x050A6E50>,75,SpatProbMultiple3 (2).osexp,C:/Userdata/Michel/SpatProbMultiple3,no,mono,no,18,no,white,no,yes,0.09,98,1050,legacy,315,6,6,1,C:/Userdata/Michel/SpatProbMultiple3/beh/subject-10.csv,legacy,12,192,25,Kafkaesque Koffka,3.2.5,yes,598477b2b83f69022949e7e9,47,green,circular,red,circular,0,/,1882,space,8738,8738,"(80, 80, 80)","(0, 123, 0)","(177, 0, 0)","(155, 155, 155)",2,legacy,experiment,"[1, 2, 3, 4, 5, 6, 7, 0]",/,2500,3000,0,8,252.7587515,1024,2,48000,-16,main,"[(0, -252), (178, -178), (252, 0), (178, 178), (0, 252), (-178, 178), (-252, 0), (-178, -178)]",[],34,even,0,NA,354749,421270,421270,186951,185939,2415,275493,275493,2415,2415,195690,444337,2414,421270,442452,441707,441707,NA,736,study_X,0,8738,1,yes,1680
undefined,undefined,NA,NA,NA,8738,8738,black,no,legacy,legacy,legacy,0,red,"(177, 0, 0)",color,absent,lowProb4,rectangular,swap,swap,same,swap,red,"(177, 0, 0)",lowProb,lowProb3,rectangular,uniform,1,undefined,0,0.041666667,1,1,56.05208333,1,8,10762,0,0,0,0,0,0,0,0,33,0,1,0.041666667,56.05208333,8,10762,32,32,32,11/21/2018 15:25,Default description,yes,<openexp._canvas.legacy.Legacy object at 0x055E91B0>,<openexp._canvas.legacy.Legacy object at 0x050A6330>,<openexp._canvas.legacy.Legacy object at 0x057BB530>,<openexp._canvas.legacy.Legacy object at 0x05515E70>,<openexp._canvas.legacy.Legacy object at 0x054FF8D0>,<openexp._canvas.legacy.Legacy object at 0x055E31F0>,<openexp._canvas.legacy.Legacy object at 0x050B8050>,<openexp._canvas.legacy.Legacy object at 0x050A6E50>,75,SpatProbMultiple3 (2).osexp,C:/Userdata/Michel/SpatProbMultiple3,no,mono,no,18,no,white,no,yes,0.09,98,1050,legacy,45,7,7,1,C:/Userdata/Michel/SpatProbMultiple3/beh/subject-10.csv,legacy,12,192,25,Kafkaesque Koffka,3.2.5,yes,598477b2b83f69022949e7e9,47,red,rectangular,red,rectangular,0,\,1078,space,8738,8738,"(80, 80, 80)","(0, 123, 0)","(177, 0, 0)","(155, 155, 155)",2,legacy,experiment,"[1, 2, 3, 4, 5, 6, 7, 0]",\,2500,3000,0,8,252.7587515,1024,2,48000,-16,main,"[(0, -252), (178, -178), (252, 0), (178, 178), (0, 252), (-178, 178), (-252, 0), (-178, -178)]",[],34,even,4,NA,354749,421270,421270,186951,185939,2415,275493,275493,2415,2415,195690,446585,2414,421270,445503,444757,444757,NA,736,study_X,0,8738,1,yes,1680
undefined,undefined,NA,NA,NA,8738,8738,black,no,legacy,legacy,legacy,0,green,"(0, 123, 0)",shape,absent,lowProb2,circular,swap,swap,swap,swap,green,"(0, 123, 0)",lowProb,lowProb6,circular,uniform,0,undefined,0,0.041666667,1,1,66.02083333,1,8,12676,0,0,0,0,0,0,0,0,34,0,1,0.041666667,66.02083333,8,12676,33,33,33,11/21/2018 15:25,Default description,yes,<openexp._canvas.legacy.Legacy object at 0x055E91B0>,<openexp._canvas.legacy.Legacy object at 0x050A6330>,<openexp._canvas.legacy.Legacy object at 0x057BB530>,<openexp._canvas.legacy.Legacy object at 0x05515E70>,<openexp._canvas.legacy.Legacy object at 0x054FF8D0>,<openexp._canvas.legacy.Legacy object at 0x055E31F0>,<openexp._canvas.legacy.Legacy object at 0x057B6290>,<openexp._canvas.legacy.Legacy object at 0x050A6E50>,75,SpatProbMultiple3 (2).osexp,C:/Userdata/Michel/SpatProbMultiple3,no,mono,no,18,no,white,no,yes,0.09,98,1050,legacy,45,8,8,1,C:/Userdata/Michel/SpatProbMultiple3/beh/subject-10.csv,legacy,12,192,25,Kafkaesque Koffka,3.2.5,yes,598477b2b83f69022949e7e9,47,green,circular,green,circular,0,/,1914,space,8738,8738,"(80, 80, 80)","(0, 123, 0)","(177, 0, 0)","(155, 155, 155)",2,legacy,experiment,"[1, 2, 3, 4, 5, 6, 7, 0]",\,2500,3000,0,8,252.7587515,1024,2,48000,-16,main,"[(0, -252), (178, -178), (252, 0), (178, 178), (0, 252), (-178, 178), (-252, 0), (-178, -178)]",[],34,even,0,NA,354749,421270,421270,186951,185939,2415,275493,275493,2415,2415,195690,449665,2414,421270,447748,447003,447003,NA,736,study_X,0,8738,1,yes,1680
undefined,undefined,NA,NA,NA,8738,8738,black,no,legacy,legacy,legacy,0,green,"(0, 123, 0)",shape,present,lowProb6,rectangular,same,swap,same,same,green,"(0, 123, 0)",lowProb,lowProb3,circular,uniform,1,undefined,0,0.046875,1,1,75.59895833,1,9,14515,0,0,0,0,0,0,0,0,35,0,1,0.046875,75.59895833,9,14515,34,34,34,11/21/2018 15:25,Default description,yes,<openexp._canvas.legacy.Legacy object at 0x055E91B0>,<openexp._canvas.legacy.Legacy object at 0x050A6330>,<openexp._canvas.legacy.Legacy object at 0x057BB530>,<openexp._canvas.legacy.Legacy object at 0x05515E70>,<openexp._canvas.legacy.Legacy object at 0x054FF8D0>,<openexp._canvas.legacy.Legacy object at 0x055E31F0>,<openexp._canvas.legacy.Legacy object at 0x055E9EF0>,<openexp._canvas.legacy.Legacy object at 0x050A6E50>,75,SpatProbMultiple3 (2).osexp,C:/Userdata/Michel/SpatProbMultiple3,no,mono,no,18,no,white,no,yes,0.09,98,1050,legacy,45,9,9,1,C:/Userdata/Michel/SpatProbMultiple3/beh/subject-10.csv,legacy,12,192,25,Kafkaesque Koffka,3.2.5,yes,598477b2b83f69022949e7e9,47,green,rectangular,green,circular,0,\,1839,space,8738,8738,"(80, 80, 80)","(0, 123, 0)","(177, 0, 0)","(155, 155, 155)",2,legacy,experiment,"[1, 2, 3, 4, 5, 6, 7, 0]",\,2500,3000,0,8,252.7587515,1024,2,48000,-16,main,"[(0, -252), (178, -178), (252, 0), (178, 178), (0, 252), (-178, 178), (-252, 0), (-178, -178)]",[],34,even,4,NA,354749,421270,421270,186951,185939,2415,275493,275493,2415,2415,195690,452680,2414,421270,450839,450095,450095,NA,736,study_X,0,8738,1,yes,1680
undefined,undefined,NA,NA,NA,8738,8738,black,no,legacy,legacy,legacy,0,green,"(0, 123, 0)",color,present,highProb,rectangular,same,same,swap,swap,red,"(177, 0, 0)",lowProb,lowProb3,rectangular,uniform,1,undefined,0,0.052083333,1,1,81.1875,1,10,15588,0,0,0,0,0,0,0,0,36,0,1,0.052083333,81.1875,10,15588,35,35,35,11/21/2018 15:25,Default description,yes,<openexp._canvas.legacy.Legacy object at 0x055E91B0>,<openexp._canvas.legacy.Legacy object at 0x050A6330>,<openexp._canvas.legacy.Legacy object at 0x057BB530>,<openexp._canvas.legacy.Legacy object at 0x05515E70>,<openexp._canvas.legacy.Legacy object at 0x054FF8D0>,<openexp._canvas.legacy.Legacy object at 0x055E31F0>,<openexp._canvas.legacy.Legacy object at 0x050B8190>,<openexp._canvas.legacy.Legacy object at 0x050A6E50>,75,SpatProbMultiple3 (2).osexp,C:/Userdata/Michel/SpatProbMultiple3,no,mono,no,18,no,white,no,yes,0.09,98,1050,legacy,315,10,10,1,C:/Userdata/Michel/SpatProbMultiple3/beh/subject-10.csv,legacy,12,192,25,Kafkaesque Koffka,3.2.5,yes,598477b2b83f69022949e7e9,47,green,rectangular,red,rectangular,0,/,1073,space,8738,8738,"(80, 80, 80)","(0, 123, 0)","(177, 0, 0)","(155, 155, 155)",2,legacy,experiment,"[1, 2, 3, 4, 5, 6, 7, 0]",/,2500,3000,0,8,252.7587515,1024,2,48000,-16,main,"[(0, -252), (178, -178), (252, 0), (178, 178), (0, 252), (-178, 178), (-252, 0), (-178, -178)]",[],34,even,4,NA,354749,421270,421270,186951,185939,2415,275493,275493,2415,2415,195690,454928,2414,421270,453852,453106,453107,NA,736,study_X,0,8738,1,yes,1680
undefined,undefined,NA,NA,NA,8738,8738,black,no,legacy,legacy,legacy,0,green,"(0, 123, 0)",shape,present,lowProb6,rectangular,same,same,swap,swap,green,"(0, 123, 0)",lowProb,lowProb5,circular,uniform,1,undefined,0,0.057291667,1,1,88.91666667,1,11,17072,0,0,0,0,0,0,0,0,37,0,1,0.057291667,88.91666667,11,17072,36,36,36,11/21/2018 15:25,Default description,yes,<openexp._canvas.legacy.Legacy object at 0x055E91B0>,<openexp._canvas.legacy.Legacy object at 0x050A6330>,<openexp._canvas.legacy.Legacy object at 0x057BB530>,<openexp._canvas.legacy.Legacy object at 0x05515E70>,<openexp._canvas.legacy.Legacy object at 0x054FF8D0>,<openexp._canvas.legacy.Legacy object at 0x055E31F0>,<openexp._canvas.legacy.Legacy object at 0x057BBFD0>,<openexp._canvas.legacy.Legacy object at 0x050A6E50>,75,SpatProbMultiple3 (2).osexp,C:/Userdata/Michel/SpatProbMultiple3,no,mono,no,18,no,white,no,yes,0.09,98,1050,legacy,45,11,11,1,C:/Userdata/Michel/SpatProbMultiple3/beh/subject-10.csv,legacy,12,192,25,Kafkaesque Koffka,3.2.5,yes,598477b2b83f69022949e7e9,47,green,rectangular,green,circular,0,\,1484,space,8738,8738,"(80, 80, 80)","(0, 123, 0)","(177, 0, 0)","(155, 155, 155)",2,legacy,experiment,"[1, 2, 3, 4, 5, 6, 7, 0]",\,2500,3000,0,8,252.7587515,1024,2,48000,-16,main,"[(0, -252), (178, -178), (252, 0), (178, 178), (0, 252), (-178, 178), (-252, 0), (-178, -178)]",[],34,even,7,NA,354749,421270,421270,186951,185939,2415,275493,275493,2415,2415,195690,457600,2414,421270,456113,455367,455367,NA,736,study_X,0,8738,1,yes,1680
undefined,undefined,NA,NA,NA,8738,8738,black,no,legacy,legacy,legacy,0,green,"(0, 123, 0)",shape,present,highProb,circular,same,swap,same,swap,green,"(0, 123, 0)",lowProb,lowProb5,rectangular,uniform,1,undefined,0,0.0625,1,1,92.578125,1,12,17775,0,0,0,0,0,0,0,0,38,0,1,0.0625,92.578125,12,17775,37,37,37,11/21/2018 15:25,Default description,yes,<openexp._canvas.legacy.Legacy object at 0x055E91B0>,<openexp._canvas.legacy.Legacy object at 0x050A6330>,<openexp._canvas.legacy.Legacy object at 0x057BB530>,<openexp._canvas.legacy.Legacy object at 0x05515E70>,<openexp._canvas.legacy.Legacy object at 0x054FF8D0>,<openexp._canvas.legacy.Legacy object at 0x055E31F0>,<openexp._canvas.legacy.Legacy object at 0x057BB7D0>,<openexp._canvas.legacy.Legacy object at 0x050A6E50>,75,SpatProbMultiple3 (2).osexp,C:/Userdata/Michel/SpatProbMultiple3,no,mono,no,18,no,white,no,yes,0.09,98,1050,legacy,45,12,12,1,C:/Userdata/Michel/SpatProbMultiple3/beh/subject-10.csv,legacy,12,192,25,Kafkaesque Koffka,3.2.5,yes,598477b2b83f69022949e7e9,47,green,circular,green,rectangular,0,\,703,space,8738,8738,"(80, 80, 80)","(0, 123, 0)","(177, 0, 0)","(155, 155, 155)",2,legacy,experiment,"[1, 2, 3, 4, 5, 6, 7, 0]",\,2500,3000,0,8,252.7587515,1024,2,48000,-16,main,"[(0, -252), (178, -178), (252, 0), (178, 178), (0, 252), (-178, 178), (-252, 0), (-178, -178)]",[],34,even,7,NA,354749,421270,421270,186951,185939,2415,275493,275493,2415,2415,195690,459480,2414,421270,458774,458029,458029,NA,736,study_X,0,8738,1,yes,1680
undefined,undefined,NA,NA,NA,8738,8738,black,no,legacy,legacy,legacy,0,green,"(0, 123, 0)",shape,present,highProbOther,circular,same,same,same,same,green,"(0, 123, 0)",lowProb,lowProb1,rectangular,uniform,1,undefined,0,0.067708333,1,1,96.84375,1,13,18594,0,0,0,0,0,0,0,0,39,0,1,0.067708333,96.84375,13,18594,38,38,38,11/21/2018 15:25,Default description,yes,<openexp._canvas.legacy.Legacy object at 0x055E91B0>,<openexp._canvas.legacy.Legacy object at 0x050A6330>,<openexp._canvas.legacy.Legacy object at 0x057BB530>,<openexp._canvas.legacy.Legacy object at 0x05515E70>,<openexp._canvas.legacy.Legacy object at 0x054FF8D0>,<openexp._canvas.legacy.Legacy object at 0x055E31F0>,<openexp._canvas.legacy.Legacy object at 0x050B81D0>,<openexp._canvas.legacy.Legacy object at 0x050A6E50>,75,SpatProbMultiple3 (2).osexp,C:/Userdata/Michel/SpatProbMultiple3,no,mono,no,18,no,white,no,yes,0.09,98,1050,legacy,45,13,13,1,C:/Userdata/Michel/SpatProbMultiple3/beh/subject-10.csv,legacy,12,192,25,Kafkaesque Koffka,3.2.5,yes,598477b2b83f69022949e7e9,47,green,circular,green,rectangular,0,\,819,space,8738,8738,"(80, 80, 80)","(0, 123, 0)","(177, 0, 0)","(155, 155, 155)",2,legacy,experiment,"[1, 2, 3, 4, 5, 6, 7, 0]",\,2500,3000,0,8,252.7587515,1024,2,48000,-16,main,"[(0, -252), (178, -178), (252, 0), (178, 178), (0, 252), (-178, 178), (-252, 0), (-178, -178)]",[],34,even,2,NA,354749,421270,421270,186951,185939,2415,275493,275493,2415,2415,195690,461473,2414,421270,460651,459906,459906,NA,736,study_X,0,8738,1,yes,1680
undefined,undefined,NA,NA,NA,8738,8738,black,no,legacy,legacy,legacy,0,red,"(177, 0, 0)",shape,present,highProb,circular,swap,same,swap,same,red,"(177, 0, 0)",lowProb,lowProb5,rectangular,uniform,1,undefined,0,0.072916667,1,1,103.5052083,1,14,19873,0,0,0,0,0,0,0,0,40,0,1,0.072916667,103.5052083,14,19873,39,39,39,11/21/2018 15:25,Default description,yes,<openexp._canvas.legacy.Legacy object at 0x055E91B0>,<openexp._canvas.legacy.Legacy object at 0x050A6330>,<openexp._canvas.legacy.Legacy object at 0x057BB530>,<openexp._canvas.legacy.Legacy object at 0x05515E70>,<openexp._canvas.legacy.Legacy object at 0x054FF8D0>,<openexp._canvas.legacy.Legacy object at 0x055E31F0>,<openexp._canvas.legacy.Legacy object at 0x055E9D90>,<openexp._canvas.legacy.Legacy object at 0x050A6E50>,75,SpatProbMultiple3 (2).osexp,C:/Userdata/Michel/SpatProbMultiple3,no,mono,no,18,no,white,no,yes,0.09,98,1050,legacy,315,14,14,1,C:/Userdata/Michel/SpatProbMultiple3/beh/subject-10.csv,legacy,12,192,25,Kafkaesque Koffka,3.2.5,yes,598477b2b83f69022949e7e9,47,red,circular,red,rectangular,0,/,1279,space,8738,8738,"(80, 80, 80)","(0, 123, 0)","(177, 0, 0)","(155, 155, 155)",2,legacy,experiment,"[1, 2, 3, 4, 5, 6, 7, 0]",/,2500,3000,0,8,252.7587515,1024,2,48000,-16,main,"[(0, -252), (178, -178), (252, 0), (178, 178), (0, 252), (-178, 178), (-252, 0), (-178, -178)]",[],34,even,7,NA,354749,421270,421270,186951,185939,2415,275493,275493,2415,2415,195690,463929,2414,421270,462646,461901,461901,NA,736,study_X,0,8738,1,yes,1680
undefined,undefined,NA,NA,NA,8738,8738,black,no,legacy,legacy,legacy,0,red,"(177, 0, 0)",color,present,lowProb2,rectangular,same,swap,swap,same,green,"(0, 123, 0)",lowProb,lowProb4,rectangular,uniform,0,undefined,0,0.072916667,1,1,113.1875,1,14,21732,0,0,0,0,0,0,0,0,41,0,1,0.072916667,113.1875,14,21732,40,40,40,11/21/2018 15:25,Default description,yes,<openexp._canvas.legacy.Legacy object at 0x055E91B0>,<openexp._canvas.legacy.Legacy object at 0x050A6330>,<openexp._canvas.legacy.Legacy object at 0x057BB530>,<openexp._canvas.legacy.Legacy object at 0x05515E70>,<openexp._canvas.legacy.Legacy object at 0x054FF8D0>,<openexp._canvas.legacy.Legacy object at 0x055E31F0>,<openexp._canvas.legacy.Legacy object at 0x057B9EF0>,<openexp._canvas.legacy.Legacy object at 0x050A6E50>,75,SpatProbMultiple3 (2).osexp,C:/Userdata/Michel/SpatProbMultiple3,no,mono,no,18,no,white,no,yes,0.09,98,1050,legacy,315,15,15,1,C:/Userdata/Michel/SpatProbMultiple3/beh/subject-10.csv,legacy,12,192,25,Kafkaesque Koffka,3.2.5,yes,598477b2b83f69022949e7e9,47,red,rectangular,green,rectangular,0,\,1859,space,8738,8738,"(80, 80, 80)","(0, 123, 0)","(177, 0, 0)","(155, 155, 155)",2,legacy,experiment,"[1, 2, 3, 4, 5, 6, 7, 0]",/,2500,3000,0,8,252.7587515,1024,2,48000,-16,main,"[(0, -252), (178, -178), (252, 0), (178, 178), (0, 252), (-178, 178), (-252, 0), (-178, -178)]",[],34,even,6,NA,354749,421270,421270,186951,185939,2415,275493,275493,2415,2415,195690,466960,2414,421270,465098,464353,464353,NA,736,study_X,0,8738,1,yes,1680
undefined,undefined,NA,NA,NA,8738,8738,black,no,legacy,legacy,legacy,0,green,"(0, 123, 0)",color,present,highProb,circular,swap,swap,swap,swap,red,"(177, 0, 0)",lowProb,lowProb5,circular,uniform,1,undefined,0,0.078125,1,1,118.578125,1,15,22767,0,0,0,0,0,0,0,0,42,0,1,0.078125,118.578125,15,22767,41,41,41,11/21/2018 15:25,Default description,yes,<openexp._canvas.legacy.Legacy object at 0x055E91B0>,<openexp._canvas.legacy.Legacy object at 0x050A6330>,<openexp._canvas.legacy.Legacy object at 0x057BB530>,<openexp._canvas.legacy.Legacy object at 0x05515E70>,<openexp._canvas.legacy.Legacy object at 0x054FF8D0>,<openexp._canvas.legacy.Legacy object at 0x055E31F0>,<openexp._canvas.legacy.Legacy object at 0x057CDED0>,<openexp._canvas.legacy.Legacy object at 0x050A6E50>,75,SpatProbMultiple3 (2).osexp,C:/Userdata/Michel/SpatProbMultiple3,no,mono,no,18,no,white,no,yes,0.09,98,1050,legacy,45,16,16,1,C:/Userdata/Michel/SpatProbMultiple3/beh/subject-10.csv,legacy,12,192,25,Kafkaesque Koffka,3.2.5,yes,598477b2b83f69022949e7e9,47,green,circular,red,circular,0,\,1035,space,8738,8738,"(80, 80, 80)","(0, 123, 0)","(177, 0, 0)","(155, 155, 155)",2,legacy,experiment,"[1, 2, 3, 4, 5, 6, 7, 0]",\,2500,3000,0,8,252.7587515,1024,2,48000,-16,main,"[(0, -252), (178, -178), (252, 0), (178, 178), (0, 252), (-178, 178), (-252, 0), (-178, -178)]",[],34,even,7,NA,354749,421270,421270,186951,185939,2415,275493,275493,2415,2415,195690,469176,2414,421270,468139,467394,467394,NA,736,study_X,0,8738,1,yes,1680
undefined,undefined,NA,NA,NA,8738,8738,black,no,legacy,legacy,legacy,0,red,"(177, 0, 0)",shape,present,highProb,rectangular,swap,swap,same,same,red,"(177, 0, 0)",highProbColor,highProbColor,circular,uniform,1,undefined,0,0.083333333,1,1,123.9947917,1,16,23807,0,0,0,0,0,0,0,0,43,0,1,0.083333333,123.9947917,16,23807,42,42,42,11/21/2018 15:25,Default description,yes,<openexp._canvas.legacy.Legacy object at 0x055E91B0>,<openexp._canvas.legacy.Legacy object at 0x050A6330>,<openexp._canvas.legacy.Legacy object at 0x057BB530>,<openexp._canvas.legacy.Legacy object at 0x05515E70>,<openexp._canvas.legacy.Legacy object at 0x054FF8D0>,<openexp._canvas.legacy.Legacy object at 0x055E31F0>,<openexp._canvas.legacy.Legacy object at 0x057C4F70>,<openexp._canvas.legacy.Legacy object at 0x050A6E50>,75,SpatProbMultiple3 (2).osexp,C:/Userdata/Michel/SpatProbMultiple3,no,mono,no,18,no,white,no,yes,0.09,98,1050,legacy,45,17,17,1,C:/Userdata/Michel/SpatProbMultiple3/beh/subject-10.csv,legacy,12,192,25,Kafkaesque Koffka,3.2.5,yes,598477b2b83f69022949e7e9,47,red,rectangular,red,circular,0,\,1040,space,8738,8738,"(80, 80, 80)","(0, 123, 0)","(177, 0, 0)","(155, 155, 155)",2,legacy,experiment,"[1, 2, 3, 4, 5, 6, 7, 0]",\,2500,3000,0,8,252.7587515,1024,2,48000,-16,main,"[(0, -252), (178, -178), (252, 0), (178, 178), (0, 252), (-178, 178), (-252, 0), (-178, -178)]",[],34,even,1,NA,354749,421270,421270,186951,185939,2415,275493,275493,2415,2415,195690,471392,2414,421270,470349,469603,469603,NA,736,study_X,0,8738,1,yes,1680
undefined,undefined,NA,NA,NA,8738,8738,black,no,legacy,legacy,legacy,0,green,"(0, 123, 0)",color,present,highProb,circular,swap,swap,same,same,red,"(177, 0, 0)",lowProb,lowProb3,circular,uniform,1,undefined,0,0.088541667,1,1,129.9791667,1,17,24956,0,0,0,0,0,0,0,0,44,0,1,0.088541667,129.9791667,17,24956,43,43,43,11/21/2018 15:25,Default description,yes,<openexp._canvas.legacy.Legacy object at 0x055E91B0>,<openexp._canvas.legacy.Legacy object at 0x050A6330>,<openexp._canvas.legacy.Legacy object at 0x057BB530>,<openexp._canvas.legacy.Legacy object at 0x05515E70>,<openexp._canvas.legacy.Legacy object at 0x054FF8D0>,<openexp._canvas.legacy.Legacy object at 0x055E31F0>,<openexp._canvas.legacy.Legacy object at 0x057B92B0>,<openexp._canvas.legacy.Legacy object at 0x050A6E50>,75,SpatProbMultiple3 (2).osexp,C:/Userdata/Michel/SpatProbMultiple3,no,mono,no,18,no,white,no,yes,0.09,98,1050,legacy,45,18,18,1,C:/Userdata/Michel/SpatProbMultiple3/beh/subject-10.csv,legacy,12,192,25,Kafkaesque Koffka,3.2.5,yes,598477b2b83f69022949e7e9,47,green,circular,red,circular,0,\,1149,space,8738,8738,"(80, 80, 80)","(0, 123, 0)","(177, 0, 0)","(155, 155, 155)",2,legacy,experiment,"[1, 2, 3, 4, 5, 6, 7, 0]",\,2500,3000,0,8,252.7587515,1024,2,48000,-16,main,"[(0, -252), (178, -178), (252, 0), (178, 178), (0, 252), (-178, 178), (-252, 0), (-178, -178)]",[],34,even,4,NA,354749,421270,421270,186951,185939,2415,275493,275493,2415,2415,195690,473728,2414,421270,472576,471831,471831,NA,736,study_X,0,8738,1,yes,1680
undefined,undefined,NA,NA,NA,8738,8738,black,no,legacy,legacy,legacy,0,red,"(177, 0, 0)",color,present,lowProb5,circular,swap,same,swap,same,green,"(0, 123, 0)",lowProb,lowProb3,circular,uniform,1,undefined,0,0.09375,1,1,133.2135417,1,18,25577,0,0,0,0,0,0,0,0,45,0,1,0.09375,133.2135417,18,25577,44,44,44,11/21/2018 15:25,Default description,yes,<openexp._canvas.legacy.Legacy object at 0x055E91B0>,<openexp._canvas.legacy.Legacy object at 0x050A6330>,<openexp._canvas.legacy.Legacy object at 0x057BB530>,<openexp._canvas.legacy.Legacy object at 0x05515E70>,<openexp._canvas.legacy.Legacy object at 0x054FF8D0>,<openexp._canvas.legacy.Legacy object at 0x055E31F0>,<openexp._canvas.legacy.Legacy object at 0x057BBF30>,<openexp._canvas.legacy.Legacy object at 0x050A6E50>,75,SpatProbMultiple3 (2).osexp,C:/Userdata/Michel/SpatProbMultiple3,no,mono,no,18,no,white,no,yes,0.09,98,1050,legacy,45,19,19,1,C:/Userdata/Michel/SpatProbMultiple3/beh/subject-10.csv,legacy,12,192,25,Kafkaesque Koffka,3.2.5,yes,598477b2b83f69022949e7e9,47,red,circular,green,circular,0,\,621,space,8738,8738,"(80, 80, 80)","(0, 123, 0)","(177, 0, 0)","(155, 155, 155)",2,legacy,experiment,"[1, 2, 3, 4, 5, 6, 7, 0]",\,2500,3000,0,8,252.7587515,1024,2,48000,-16,main,"[(0, -252), (178, -178), (252, 0), (178, 178), (0, 252), (-178, 178), (-252, 0), (-178, -178)]",[],34,even,4,NA,354749,421270,421270,186951,185939,2415,275493,275493,2415,2415,195690,475528,2414,421270,474904,474159,474159,NA,736,study_X,0,8738,1,yes,1680
undefined,undefined,NA,NA,NA,8738,8738,black,no,legacy,legacy,legacy,0,red,"(177, 0, 0)",shape,absent,lowProb1,rectangular,same,swap,swap,swap,red,"(177, 0, 0)",lowProb,lowProb1,rectangular,uniform,1,undefined,0,0.098958333,1,1,137.7708333,1,19,26452,0,0,0,0,0,0,0,0,46,0,1,0.098958333,137.7708333,19,26452,45,45,45,11/21/2018 15:25,Default description,yes,<openexp._canvas.legacy.Legacy object at 0x055E91B0>,<openexp._canvas.legacy.Legacy object at 0x050A6330>,<openexp._canvas.legacy.Legacy object at 0x057BB530>,<openexp._canvas.legacy.Legacy object at 0x05515E70>,<openexp._canvas.legacy.Legacy object at 0x054FF8D0>,<openexp._canvas.legacy.Legacy object at 0x055E31F0>,<openexp._canvas.legacy.Legacy object at 0x057BBC10>,<openexp._canvas.legacy.Legacy object at 0x050A6E50>,75,SpatProbMultiple3 (2).osexp,C:/Userdata/Michel/SpatProbMultiple3,no,mono,no,18,no,white,no,yes,0.09,98,1050,legacy,45,20,20,1,C:/Userdata/Michel/SpatProbMultiple3/beh/subject-10.csv,legacy,12,192,25,Kafkaesque Koffka,3.2.5,yes,598477b2b83f69022949e7e9,47,red,rectangular,red,rectangular,0,\,875,space,8738,8738,"(80, 80, 80)","(0, 123, 0)","(177, 0, 0)","(155, 155, 155)",2,legacy,experiment,"[1, 2, 3, 4, 5, 6, 7, 0]",\,2500,3000,0,8,252.7587515,1024,2,48000,-16,main,"[(0, -252), (178, -178), (252, 0), (178, 178), (0, 252), (-178, 178), (-252, 0), (-178, -178)]",[],34,even,2,NA,354749,421270,421270,186951,185939,2415,275493,275493,2415,2415,195690,477576,2414,421270,476698,475953,475953,NA,736,study_X,0,8738,1,yes,1680
undefined,undefined,NA,NA,NA,8738,8738,black,no,legacy,legacy,legacy,0,green,"(0, 123, 0)",shape,present,lowProb3,rectangular,swap,same,swap,swap,green,"(0, 123, 0)",lowProb,lowProb1,circular,uniform,1,undefined,0,0.104166667,1,1,140.5989583,1,20,26995,0,0,0,0,0,0,0,0,47,0,1,0.104166667,140.5989583,20,26995,46,46,46,11/21/2018 15:25,Default description,yes,<openexp._canvas.legacy.Legacy object at 0x055E91B0>,<openexp._canvas.legacy.Legacy object at 0x050A6330>,<openexp._canvas.legacy.Legacy object at 0x057BB530>,<openexp._canvas.legacy.Legacy object at 0x05515E70>,<openexp._canvas.legacy.Legacy object at 0x054FF8D0>,<openexp._canvas.legacy.Legacy object at 0x055E31F0>,<openexp._canvas.legacy.Legacy object at 0x055F8B10>,<openexp._canvas.legacy.Legacy object at 0x050A6E50>,75,SpatProbMultiple3 (2).osexp,C:/Userdata/Michel/SpatProbMultiple3,no,mono,no,18,no,white,no,yes,0.09,98,1050,legacy,45,21,21,1,C:/Userdata/Michel/SpatProbMultiple3/beh/subject-10.csv,legacy,12,192,25,Kafkaesque Koffka,3.2.5,yes,598477b2b83f69022949e7e9,47,green,rectangular,green,circular,0,\,543,space,8738,8738,"(80, 80, 80)","(0, 123, 0)","(177, 0, 0)","(155, 155, 155)",2,legacy,experiment,"[1, 2, 3, 4, 5, 6, 7, 0]",\,2500,3000,0,8,252.7587515,1024,2,48000,-16,main,"[(0, -252), (178, -178), (252, 0), (178, 178), (0, 252), (-178, 178), (-252, 0), (-178, -178)]",[],34,even,2,NA,354749,421270,421270,186951,185939,2415,275493,275493,2415,2415,195690,479289,2414,421270,478742,477997,477997,NA,736,study_X,0,8738,1,yes,1680
undefined,undefined,NA,NA,NA,8738,8738,black,no,legacy,legacy,legacy,0,red,"(177, 0, 0)",shape,absent,lowProb4,rectangular,swap,same,swap,swap,red,"(177, 0, 0)",lowProb,lowProb2,rectangular,uniform,1,undefined,0,0.109375,1,1,144.8489583,1,21,27811,0,0,0,0,0,0,0,0,48,0,1,0.109375,144.8489583,21,27811,47,47,47,11/21/2018 15:25,Default description,yes,<openexp._canvas.legacy.Legacy object at 0x055E91B0>,<openexp._canvas.legacy.Legacy object at 0x050A6330>,<openexp._canvas.legacy.Legacy object at 0x057BB530>,<openexp._canvas.legacy.Legacy object at 0x05515E70>,<openexp._canvas.legacy.Legacy object at 0x054FF8D0>,<openexp._canvas.legacy.Legacy object at 0x055E31F0>,<openexp._canvas.legacy.Legacy object at 0x057B65F0>,<openexp._canvas.legacy.Legacy object at 0x050A6E50>,75,SpatProbMultiple3 (2).osexp,C:/Userdata/Michel/SpatProbMultiple3,no,mono,no,18,no,white,no,yes,0.09,98,1050,legacy,315,22,22,1,C:/Userdata/Michel/SpatProbMultiple3/beh/subject-10.csv,legacy,12,192,25,Kafkaesque Koffka,3.2.5,yes,598477b2b83f69022949e7e9,47,red,rectangular,red,rectangular,0,/,816,space,8738,8738,"(80, 80, 80)","(0, 123, 0)","(177, 0, 0)","(155, 155, 155)",2,legacy,experiment,"[1, 2, 3, 4, 5, 6, 7, 0]",/,2500,3000,0,8,252.7587515,1024,2,48000,-16,main,"[(0, -252), (178, -178), (252, 0), (178, 178), (0, 252), (-178, 178), (-252, 0), (-178, -178)]",[],34,even,3,NA,354749,421270,421270,186951,185939,2415,275493,275493,2415,2415,195690,481273,2414,421270,480453,479707,479707,NA,736,study_X,0,8738,1,yes,1680
undefined,undefined,NA,NA,NA,8738,8738,black,no,legacy,legacy,legacy,0,red,"(177, 0, 0)",shape,present,highProb,rectangular,same,same,same,swap,red,"(177, 0, 0)",highProbColor,highProbColor,circular,uniform,1,undefined,0,0.114583333,1,1,148.09375,1,22,28434,0,0,0,0,0,0,0,0,49,0,1,0.114583333,148.09375,22,28434,48,48,48,11/21/2018 15:25,Default description,yes,<openexp._canvas.legacy.Legacy object at 0x055E91B0>,<openexp._canvas.legacy.Legacy object at 0x050A6330>,<openexp._canvas.legacy.Legacy object at 0x057BB530>,<openexp._canvas.legacy.Legacy object at 0x05515E70>,<openexp._canvas.legacy.Legacy object at 0x054FF8D0>,<openexp._canvas.legacy.Legacy object at 0x055E31F0>,<openexp._canvas.legacy.Legacy object at 0x057CDC30>,<openexp._canvas.legacy.Legacy object at 0x050A6E50>,75,SpatProbMultiple3 (2).osexp,C:/Userdata/Michel/SpatProbMultiple3,no,mono,no,18,no,white,no,yes,0.09,98,1050,legacy,315,23,23,1,C:/Userdata/Michel/SpatProbMultiple3/beh/subject-10.csv,legacy,12,192,25,Kafkaesque Koffka,3.2.5,yes,598477b2b83f69022949e7e9,47,red,rectangular,red,circular,0,/,623,space,8738,8738,"(80, 80, 80)","(0, 123, 0)","(177, 0, 0)","(155, 155, 155)",2,legacy,experiment,"[1, 2, 3, 4, 5, 6, 7, 0]",/,2500,3000,0,8,252.7587515,1024,2,48000,-16,main,"[(0, -252), (178, -178), (252, 0), (178, 178), (0, 252), (-178, 178), (-252, 0), (-178, -178)]",[],34,even,1,NA,354749,421270,421270,186951,185939,2415,275493,275493,2415,2415,195690,483072,2414,421270,482446,481700,481700,NA,736,study_X,0,8738,1,yes,1680
undefined,undefined,NA,NA,NA,8738,8738,black,no,legacy,legacy,legacy,0,green,"(0, 123, 0)",color,present,lowProb4,rectangular,swap,same,same,swap,red,"(177, 0, 0)",lowProb,lowProb6,rectangular,uniform,1,undefined,0,0.119791667,1,1,151.2291667,1,23,29036,0,0,0,0,0,0,0,0,50,0,1,0.119791667,151.2291667,23,29036,49,49,49,11/21/2018 15:25,Default description,yes,<openexp._canvas.legacy.Legacy object at 0x055E91B0>,<openexp._canvas.legacy.Legacy object at 0x050A6330>,<openexp._canvas.legacy.Legacy object at 0x057BB530>,<openexp._canvas.legacy.Legacy object at 0x05515E70>,<openexp._canvas.legacy.Legacy object at 0x054FF8D0>,<openexp._canvas.legacy.Legacy object at 0x055E31F0>,<openexp._canvas.legacy.Legacy object at 0x055F85B0>,<openexp._canvas.legacy.Legacy object at 0x050A6E50>,75,SpatProbMultiple3 (2).osexp,C:/Userdata/Michel/SpatProbMultiple3,no,mono,no,18,no,white,no,yes,0.09,98,1050,legacy,315,24,24,1,C:/Userdata/Michel/SpatProbMultiple3/beh/subject-10.csv,legacy,12,192,25,Kafkaesque Koffka,3.2.5,yes,598477b2b83f69022949e7e9,47,green,rectangular,red,rectangular,0,/,602,space,8738,8738,"(80, 80, 80)","(0, 123, 0)","(177, 0, 0)","(155, 155, 155)",2,legacy,experiment,"[1, 2, 3, 4, 5, 6, 7, 0]",/,2500,3000,0,8,252.7587515,1024,2,48000,-16,main,"[(0, -252), (178, -178), (252, 0), (178, 178), (0, 252), (-178, 178), (-252, 0), (-178, -178)]",[],34,even,0,NA,354749,421270,421270,186951,185939,2415,275493,275493,2415,2415,195690,484856,2414,421270,484251,483505,483505,NA,736,study_X,0,8738,1,yes,1680
undefined,undefined,NA,NA,NA,8738,8738,black,no,legacy,legacy,legacy,0,red,"(177, 0, 0)",color,present,highProb,circular,swap,swap,swap,swap,green,"(0, 123, 0)",lowProb,lowProb5,circular,uniform,1,undefined,0,0.125,1,1,160.9427083,1,24,30901,0,0,0,0,0,0,0,0,51,0,1,0.125,160.9427083,24,30901,50,50,50,11/21/2018 15:25,Default description,yes,<openexp._canvas.legacy.Legacy object at 0x055E91B0>,<openexp._canvas.legacy.Legacy object at 0x050A6330>,<openexp._canvas.legacy.Legacy object at 0x057BB530>,<openexp._canvas.legacy.Legacy object at 0x05515E70>,<openexp._canvas.legacy.Legacy object at 0x054FF8D0>,<openexp._canvas.legacy.Legacy object at 0x055E31F0>,<openexp._canvas.legacy.Legacy object at 0x057B6710>,<openexp._canvas.legacy.Legacy object at 0x050A6E50>,75,SpatProbMultiple3 (2).osexp,C:/Userdata/Michel/SpatProbMultiple3,no,mono,no,18,no,white,no,yes,0.09,98,1050,legacy,315,25,25,1,C:/Userdata/Michel/SpatProbMultiple3/beh/subject-10.csv,legacy,12,192,25,Kafkaesque Koffka,3.2.5,yes,598477b2b83f69022949e7e9,47,red,circular,green,circular,0,/,1865,space,8738,8738,"(80, 80, 80)","(0, 123, 0)","(177, 0, 0)","(155, 155, 155)",2,legacy,experiment,"[1, 2, 3, 4, 5, 6, 7, 0]",/,2500,3000,0,8,252.7587515,1024,2,48000,-16,main,"[(0, -252), (178, -178), (252, 0), (178, 178), (0, 252), (-178, 178), (-252, 0), (-178, -178)]",[],34,even,7,NA,354749,421270,421270,186951,185939,2415,275493,275493,2415,2415,195690,487928,2414,421270,486061,485316,485316,NA,736,study_X,0,8738,1,yes,1680
undefined,undefined,NA,NA,NA,8738,8738,black,no,legacy,legacy,legacy,0,red,"(177, 0, 0)",shape,absent,highProbOther,rectangular,same,swap,swap,swap,red,"(177, 0, 0)",lowProb,lowProb4,rectangular,uniform,1,undefined,0,0.130208333,1,1,167.4322917,1,25,32147,0,0,0,0,0,0,0,0,52,0,1,0.130208333,167.4322917,25,32147,51,51,51,11/21/2018 15:25,Default description,yes,<openexp._canvas.legacy.Legacy object at 0x055E91B0>,<openexp._canvas.legacy.Legacy object at 0x050A6330>,<openexp._canvas.legacy.Legacy object at 0x057BB530>,<openexp._canvas.legacy.Legacy object at 0x05515E70>,<openexp._canvas.legacy.Legacy object at 0x054FF8D0>,<openexp._canvas.legacy.Legacy object at 0x055E31F0>,<openexp._canvas.legacy.Legacy object at 0x050A6F90>,<openexp._canvas.legacy.Legacy object at 0x050A6E50>,75,SpatProbMultiple3 (2).osexp,C:/Userdata/Michel/SpatProbMultiple3,no,mono,no,18,no,white,no,yes,0.09,98,1050,legacy,315,26,26,1,C:/Userdata/Michel/SpatProbMultiple3/beh/subject-10.csv,legacy,12,192,25,Kafkaesque Koffka,3.2.5,yes,598477b2b83f69022949e7e9,47,red,rectangular,red,rectangular,0,/,1246,space,8738,8738,"(80, 80, 80)","(0, 123, 0)","(177, 0, 0)","(155, 155, 155)",2,legacy,experiment,"[1, 2, 3, 4, 5, 6, 7, 0]",/,2500,3000,0,8,252.7587515,1024,2,48000,-16,main,"[(0, -252), (178, -178), (252, 0), (178, 178), (0, 252), (-178, 178), (-252, 0), (-178, -178)]",[],34,even,6,NA,354749,421270,421270,186951,185939,2415,275493,275493,2415,2415,195690,490336,2414,421270,489088,488343,488343,NA,736,study_X,0,8738,1,yes,1680
undefined,undefined,NA,NA,NA,8738,8738,black,no,legacy,legacy,legacy,0,red,"(177, 0, 0)",shape,present,highProb,circular,same,swap,same,same,red,"(177, 0, 0)",lowProb,lowProb2,rectangular,uniform,0,undefined,0,0.130208333,1,1,171.359375,1,25,32901,0,0,0,0,0,0,0,0,53,0,1,0.130208333,171.359375,25,32901,52,52,52,11/21/2018 15:25,Default description,yes,<openexp._canvas.legacy.Legacy object at 0x055E91B0>,<openexp._canvas.legacy.Legacy object at 0x050A6330>,<openexp._canvas.legacy.Legacy object at 0x057BB530>,<openexp._canvas.legacy.Legacy object at 0x05515E70>,<openexp._canvas.legacy.Legacy object at 0x054FF8D0>,<openexp._canvas.legacy.Legacy object at 0x055E31F0>,<openexp._canvas.legacy.Legacy object at 0x055E9FD0>,<openexp._canvas.legacy.Legacy object at 0x050A6E50>,75,SpatProbMultiple3 (2).osexp,C:/Userdata/Michel/SpatProbMultiple3,no,mono,no,18,no,white,no,yes,0.09,98,1050,legacy,45,27,27,1,C:/Userdata/Michel/SpatProbMultiple3/beh/subject-10.csv,legacy,12,192,25,Kafkaesque Koffka,3.2.5,yes,598477b2b83f69022949e7e9,47,red,circular,red,rectangular,0,/,754,space,8738,8738,"(80, 80, 80)","(0, 123, 0)","(177, 0, 0)","(155, 155, 155)",2,legacy,experiment,"[1, 2, 3, 4, 5, 6, 7, 0]",\,2500,3000,0,8,252.7587515,1024,2,48000,-16,main,"[(0, -252), (178, -178), (252, 0), (178, 178), (0, 252), (-178, 178), (-252, 0), (-178, -178)]",[],34,even,3,NA,354749,421270,421270,186951,185939,2415,275493,275493,2415,2415,195690,492288,2414,421270,491530,490784,490784,NA,736,study_X,0,8738,1,yes,1680
undefined,undefined,NA,NA,NA,8738,8738,black,no,legacy,legacy,legacy,0,green,"(0, 123, 0)",shape,present,highProbOther,circular,swap,same,swap,same,green,"(0, 123, 0)",highProbShape,highProbShape,rectangular,uniform,1,undefined,0,0.135416667,1,1,176.6041667,1,26,33908,0,0,0,0,0,0,0,0,54,0,1,0.135416667,176.6041667,26,33908,53,53,53,11/21/2018 15:25,Default description,yes,<openexp._canvas.legacy.Legacy object at 0x055E91B0>,<openexp._canvas.legacy.Legacy object at 0x050A6330>,<openexp._canvas.legacy.Legacy object at 0x057BB530>,<openexp._canvas.legacy.Legacy object at 0x05515E70>,<openexp._canvas.legacy.Legacy object at 0x054FF8D0>,<openexp._canvas.legacy.Legacy object at 0x055E31F0>,<openexp._canvas.legacy.Legacy object at 0x050B8510>,<openexp._canvas.legacy.Legacy object at 0x050A6E50>,75,SpatProbMultiple3 (2).osexp,C:/Userdata/Michel/SpatProbMultiple3,no,mono,no,18,no,white,no,yes,0.09,98,1050,legacy,45,28,28,1,C:/Userdata/Michel/SpatProbMultiple3/beh/subject-10.csv,legacy,12,192,25,Kafkaesque Koffka,3.2.5,yes,598477b2b83f69022949e7e9,47,green,circular,green,rectangular,0,\,1007,space,8738,8738,"(80, 80, 80)","(0, 123, 0)","(177, 0, 0)","(155, 155, 155)",2,legacy,experiment,"[1, 2, 3, 4, 5, 6, 7, 0]",\,2500,3000,0,8,252.7587515,1024,2,48000,-16,main,"[(0, -252), (178, -178), (252, 0), (178, 178), (0, 252), (-178, 178), (-252, 0), (-178, -178)]",[],34,even,5,NA,354749,421270,421270,186951,185939,2415,275493,275493,2415,2415,195690,494472,2414,421270,493461,492715,492715,NA,736,study_X,0,8738,1,yes,1680
undefined,undefined,NA,NA,NA,8738,8738,black,no,legacy,legacy,legacy,0,green,"(0, 123, 0)",shape,present,highProb,rectangular,same,swap,same,swap,green,"(0, 123, 0)",lowProb,lowProb1,circular,uniform,1,undefined,0,0.140625,1,1,179.90625,1,27,34542,0,0,0,0,0,0,0,0,55,0,1,0.140625,179.90625,27,34542,54,54,54,11/21/2018 15:25,Default description,yes,<openexp._canvas.legacy.Legacy object at 0x055E91B0>,<openexp._canvas.legacy.Legacy object at 0x050A6330>,<openexp._canvas.legacy.Legacy object at 0x057BB530>,<openexp._canvas.legacy.Legacy object at 0x05515E70>,<openexp._canvas.legacy.Legacy object at 0x054FF8D0>,<openexp._canvas.legacy.Legacy object at 0x055E31F0>,<openexp._canvas.legacy.Legacy object at 0x055E9EF0>,<openexp._canvas.legacy.Legacy object at 0x050A6E50>,75,SpatProbMultiple3 (2).osexp,C:/Userdata/Michel/SpatProbMultiple3,no,mono,no,18,no,white,no,yes,0.09,98,1050,legacy,45,29,29,1,C:/Userdata/Michel/SpatProbMultiple3/beh/subject-10.csv,legacy,12,192,25,Kafkaesque Koffka,3.2.5,yes,598477b2b83f69022949e7e9,47,green,rectangular,green,circular,0,\,634,space,8738,8738,"(80, 80, 80)","(0, 123, 0)","(177, 0, 0)","(155, 155, 155)",2,legacy,experiment,"[1, 2, 3, 4, 5, 6, 7, 0]",\,2500,3000,0,8,252.7587515,1024,2,48000,-16,main,"[(0, -252), (178, -178), (252, 0), (178, 178), (0, 252), (-178, 178), (-252, 0), (-178, -178)]",[],34,even,2,NA,354749,421270,421270,186951,185939,2415,275493,275493,2415,2415,195690,496281,2414,421270,495644,494898,494898,NA,736,study_X,0,8738,1,yes,1680
undefined,undefined,NA,NA,NA,8738,8738,black,no,legacy,legacy,legacy,0,red,"(177, 0, 0)",color,present,lowProb5,circular,swap,swap,same,same,green,"(0, 123, 0)",highProbColor,highProbColor,circular,uniform,1,undefined,0,0.145833333,1,1,190.6875,1,28,36612,0,0,0,0,0,0,0,0,56,0,1,0.145833333,190.6875,28,36612,55,55,55,11/21/2018 15:25,Default description,yes,<openexp._canvas.legacy.Legacy object at 0x055E91B0>,<openexp._canvas.legacy.Legacy object at 0x050A6330>,<openexp._canvas.legacy.Legacy object at 0x057BB530>,<openexp._canvas.legacy.Legacy object at 0x05515E70>,<openexp._canvas.legacy.Legacy object at 0x054FF8D0>,<openexp._canvas.legacy.Legacy object at 0x055E31F0>,<openexp._canvas.legacy.Legacy object at 0x057BBCD0>,<openexp._canvas.legacy.Legacy object at 0x050A6E50>,75,SpatProbMultiple3 (2).osexp,C:/Userdata/Michel/SpatProbMultiple3,no,mono,no,18,no,white,no,yes,0.09,98,1050,legacy,315,30,30,1,C:/Userdata/Michel/SpatProbMultiple3/beh/subject-10.csv,legacy,12,192,25,Kafkaesque Koffka,3.2.5,yes,598477b2b83f69022949e7e9,47,red,circular,green,circular,0,/,2070,space,8738,8738,"(80, 80, 80)","(0, 123, 0)","(177, 0, 0)","(155, 155, 155)",2,legacy,experiment,"[1, 2, 3, 4, 5, 6, 7, 0]",/,2500,3000,0,8,252.7587515,1024,2,48000,-16,main,"[(0, -252), (178, -178), (252, 0), (178, 178), (0, 252), (-178, 178), (-252, 0), (-178, -178)]",[],34,even,1,NA,354749,421270,421270,186951,185939,2415,275493,275493,2415,2415,195690,499528,2414,421270,497456,496710,496710,NA,736,study_X,0,8738,1,yes,1680
undefined,undefined,NA,NA,NA,8738,8738,black,no,legacy,legacy,legacy,0,green,"(0, 123, 0)",shape,present,highProbOther,rectangular,swap,swap,same,same,green,"(0, 123, 0)",lowProb,lowProb1,circular,uniform,1,undefined,0,0.151041667,1,1,194.7447917,1,29,37391,0,0,0,0,0,0,0,0,57,0,1,0.151041667,194.7447917,29,37391,56,56,56,11/21/2018 15:25,Default description,yes,<openexp._canvas.legacy.Legacy object at 0x055E91B0>,<openexp._canvas.legacy.Legacy object at 0x050A6330>,<openexp._canvas.legacy.Legacy object at 0x057BB530>,<openexp._canvas.legacy.Legacy object at 0x05515E70>,<openexp._canvas.legacy.Legacy object at 0x054FF8D0>,<openexp._canvas.legacy.Legacy object at 0x055E31F0>,<openexp._canvas.legacy.Legacy object at 0x057B6730>,<openexp._canvas.legacy.Legacy object at 0x050A6E50>,75,SpatProbMultiple3 (2).osexp,C:/Userdata/Michel/SpatProbMultiple3,no,mono,no,18,no,white,no,yes,0.09,98,1050,legacy,315,31,31,1,C:/Userdata/Michel/SpatProbMultiple3/beh/subject-10.csv,legacy,12,192,25,Kafkaesque Koffka,3.2.5,yes,598477b2b83f69022949e7e9,47,green,rectangular,green,circular,0,/,779,space,8738,8738,"(80, 80, 80)","(0, 123, 0)","(177, 0, 0)","(155, 155, 155)",2,legacy,experiment,"[1, 2, 3, 4, 5, 6, 7, 0]",/,2500,3000,0,8,252.7587515,1024,2,48000,-16,main,"[(0, -252), (178, -178), (252, 0), (178, 178), (0, 252), (-178, 178), (-252, 0), (-178, -178)]",[],34,even,2,NA,354749,421270,421270,186951,185939,2415,275493,275493,2415,2415,195690,501488,2414,421270,500706,499961,499961,NA,736,study_X,0,8738,1,yes,1680
undefined,undefined,NA,NA,NA,8738,8738,black,no,legacy,legacy,legacy,0,red,"(177, 0, 0)",color,absent,highProbOther,circular,swap,swap,swap,same,red,"(177, 0, 0)",lowProb,lowProb4,circular,uniform,1,undefined,0,0.15625,1,1,199.9166667,1,30,38384,0,0,0,0,0,0,0,0,58,0,1,0.15625,199.9166667,30,38384,57,57,57,11/21/2018 15:25,Default description,yes,<openexp._canvas.legacy.Legacy object at 0x055E91B0>,<openexp._canvas.legacy.Legacy object at 0x050A6330>,<openexp._canvas.legacy.Legacy object at 0x057BB530>,<openexp._canvas.legacy.Legacy object at 0x05515E70>,<openexp._canvas.legacy.Legacy object at 0x054FF8D0>,<openexp._canvas.legacy.Legacy object at 0x055E31F0>,<openexp._canvas.legacy.Legacy object at 0x057CDAD0>,<openexp._canvas.legacy.Legacy object at 0x050A6E50>,75,SpatProbMultiple3 (2).osexp,C:/Userdata/Michel/SpatProbMultiple3,no,mono,no,18,no,white,no,yes,0.09,98,1050,legacy,315,32,32,1,C:/Userdata/Michel/SpatProbMultiple3/beh/subject-10.csv,legacy,12,192,25,Kafkaesque Koffka,3.2.5,yes,598477b2b83f69022949e7e9,47,red,circular,red,circular,0,/,993,space,8738,8738,"(80, 80, 80)","(0, 123, 0)","(177, 0, 0)","(155, 155, 155)",2,legacy,experiment,"[1, 2, 3, 4, 5, 6, 7, 0]",/,2500,3000,0,8,252.7587515,1024,2,48000,-16,main,"[(0, -252), (178, -178), (252, 0), (178, 178), (0, 252), (-178, 178), (-252, 0), (-178, -178)]",[],34,even,6,NA,354749,421270,421270,186951,185939,2415,275493,275493,2415,2415,195690,503664,2414,421270,502668,501922,501922,NA,736,study_X,0,8738,1,yes,1680
undefined,undefined,NA,NA,NA,8738,8738,black,no,legacy,legacy,legacy,0,green,"(0, 123, 0)",shape,present,highProb,circular,swap,same,swap,swap,green,"(0, 123, 0)",lowProb,lowProb1,rectangular,uniform,0,undefined,0,0.15625,1,1,206.7864583,1,30,39703,0,0,0,0,0,0,0,0,59,0,1,0.15625,206.7864583,30,39703,58,58,58,11/21/2018 15:25,Default description,yes,<openexp._canvas.legacy.Legacy object at 0x055E91B0>,<openexp._canvas.legacy.Legacy object at 0x050A6330>,<openexp._canvas.legacy.Legacy object at 0x057BB530>,<openexp._canvas.legacy.Legacy object at 0x05515E70>,<openexp._canvas.legacy.Legacy object at 0x054FF8D0>,<openexp._canvas.legacy.Legacy object at 0x055E31F0>,<openexp._canvas.legacy.Legacy object at 0x055E9FD0>,<openexp._canvas.legacy.Legacy object at 0x050A6E50>,75,SpatProbMultiple3 (2).osexp,C:/Userdata/Michel/SpatProbMultiple3,no,mono,no,18,no,white,no,yes,0.09,98,1050,legacy,45,33,33,1,C:/Userdata/Michel/SpatProbMultiple3/beh/subject-10.csv,legacy,12,192,25,Kafkaesque Koffka,3.2.5,yes,598477b2b83f69022949e7e9,47,green,circular,green,rectangular,0,/,1319,space,8738,8738,"(80, 80, 80)","(0, 123, 0)","(177, 0, 0)","(155, 155, 155)",2,legacy,experiment,"[1, 2, 3, 4, 5, 6, 7, 0]",\,2500,3000,0,8,252.7587515,1024,2,48000,-16,main,"[(0, -252), (178, -178), (252, 0), (178, 178), (0, 252), (-178, 178), (-252, 0), (-178, -178)]",[],34,even,2,NA,354749,421270,421270,186951,185939,2415,275493,275493,2415,2415,195690,506176,2414,421270,504854,504108,504109,NA,736,study_X,0,8738,1,yes,1680
undefined,undefined,NA,NA,NA,8738,8738,black,no,legacy,legacy,legacy,0,red,"(177, 0, 0)",shape,present,lowProb1,circular,swap,same,swap,same,red,"(177, 0, 0)",highProbShape,highProbShape,rectangular,uniform,0,undefined,0,0.15625,1,1,211.546875,1,30,40617,0,0,0,0,0,0,0,0,60,0,1,0.15625,211.546875,30,40617,59,59,59,11/21/2018 15:25,Default description,yes,<openexp._canvas.legacy.Legacy object at 0x055E91B0>,<openexp._canvas.legacy.Legacy object at 0x050A6330>,<openexp._canvas.legacy.Legacy object at 0x057BB530>,<openexp._canvas.legacy.Legacy object at 0x05515E70>,<openexp._canvas.legacy.Legacy object at 0x054FF8D0>,<openexp._canvas.legacy.Legacy object at 0x055E31F0>,<openexp._canvas.legacy.Legacy object at 0x050B8510>,<openexp._canvas.legacy.Legacy object at 0x050A6E50>,75,SpatProbMultiple3 (2).osexp,C:/Userdata/Michel/SpatProbMultiple3,no,mono,no,18,no,white,no,yes,0.09,98,1050,legacy,45,34,34,1,C:/Userdata/Michel/SpatProbMultiple3/beh/subject-10.csv,legacy,12,192,25,Kafkaesque Koffka,3.2.5,yes,598477b2b83f69022949e7e9,47,red,circular,red,rectangular,0,/,914,space,8738,8738,"(80, 80, 80)","(0, 123, 0)","(177, 0, 0)","(155, 155, 155)",2,legacy,experiment,"[1, 2, 3, 4, 5, 6, 7, 0]",\,2500,3000,0,8,252.7587515,1024,2,48000,-16,main,"[(0, -252), (178, -178), (252, 0), (178, 178), (0, 252), (-178, 178), (-252, 0), (-178, -178)]",[],34,even,5,NA,354749,421270,421270,186951,185939,2415,275493,275493,2415,2415,195690,508264,2414,421270,507346,506600,506600,NA,736,study_X,0,8738,1,yes,1680
undefined,undefined,NA,NA,NA,8738,8738,black,no,legacy,legacy,legacy,0,red,"(177, 0, 0)",color,absent,lowProb2,rectangular,same,swap,same,same,red,"(177, 0, 0)",lowProb,lowProb3,rectangular,uniform,1,undefined,0,0.161458333,1,1,215.0260417,1,31,41285,0,0,0,0,0,0,0,0,61,0,1,0.161458333,215.0260417,31,41285,60,60,60,11/21/2018 15:25,Default description,yes,<openexp._canvas.legacy.Legacy object at 0x055E91B0>,<openexp._canvas.legacy.Legacy object at 0x050A6330>,<openexp._canvas.legacy.Legacy object at 0x057BB530>,<openexp._canvas.legacy.Legacy object at 0x05515E70>,<openexp._canvas.legacy.Legacy object at 0x054FF8D0>,<openexp._canvas.legacy.Legacy object at 0x055E31F0>,<openexp._canvas.legacy.Legacy object at 0x057CB3D0>,<openexp._canvas.legacy.Legacy object at 0x050A6E50>,75,SpatProbMultiple3 (2).osexp,C:/Userdata/Michel/SpatProbMultiple3,no,mono,no,18,no,white,no,yes,0.09,98,1050,legacy,315,35,35,1,C:/Userdata/Michel/SpatProbMultiple3/beh/subject-10.csv,legacy,12,192,25,Kafkaesque Koffka,3.2.5,yes,598477b2b83f69022949e7e9,47,red,rectangular,red,rectangular,0,/,668,space,8738,8738,"(80, 80, 80)","(0, 123, 0)","(177, 0, 0)","(155, 155, 155)",2,legacy,experiment,"[1, 2, 3, 4, 5, 6, 7, 0]",/,2500,3000,0,8,252.7587515,1024,2,48000,-16,main,"[(0, -252), (178, -178), (252, 0), (178, 178), (0, 252), (-178, 178), (-252, 0), (-178, -178)]",[],34,even,4,NA,354749,421270,421270,186951,185939,2415,275493,275493,2415,2415,195690,510096,2414,421270,509424,508679,508679,NA,736,study_X,0,8738,1,yes,1680
undefined,undefined,NA,NA,NA,8738,8738,black,no,legacy,legacy,legacy,0,green,"(0, 123, 0)",color,present,highProb,circular,swap,swap,same,swap,red,"(177, 0, 0)",highProbShape,highProbShape,circular,uniform,1,undefined,0,0.166666667,1,1,219.03125,1,32,42054,0,0,0,0,0,0,0,0,62,0,1,0.166666667,219.03125,32,42054,61,61,61,11/21/2018 15:25,Default description,yes,<openexp._canvas.legacy.Legacy object at 0x055E91B0>,<openexp._canvas.legacy.Legacy object at 0x050A6330>,<openexp._canvas.legacy.Legacy object at 0x057BB530>,<openexp._canvas.legacy.Legacy object at 0x05515E70>,<openexp._canvas.legacy.Legacy object at 0x054FF8D0>,<openexp._canvas.legacy.Legacy object at 0x055E31F0>,<openexp._canvas.legacy.Legacy object at 0x057B9AB0>,<openexp._canvas.legacy.Legacy object at 0x050A6E50>,75,SpatProbMultiple3 (2).osexp,C:/Userdata/Michel/SpatProbMultiple3,no,mono,no,18,no,white,no,yes,0.09,98,1050,legacy,315,36,36,1,C:/Userdata/Michel/SpatProbMultiple3/beh/subject-10.csv,legacy,12,192,25,Kafkaesque Koffka,3.2.5,yes,598477b2b83f69022949e7e9,47,green,circular,red,circular,0,/,769,space,8738,8738,"(80, 80, 80)","(0, 123, 0)","(177, 0, 0)","(155, 155, 155)",2,legacy,experiment,"[1, 2, 3, 4, 5, 6, 7, 0]",/,2500,3000,0,8,252.7587515,1024,2,48000,-16,main,"[(0, -252), (178, -178), (252, 0), (178, 178), (0, 252), (-178, 178), (-252, 0), (-178, -178)]",[],34,even,5,NA,354749,421270,421270,186951,185939,2415,275493,275493,2415,2415,195690,512040,2414,421270,511267,510521,510521,NA,736,study_X,0,8738,1,yes,1680
undefined,undefined,NA,NA,NA,8738,8738,black,no,legacy,legacy,legacy,0,red,"(177, 0, 0)",shape,present,highProb,circular,swap,same,same,swap,red,"(177, 0, 0)",lowProb,lowProb4,rectangular,uniform,1,undefined,0,0.171875,1,1,221.5,1,33,42528,0,0,0,0,0,0,0,0,63,0,1,0.171875,221.5,33,42528,62,62,62,11/21/2018 15:25,Default description,yes,<openexp._canvas.legacy.Legacy object at 0x055E91B0>,<openexp._canvas.legacy.Legacy object at 0x050A6330>,<openexp._canvas.legacy.Legacy object at 0x057BB530>,<openexp._canvas.legacy.Legacy object at 0x05515E70>,<openexp._canvas.legacy.Legacy object at 0x054FF8D0>,<openexp._canvas.legacy.Legacy object at 0x055E31F0>,<openexp._canvas.legacy.Legacy object at 0x057CDAD0>,<openexp._canvas.legacy.Legacy object at 0x050A6E50>,75,SpatProbMultiple3 (2).osexp,C:/Userdata/Michel/SpatProbMultiple3,no,mono,no,18,no,white,no,yes,0.09,98,1050,legacy,315,37,37,1,C:/Userdata/Michel/SpatProbMultiple3/beh/subject-10.csv,legacy,12,192,25,Kafkaesque Koffka,3.2.5,yes,598477b2b83f69022949e7e9,47,red,circular,red,rectangular,0,/,474,space,8738,8738,"(80, 80, 80)","(0, 123, 0)","(177, 0, 0)","(155, 155, 155)",2,legacy,experiment,"[1, 2, 3, 4, 5, 6, 7, 0]",/,2500,3000,0,8,252.7587515,1024,2,48000,-16,main,"[(0, -252), (178, -178), (252, 0), (178, 178), (0, 252), (-178, 178), (-252, 0), (-178, -178)]",[],34,even,6,NA,354749,421270,421270,186951,185939,2415,275493,275493,2415,2415,195690,513680,2414,421270,513204,512461,512461,NA,736,study_X,0,8738,1,yes,1680
undefined,undefined,NA,NA,NA,8738,8738,black,no,legacy,legacy,legacy,0,green,"(0, 123, 0)",color,present,lowProb6,rectangular,swap,swap,same,same,red,"(177, 0, 0)",lowProb,lowProb1,rectangular,uniform,1,undefined,0,0.177083333,1,1,225.0572917,1,34,43211,0,0,0,0,0,0,0,0,64,0,1,0.177083333,225.0572917,34,43211,63,63,63,11/21/2018 15:25,Default description,yes,<openexp._canvas.legacy.Legacy object at 0x055E91B0>,<openexp._canvas.legacy.Legacy object at 0x050A6330>,<openexp._canvas.legacy.Legacy object at 0x057BB530>,<openexp._canvas.legacy.Legacy object at 0x05515E70>,<openexp._canvas.legacy.Legacy object at 0x054FF8D0>,<openexp._canvas.legacy.Legacy object at 0x055E31F0>,<openexp._canvas.legacy.Legacy object at 0x057B9150>,<openexp._canvas.legacy.Legacy object at 0x050A6E50>,75,SpatProbMultiple3 (2).osexp,C:/Userdata/Michel/SpatProbMultiple3,no,mono,no,18,no,white,no,yes,0.09,98,1050,legacy,45,38,38,1,C:/Userdata/Michel/SpatProbMultiple3/beh/subject-10.csv,legacy,12,192,25,Kafkaesque Koffka,3.2.5,yes,598477b2b83f69022949e7e9,47,green,rectangular,red,rectangular,0,\,683,space,8738,8738,"(80, 80, 80)","(0, 123, 0)","(177, 0, 0)","(155, 155, 155)",2,legacy,experiment,"[1, 2, 3, 4, 5, 6, 7, 0]",\,2500,3000,0,8,252.7587515,1024,2,48000,-16,main,"[(0, -252), (178, -178), (252, 0), (178, 178), (0, 252), (-178, 178), (-252, 0), (-178, -178)]",[],34,even,2,NA,354749,421270,421270,186951,185939,2415,275493,275493,2415,2415,195690,515528,2414,421270,514842,514096,514096,NA,736,study_X,0,8738,1,yes,1680
undefined,undefined,NA,NA,NA,8738,8738,black,no,legacy,legacy,legacy,0,green,"(0, 123, 0)",color,absent,lowProb2,circular,same,swap,swap,swap,green,"(0, 123, 0)",lowProb,lowProb1,circular,uniform,1,undefined,0,0.182291667,1,1,227.7552083,1,35,43729,0,0,0,0,0,0,0,0,65,0,1,0.182291667,227.7552083,35,43729,64,64,64,11/21/2018 15:25,Default description,yes,<openexp._canvas.legacy.Legacy object at 0x055E91B0>,<openexp._canvas.legacy.Legacy object at 0x050A6330>,<openexp._canvas.legacy.Legacy object at 0x057BB530>,<openexp._canvas.legacy.Legacy object at 0x05515E70>,<openexp._canvas.legacy.Legacy object at 0x054FF8D0>,<openexp._canvas.legacy.Legacy object at 0x055E31F0>,<openexp._canvas.legacy.Legacy object at 0x057B6BB0>,<openexp._canvas.legacy.Legacy object at 0x050A6E50>,75,SpatProbMultiple3 (2).osexp,C:/Userdata/Michel/SpatProbMultiple3,no,mono,no,18,no,white,no,yes,0.09,98,1050,legacy,45,39,39,1,C:/Userdata/Michel/SpatProbMultiple3/beh/subject-10.csv,legacy,12,192,25,Kafkaesque Koffka,3.2.5,yes,598477b2b83f69022949e7e9,47,green,circular,green,circular,0,\,518,space,8738,8738,"(80, 80, 80)","(0, 123, 0)","(177, 0, 0)","(155, 155, 155)",2,legacy,experiment,"[1, 2, 3, 4, 5, 6, 7, 0]",\,2500,3000,0,8,252.7587515,1024,2,48000,-16,main,"[(0, -252), (178, -178), (252, 0), (178, 178), (0, 252), (-178, 178), (-252, 0), (-178, -178)]",[],34,even,2,NA,354749,421270,421270,186951,185939,2415,275493,275493,2415,2415,195690,517224,2414,421270,516703,515957,515957,NA,736,study_X,0,8738,1,yes,1680
undefined,undefined,NA,NA,NA,8738,8738,black,no,legacy,legacy,legacy,0,green,"(0, 123, 0)",shape,absent,lowProb5,circular,same,same,same,same,green,"(0, 123, 0)",highProbShape,highProbShape,circular,uniform,1,undefined,0,0.1875,1,1,231.4791667,1,36,44444,0,0,0,0,0,0,0,0,66,0,1,0.1875,231.4791667,36,44444,65,65,65,11/21/2018 15:25,Default description,yes,<openexp._canvas.legacy.Legacy object at 0x055E91B0>,<openexp._canvas.legacy.Legacy object at 0x050A6330>,<openexp._canvas.legacy.Legacy object at 0x057BB530>,<openexp._canvas.legacy.Legacy object at 0x05515E70>,<openexp._canvas.legacy.Legacy object at 0x054FF8D0>,<openexp._canvas.legacy.Legacy object at 0x055E31F0>,<openexp._canvas.legacy.Legacy object at 0x057CDED0>,<openexp._canvas.legacy.Legacy object at 0x050A6E50>,75,SpatProbMultiple3 (2).osexp,C:/Userdata/Michel/SpatProbMultiple3,no,mono,no,18,no,white,no,yes,0.09,98,1050,legacy,315,40,40,1,C:/Userdata/Michel/SpatProbMultiple3/beh/subject-10.csv,legacy,12,192,25,Kafkaesque Koffka,3.2.5,yes,598477b2b83f69022949e7e9,47,green,circular,green,circular,0,/,715,space,8738,8738,"(80, 80, 80)","(0, 123, 0)","(177, 0, 0)","(155, 155, 155)",2,legacy,experiment,"[1, 2, 3, 4, 5, 6, 7, 0]",/,2500,3000,0,8,252.7587515,1024,2,48000,-16,main,"[(0, -252), (178, -178), (252, 0), (178, 178), (0, 252), (-178, 178), (-252, 0), (-178, -178)]",[],34,even,5,NA,354749,421270,421270,186951,185939,2415,275493,275493,2415,2415,195690,519136,2414,421270,518418,517672,517673,NA,736,study_X,0,8738,1,yes,1680
undefined,undefined,NA,NA,NA,8738,8738,black,no,legacy,legacy,legacy,0,red,"(177, 0, 0)",shape,present,highProb,rectangular,swap,swap,swap,same,red,"(177, 0, 0)",lowProb,lowProb3,circular,uniform,0,undefined,0,0.1875,1,1,234.6614583,1,36,45055,0,0,0,0,0,0,0,0,67,0,1,0.1875,234.6614583,36,45055,66,66,66,11/21/2018 15:25,Default description,yes,<openexp._canvas.legacy.Legacy object at 0x055E91B0>,<openexp._canvas.legacy.Legacy object at 0x050A6330>,<openexp._canvas.legacy.Legacy object at 0x057BB530>,<openexp._canvas.legacy.Legacy object at 0x05515E70>,<openexp._canvas.legacy.Legacy object at 0x054FF8D0>,<openexp._canvas.legacy.Legacy object at 0x055E31F0>,<openexp._canvas.legacy.Legacy object at 0x055F7C70>,<openexp._canvas.legacy.Legacy object at 0x050A6E50>,75,SpatProbMultiple3 (2).osexp,C:/Userdata/Michel/SpatProbMultiple3,no,mono,no,18,no,white,no,yes,0.09,98,1050,legacy,45,41,41,1,C:/Userdata/Michel/SpatProbMultiple3/beh/subject-10.csv,legacy,12,192,25,Kafkaesque Koffka,3.2.5,yes,598477b2b83f69022949e7e9,47,red,rectangular,red,circular,0,/,611,space,8738,8738,"(80, 80, 80)","(0, 123, 0)","(177, 0, 0)","(155, 155, 155)",2,legacy,experiment,"[1, 2, 3, 4, 5, 6, 7, 0]",\,2500,3000,0,8,252.7587515,1024,2,48000,-16,main,"[(0, -252), (178, -178), (252, 0), (178, 178), (0, 252), (-178, 178), (-252, 0), (-178, -178)]",[],34,even,4,NA,354749,421270,421270,186951,185939,2415,275493,275493,2415,2415,195690,520928,2414,421270,520315,519570,519570,NA,736,study_X,0,8738,1,yes,1680
undefined,undefined,NA,NA,NA,8738,8738,black,no,legacy,legacy,legacy,0,green,"(0, 123, 0)",shape,present,highProb,rectangular,swap,same,swap,same,green,"(0, 123, 0)",lowProb,lowProb6,circular,uniform,1,undefined,0,0.192708333,1,1,246.3958333,1,37,47308,0,0,0,0,0,0,0,0,68,0,1,0.192708333,246.3958333,37,47308,67,67,67,11/21/2018 15:25,Default description,yes,<openexp._canvas.legacy.Legacy object at 0x055E91B0>,<openexp._canvas.legacy.Legacy object at 0x050A6330>,<openexp._canvas.legacy.Legacy object at 0x057BB530>,<openexp._canvas.legacy.Legacy object at 0x05515E70>,<openexp._canvas.legacy.Legacy object at 0x054FF8D0>,<openexp._canvas.legacy.Legacy object at 0x055E31F0>,<openexp._canvas.legacy.Legacy object at 0x055E9FF0>,<openexp._canvas.legacy.Legacy object at 0x050A6E50>,75,SpatProbMultiple3 (2).osexp,C:/Userdata/Michel/SpatProbMultiple3,no,mono,no,18,no,white,no,yes,0.09,98,1050,legacy,315,42,42,1,C:/Userdata/Michel/SpatProbMultiple3/beh/subject-10.csv,legacy,12,192,25,Kafkaesque Koffka,3.2.5,yes,598477b2b83f69022949e7e9,47,green,rectangular,green,circular,0,/,2253,space,8738,8738,"(80, 80, 80)","(0, 123, 0)","(177, 0, 0)","(155, 155, 155)",2,legacy,experiment,"[1, 2, 3, 4, 5, 6, 7, 0]",/,2500,3000,0,8,252.7587515,1024,2,48000,-16,main,"[(0, -252), (178, -178), (252, 0), (178, 178), (0, 252), (-178, 178), (-252, 0), (-178, -178)]",[],34,even,0,NA,354749,421270,421270,186951,185939,2415,275493,275493,2415,2415,195690,524360,2414,421270,522103,521358,521358,NA,736,study_X,0,8738,1,yes,1680
undefined,undefined,NA,NA,NA,8738,8738,black,no,legacy,legacy,legacy,0,green,"(0, 123, 0)",shape,absent,lowProb6,circular,same,swap,same,same,green,"(0, 123, 0)",lowProb,lowProb4,circular,uniform,1,undefined,0,0.197916667,1,1,250.5677083,1,38,48109,0,0,0,0,0,0,0,0,69,0,1,0.197916667,250.5677083,38,48109,68,68,68,11/21/2018 15:25,Default description,yes,<openexp._canvas.legacy.Legacy object at 0x055E91B0>,<openexp._canvas.legacy.Legacy object at 0x050A6330>,<openexp._canvas.legacy.Legacy object at 0x057BB530>,<openexp._canvas.legacy.Legacy object at 0x05515E70>,<openexp._canvas.legacy.Legacy object at 0x054FF8D0>,<openexp._canvas.legacy.Legacy object at 0x055E31F0>,<openexp._canvas.legacy.Legacy object at 0x057CDED0>,<openexp._canvas.legacy.Legacy object at 0x050A6E50>,75,SpatProbMultiple3 (2).osexp,C:/Userdata/Michel/SpatProbMultiple3,no,mono,no,18,no,white,no,yes,0.09,98,1050,legacy,315,43,43,1,C:/Userdata/Michel/SpatProbMultiple3/beh/subject-10.csv,legacy,12,192,25,Kafkaesque Koffka,3.2.5,yes,598477b2b83f69022949e7e9,47,green,circular,green,circular,0,/,801,space,8738,8738,"(80, 80, 80)","(0, 123, 0)","(177, 0, 0)","(155, 155, 155)",2,legacy,experiment,"[1, 2, 3, 4, 5, 6, 7, 0]",/,2500,3000,0,8,252.7587515,1024,2,48000,-16,main,"[(0, -252), (178, -178), (252, 0), (178, 178), (0, 252), (-178, 178), (-252, 0), (-178, -178)]",[],34,even,6,NA,354749,421270,421270,186951,185939,2415,275493,275493,2415,2415,195690,526344,2414,421270,525540,524795,524795,NA,736,study_X,0,8738,1,yes,1680
undefined,undefined,NA,NA,NA,8738,8738,black,no,legacy,legacy,legacy,0,red,"(177, 0, 0)",color,present,highProb,circular,swap,same,same,same,green,"(0, 123, 0)",lowProb,lowProb3,circular,uniform,1,undefined,0,0.203125,1,1,253.2552083,1,39,48625,0,0,0,0,0,0,0,0,70,0,1,0.203125,253.2552083,39,48625,69,69,69,11/21/2018 15:25,Default description,yes,<openexp._canvas.legacy.Legacy object at 0x055E91B0>,<openexp._canvas.legacy.Legacy object at 0x050A6330>,<openexp._canvas.legacy.Legacy object at 0x057BB530>,<openexp._canvas.legacy.Legacy object at 0x05515E70>,<openexp._canvas.legacy.Legacy object at 0x054FF8D0>,<openexp._canvas.legacy.Legacy object at 0x055E31F0>,<openexp._canvas.legacy.Legacy object at 0x055F8F70>,<openexp._canvas.legacy.Legacy object at 0x050A6E50>,75,SpatProbMultiple3 (2).osexp,C:/Userdata/Michel/SpatProbMultiple3,no,mono,no,18,no,white,no,yes,0.09,98,1050,legacy,315,44,44,1,C:/Userdata/Michel/SpatProbMultiple3/beh/subject-10.csv,legacy,12,192,25,Kafkaesque Koffka,3.2.5,yes,598477b2b83f69022949e7e9,47,red,circular,green,circular,0,/,516,space,8738,8738,"(80, 80, 80)","(0, 123, 0)","(177, 0, 0)","(155, 155, 155)",2,legacy,experiment,"[1, 2, 3, 4, 5, 6, 7, 0]",/,2500,3000,0,8,252.7587515,1024,2,48000,-16,main,"[(0, -252), (178, -178), (252, 0), (178, 178), (0, 252), (-178, 178), (-252, 0), (-178, -178)]",[],34,even,4,NA,354749,421270,421270,186951,185939,2415,275493,275493,2415,2415,195690,528056,2414,421270,527536,526791,526791,NA,736,study_X,0,8738,1,yes,1680
undefined,undefined,NA,NA,NA,8738,8738,black,no,legacy,legacy,legacy,0,red,"(177, 0, 0)",color,present,highProb,rectangular,same,swap,same,swap,green,"(0, 123, 0)",lowProb,lowProb5,rectangular,uniform,1,undefined,0,0.208333333,1,1,260.1822917,1,40,49955,0,0,0,0,0,0,0,0,71,0,1,0.208333333,260.1822917,40,49955,70,70,70,11/21/2018 15:25,Default description,yes,<openexp._canvas.legacy.Legacy object at 0x055E91B0>,<openexp._canvas.legacy.Legacy object at 0x050A6330>,<openexp._canvas.legacy.Legacy object at 0x057BB530>,<openexp._canvas.legacy.Legacy object at 0x05515E70>,<openexp._canvas.legacy.Legacy object at 0x054FF8D0>,<openexp._canvas.legacy.Legacy object at 0x055E31F0>,<openexp._canvas.legacy.Legacy object at 0x055E9930>,<openexp._canvas.legacy.Legacy object at 0x050A6E50>,75,SpatProbMultiple3 (2).osexp,C:/Userdata/Michel/SpatProbMultiple3,no,mono,no,18,no,white,no,yes,0.09,98,1050,legacy,45,45,45,1,C:/Userdata/Michel/SpatProbMultiple3/beh/subject-10.csv,legacy,12,192,25,Kafkaesque Koffka,3.2.5,yes,598477b2b83f69022949e7e9,47,red,rectangular,green,rectangular,0,\,1330,space,8738,8738,"(80, 80, 80)","(0, 123, 0)","(177, 0, 0)","(155, 155, 155)",2,legacy,experiment,"[1, 2, 3, 4, 5, 6, 7, 0]",\,2500,3000,0,8,252.7587515,1024,2,48000,-16,main,"[(0, -252), (178, -178), (252, 0), (178, 178), (0, 252), (-178, 178), (-252, 0), (-178, -178)]",[],34,even,7,NA,354749,421270,421270,186951,185939,2415,275493,275493,2415,2415,195690,530575,2414,421270,529242,528497,528497,NA,736,study_X,0,8738,1,yes,1680
undefined,undefined,NA,NA,NA,8738,8738,black,no,legacy,legacy,legacy,0,green,"(0, 123, 0)",shape,present,highProb,rectangular,swap,same,same,swap,green,"(0, 123, 0)",lowProb,lowProb3,circular,uniform,1,undefined,0,0.213541667,1,1,265.9375,1,41,51060,0,0,0,0,0,0,0,0,72,0,1,0.213541667,265.9375,41,51060,71,71,71,11/21/2018 15:25,Default description,yes,<openexp._canvas.legacy.Legacy object at 0x055E91B0>,<openexp._canvas.legacy.Legacy object at 0x050A6330>,<openexp._canvas.legacy.Legacy object at 0x057BB530>,<openexp._canvas.legacy.Legacy object at 0x05515E70>,<openexp._canvas.legacy.Legacy object at 0x054FF8D0>,<openexp._canvas.legacy.Legacy object at 0x055E31F0>,<openexp._canvas.legacy.Legacy object at 0x050B8510>,<openexp._canvas.legacy.Legacy object at 0x050A6E50>,75,SpatProbMultiple3 (2).osexp,C:/Userdata/Michel/SpatProbMultiple3,no,mono,no,18,no,white,no,yes,0.09,98,1050,legacy,45,46,46,1,C:/Userdata/Michel/SpatProbMultiple3/beh/subject-10.csv,legacy,12,192,25,Kafkaesque Koffka,3.2.5,yes,598477b2b83f69022949e7e9,47,green,rectangular,green,circular,0,\,1105,space,8738,8738,"(80, 80, 80)","(0, 123, 0)","(177, 0, 0)","(155, 155, 155)",2,legacy,experiment,"[1, 2, 3, 4, 5, 6, 7, 0]",\,2500,3000,0,8,252.7587515,1024,2,48000,-16,main,"[(0, -252), (178, -178), (252, 0), (178, 178), (0, 252), (-178, 178), (-252, 0), (-178, -178)]",[],34,even,4,NA,354749,421270,421270,186951,185939,2415,275493,275493,2415,2415,195690,532856,2414,421270,531749,531004,531004,NA,736,study_X,0,8738,1,yes,1680
undefined,undefined,NA,NA,NA,8738,8738,black,no,legacy,legacy,legacy,0,red,"(177, 0, 0)",shape,present,highProb,rectangular,swap,same,swap,same,red,"(177, 0, 0)",lowProb,lowProb4,circular,uniform,1,undefined,0,0.21875,1,1,272.828125,1,42,52383,0,0,0,0,0,0,0,0,73,0,1,0.21875,272.828125,42,52383,72,72,72,11/21/2018 15:25,Default description,yes,<openexp._canvas.legacy.Legacy object at 0x055E91B0>,<openexp._canvas.legacy.Legacy object at 0x050A6330>,<openexp._canvas.legacy.Legacy object at 0x057BB530>,<openexp._canvas.legacy.Legacy object at 0x05515E70>,<openexp._canvas.legacy.Legacy object at 0x054FF8D0>,<openexp._canvas.legacy.Legacy object at 0x055E31F0>,<openexp._canvas.legacy.Legacy object at 0x057BBDD0>,<openexp._canvas.legacy.Legacy object at 0x050A6E50>,75,SpatProbMultiple3 (2).osexp,C:/Userdata/Michel/SpatProbMultiple3,no,mono,no,18,no,white,no,yes,0.09,98,1050,legacy,45,47,47,1,C:/Userdata/Michel/SpatProbMultiple3/beh/subject-10.csv,legacy,12,192,25,Kafkaesque Koffka,3.2.5,yes,598477b2b83f69022949e7e9,47,red,rectangular,red,circular,0,\,1323,space,8738,8738,"(80, 80, 80)","(0, 123, 0)","(177, 0, 0)","(155, 155, 155)",2,legacy,experiment,"[1, 2, 3, 4, 5, 6, 7, 0]",\,2500,3000,0,8,252.7587515,1024,2,48000,-16,main,"[(0, -252), (178, -178), (252, 0), (178, 178), (0, 252), (-178, 178), (-252, 0), (-178, -178)]",[],34,even,6,NA,354749,421270,421270,186951,185939,2415,275493,275493,2415,2415,195690,535376,2414,421270,534050,533305,533305,NA,736,study_X,0,8738,1,yes,1680
undefined,undefined,NA,NA,NA,8738,8738,black,no,legacy,legacy,legacy,0,red,"(177, 0, 0)",shape,present,highProb,rectangular,same,same,same,same,red,"(177, 0, 0)",lowProb,lowProb6,circular,uniform,1,undefined,0,0.223958333,1,1,279.7291667,1,43,53708,0,0,0,0,0,0,0,0,74,0,1,0.223958333,279.7291667,43,53708,73,73,73,11/21/2018 15:25,Default description,yes,<openexp._canvas.legacy.Legacy object at 0x055E91B0>,<openexp._canvas.legacy.Legacy object at 0x050A6330>,<openexp._canvas.legacy.Legacy object at 0x057BB530>,<openexp._canvas.legacy.Legacy object at 0x05515E70>,<openexp._canvas.legacy.Legacy object at 0x054FF8D0>,<openexp._canvas.legacy.Legacy object at 0x055E31F0>,<openexp._canvas.legacy.Legacy object at 0x057B6030>,<openexp._canvas.legacy.Legacy object at 0x050A6E50>,75,SpatProbMultiple3 (2).osexp,C:/Userdata/Michel/SpatProbMultiple3,no,mono,no,18,no,white,no,yes,0.09,98,1050,legacy,45,48,48,1,C:/Userdata/Michel/SpatProbMultiple3/beh/subject-10.csv,legacy,12,192,25,Kafkaesque Koffka,3.2.5,yes,598477b2b83f69022949e7e9,47,red,rectangular,red,circular,0,\,1325,space,8738,8738,"(80, 80, 80)","(0, 123, 0)","(177, 0, 0)","(155, 155, 155)",2,legacy,experiment,"[1, 2, 3, 4, 5, 6, 7, 0]",\,2500,3000,0,8,252.7587515,1024,2,48000,-16,main,"[(0, -252), (178, -178), (252, 0), (178, 178), (0, 252), (-178, 178), (-252, 0), (-178, -178)]",[],34,even,0,NA,354749,421270,421270,186951,185939,2415,275493,275493,2415,2415,195690,537872,2414,421270,536545,535800,535800,NA,736,study_X,0,8738,1,yes,1680
undefined,undefined,NA,NA,NA,8738,8738,black,no,legacy,legacy,legacy,0,green,"(0, 123, 0)",shape,absent,lowProb6,rectangular,swap,same,swap,swap,green,"(0, 123, 0)",lowProb,lowProb1,rectangular,uniform,1,undefined,0,0.229166667,1,1,287.0885417,1,44,55121,0,0,0,0,0,0,0,0,75,0,1,0.229166667,287.0885417,44,55121,74,74,74,11/21/2018 15:25,Default description,yes,<openexp._canvas.legacy.Legacy object at 0x055E91B0>,<openexp._canvas.legacy.Legacy object at 0x050A6330>,<openexp._canvas.legacy.Legacy object at 0x057BB530>,<openexp._canvas.legacy.Legacy object at 0x05515E70>,<openexp._canvas.legacy.Legacy object at 0x054FF8D0>,<openexp._canvas.legacy.Legacy object at 0x055E31F0>,<openexp._canvas.legacy.Legacy object at 0x057CDC30>,<openexp._canvas.legacy.Legacy object at 0x050A6E50>,75,SpatProbMultiple3 (2).osexp,C:/Userdata/Michel/SpatProbMultiple3,no,mono,no,18,no,white,no,yes,0.09,98,1050,legacy,315,49,49,1,C:/Userdata/Michel/SpatProbMultiple3/beh/subject-10.csv,legacy,12,192,25,Kafkaesque Koffka,3.2.5,yes,598477b2b83f69022949e7e9,47,green,rectangular,green,rectangular,0,/,1413,space,8738,8738,"(80, 80, 80)","(0, 123, 0)","(177, 0, 0)","(155, 155, 155)",2,legacy,experiment,"[1, 2, 3, 4, 5, 6, 7, 0]",/,2500,3000,0,8,252.7587515,1024,2,48000,-16,main,"[(0, -252), (178, -178), (252, 0), (178, 178), (0, 252), (-178, 178), (-252, 0), (-178, -178)]",[],34,even,2,NA,354749,421270,421270,186951,185939,2415,275493,275493,2415,2415,195690,540472,2414,421270,539055,538309,538309,NA,736,study_X,0,8738,1,yes,1680
undefined,undefined,NA,NA,NA,8738,8738,black,no,legacy,legacy,legacy,0,red,"(177, 0, 0)",shape,present,lowProb2,rectangular,swap,same,swap,swap,red,"(177, 0, 0)",lowProb,lowProb5,circular,uniform,1,undefined,0,0.234375,1,1,293.015625,1,45,56259,0,0,0,0,0,0,0,0,76,0,1,0.234375,293.015625,45,56259,75,75,75,11/21/2018 15:25,Default description,yes,<openexp._canvas.legacy.Legacy object at 0x055E91B0>,<openexp._canvas.legacy.Legacy object at 0x050A6330>,<openexp._canvas.legacy.Legacy object at 0x057BB530>,<openexp._canvas.legacy.Legacy object at 0x05515E70>,<openexp._canvas.legacy.Legacy object at 0x054FF8D0>,<openexp._canvas.legacy.Legacy object at 0x055E31F0>,<openexp._canvas.legacy.Legacy object at 0x057CBE90>,<openexp._canvas.legacy.Legacy object at 0x050A6E50>,75,SpatProbMultiple3 (2).osexp,C:/Userdata/Michel/SpatProbMultiple3,no,mono,no,18,no,white,no,yes,0.09,98,1050,legacy,315,50,50,1,C:/Userdata/Michel/SpatProbMultiple3/beh/subject-10.csv,legacy,12,192,25,Kafkaesque Koffka,3.2.5,yes,598477b2b83f69022949e7e9,47,red,rectangular,red,circular,0,/,1138,space,8738,8738,"(80, 80, 80)","(0, 123, 0)","(177, 0, 0)","(155, 155, 155)",2,legacy,experiment,"[1, 2, 3, 4, 5, 6, 7, 0]",/,2500,3000,0,8,252.7587515,1024,2,48000,-16,main,"[(0, -252), (178, -178), (252, 0), (178, 178), (0, 252), (-178, 178), (-252, 0), (-178, -178)]",[],34,even,7,NA,354749,421270,421270,186951,185939,2415,275493,275493,2415,2415,195690,542784,2414,421270,541642,540896,540896,NA,736,study_X,0,8738,1,yes,1680
undefined,undefined,NA,NA,NA,8738,8738,black,no,legacy,legacy,legacy,0,red,"(177, 0, 0)",shape,present,highProb,circular,same,swap,same,swap,red,"(177, 0, 0)",lowProb,lowProb3,rectangular,uniform,1,undefined,0,0.239583333,1,1,296.328125,1,46,56895,0,0,0,0,0,0,0,0,77,0,1,0.239583333,296.328125,46,56895,76,76,76,11/21/2018 15:25,Default description,yes,<openexp._canvas.legacy.Legacy object at 0x055E91B0>,<openexp._canvas.legacy.Legacy object at 0x050A6330>,<openexp._canvas.legacy.Legacy object at 0x057BB530>,<openexp._canvas.legacy.Legacy object at 0x05515E70>,<openexp._canvas.legacy.Legacy object at 0x054FF8D0>,<openexp._canvas.legacy.Legacy object at 0x055E31F0>,<openexp._canvas.legacy.Legacy object at 0x057B6290>,<openexp._canvas.legacy.Legacy object at 0x050A6E50>,75,SpatProbMultiple3 (2).osexp,C:/Userdata/Michel/SpatProbMultiple3,no,mono,no,18,no,white,no,yes,0.09,98,1050,legacy,315,51,51,1,C:/Userdata/Michel/SpatProbMultiple3/beh/subject-10.csv,legacy,12,192,25,Kafkaesque Koffka,3.2.5,yes,598477b2b83f69022949e7e9,47,red,circular,red,rectangular,0,/,636,space,8738,8738,"(80, 80, 80)","(0, 123, 0)","(177, 0, 0)","(155, 155, 155)",2,legacy,experiment,"[1, 2, 3, 4, 5, 6, 7, 0]",/,2500,3000,0,8,252.7587515,1024,2,48000,-16,main,"[(0, -252), (178, -178), (252, 0), (178, 178), (0, 252), (-178, 178), (-252, 0), (-178, -178)]",[],34,even,4,NA,354749,421270,421270,186951,185939,2415,275493,275493,2415,2415,195690,544615,2414,421270,543976,543230,543230,NA,736,study_X,0,8738,1,yes,1680
undefined,undefined,NA,NA,NA,8738,8738,black,no,legacy,legacy,legacy,0,green,"(0, 123, 0)",color,present,highProbOther,rectangular,swap,swap,same,same,red,"(177, 0, 0)",highProbColor,highProbColor,rectangular,uniform,1,undefined,0,0.244791667,1,1,300.484375,1,47,57693,0,0,0,0,0,0,0,0,78,0,1,0.244791667,300.484375,47,57693,77,77,77,11/21/2018 15:25,Default description,yes,<openexp._canvas.legacy.Legacy object at 0x055E91B0>,<openexp._canvas.legacy.Legacy object at 0x050A6330>,<openexp._canvas.legacy.Legacy object at 0x057BB530>,<openexp._canvas.legacy.Legacy object at 0x05515E70>,<openexp._canvas.legacy.Legacy object at 0x054FF8D0>,<openexp._canvas.legacy.Legacy object at 0x055E31F0>,<openexp._canvas.legacy.Legacy object at 0x057C4790>,<openexp._canvas.legacy.Legacy object at 0x050A6E50>,75,SpatProbMultiple3 (2).osexp,C:/Userdata/Michel/SpatProbMultiple3,no,mono,no,18,no,white,no,yes,0.09,98,1050,legacy,315,52,52,1,C:/Userdata/Michel/SpatProbMultiple3/beh/subject-10.csv,legacy,12,192,25,Kafkaesque Koffka,3.2.5,yes,598477b2b83f69022949e7e9,47,green,rectangular,red,rectangular,0,/,798,space,8738,8738,"(80, 80, 80)","(0, 123, 0)","(177, 0, 0)","(155, 155, 155)",2,legacy,experiment,"[1, 2, 3, 4, 5, 6, 7, 0]",/,2500,3000,0,8,252.7587515,1024,2,48000,-16,main,"[(0, -252), (178, -178), (252, 0), (178, 178), (0, 252), (-178, 178), (-252, 0), (-178, -178)]",[],34,even,1,NA,354749,421270,421270,186951,185939,2415,275493,275493,2415,2415,195690,546575,2414,421270,545774,545028,545028,NA,736,study_X,0,8738,1,yes,1680
undefined,undefined,NA,NA,NA,8738,8738,black,no,legacy,legacy,legacy,0,red,"(177, 0, 0)",shape,present,highProb,rectangular,swap,same,same,swap,red,"(177, 0, 0)",lowProb,lowProb5,circular,uniform,1,undefined,0,0.25,1,1,304.8958333,1,48,58540,0,0,0,0,0,0,0,0,79,0,1,0.25,304.8958333,48,58540,78,78,78,11/21/2018 15:25,Default description,yes,<openexp._canvas.legacy.Legacy object at 0x055E91B0>,<openexp._canvas.legacy.Legacy object at 0x050A6330>,<openexp._canvas.legacy.Legacy object at 0x057BB530>,<openexp._canvas.legacy.Legacy object at 0x05515E70>,<openexp._canvas.legacy.Legacy object at 0x054FF8D0>,<openexp._canvas.legacy.Legacy object at 0x055E31F0>,<openexp._canvas.legacy.Legacy object at 0x050B80F0>,<openexp._canvas.legacy.Legacy object at 0x050A6E50>,75,SpatProbMultiple3 (2).osexp,C:/Userdata/Michel/SpatProbMultiple3,no,mono,no,18,no,white,no,yes,0.09,98,1050,legacy,315,53,53,1,C:/Userdata/Michel/SpatProbMultiple3/beh/subject-10.csv,legacy,12,192,25,Kafkaesque Koffka,3.2.5,yes,598477b2b83f69022949e7e9,47,red,rectangular,red,circular,0,/,847,space,8738,8738,"(80, 80, 80)","(0, 123, 0)","(177, 0, 0)","(155, 155, 155)",2,legacy,experiment,"[1, 2, 3, 4, 5, 6, 7, 0]",/,2500,3000,0,8,252.7587515,1024,2,48000,-16,main,"[(0, -252), (178, -178), (252, 0), (178, 178), (0, 252), (-178, 178), (-252, 0), (-178, -178)]",[],34,even,7,NA,354749,421270,421270,186951,185939,2415,275493,275493,2415,2415,195690,548599,2414,421270,547749,547003,547004,NA,736,study_X,0,8738,1,yes,1680
undefined,undefined,NA,NA,NA,8738,8738,black,no,legacy,legacy,legacy,0,green,"(0, 123, 0)",color,present,highProb,circular,swap,swap,same,same,red,"(177, 0, 0)",lowProb,lowProb1,circular,uniform,1,undefined,0,0.255208333,1,1,310.328125,1,49,59583,0,0,0,0,0,0,0,0,80,0,1,0.255208333,310.328125,49,59583,79,79,79,11/21/2018 15:25,Default description,yes,<openexp._canvas.legacy.Legacy object at 0x055E91B0>,<openexp._canvas.legacy.Legacy object at 0x050A6330>,<openexp._canvas.legacy.Legacy object at 0x057BB530>,<openexp._canvas.legacy.Legacy object at 0x05515E70>,<openexp._canvas.legacy.Legacy object at 0x054FF8D0>,<openexp._canvas.legacy.Legacy object at 0x055E31F0>,<openexp._canvas.legacy.Legacy object at 0x050A6D10>,<openexp._canvas.legacy.Legacy object at 0x050A6E50>,75,SpatProbMultiple3 (2).osexp,C:/Userdata/Michel/SpatProbMultiple3,no,mono,no,18,no,white,no,yes,0.09,98,1050,legacy,315,54,54,1,C:/Userdata/Michel/SpatProbMultiple3/beh/subject-10.csv,legacy,12,192,25,Kafkaesque Koffka,3.2.5,yes,598477b2b83f69022949e7e9,47,green,circular,red,circular,0,/,1043,space,8738,8738,"(80, 80, 80)","(0, 123, 0)","(177, 0, 0)","(155, 155, 155)",2,legacy,experiment,"[1, 2, 3, 4, 5, 6, 7, 0]",/,2500,3000,0,8,252.7587515,1024,2,48000,-16,main,"[(0, -252), (178, -178), (252, 0), (178, 178), (0, 252), (-178, 178), (-252, 0), (-178, -178)]",[],34,even,2,NA,354749,421270,421270,186951,185939,2415,275493,275493,2415,2415,195690,550824,2414,421270,549778,549032,549033,NA,736,study_X,0,8738,1,yes,1680
undefined,undefined,NA,NA,NA,8738,8738,black,no,legacy,legacy,legacy,0,green,"(0, 123, 0)",shape,present,highProb,rectangular,same,swap,swap,same,green,"(0, 123, 0)",lowProb,lowProb5,circular,uniform,1,undefined,0,0.260416667,1,1,313.7291667,1,50,60236,0,0,0,0,0,0,0,0,81,0,1,0.260416667,313.7291667,50,60236,80,80,80,11/21/2018 15:25,Default description,yes,<openexp._canvas.legacy.Legacy object at 0x055E91B0>,<openexp._canvas.legacy.Legacy object at 0x050A6330>,<openexp._canvas.legacy.Legacy object at 0x057BB530>,<openexp._canvas.legacy.Legacy object at 0x05515E70>,<openexp._canvas.legacy.Legacy object at 0x054FF8D0>,<openexp._canvas.legacy.Legacy object at 0x055E31F0>,<openexp._canvas.legacy.Legacy object at 0x050B8510>,<openexp._canvas.legacy.Legacy object at 0x050A6E50>,75,SpatProbMultiple3 (2).osexp,C:/Userdata/Michel/SpatProbMultiple3,no,mono,no,18,no,white,no,yes,0.09,98,1050,legacy,315,55,55,1,C:/Userdata/Michel/SpatProbMultiple3/beh/subject-10.csv,legacy,12,192,25,Kafkaesque Koffka,3.2.5,yes,598477b2b83f69022949e7e9,47,green,rectangular,green,circular,0,/,653,space,8738,8738,"(80, 80, 80)","(0, 123, 0)","(177, 0, 0)","(155, 155, 155)",2,legacy,experiment,"[1, 2, 3, 4, 5, 6, 7, 0]",/,2500,3000,0,8,252.7587515,1024,2,48000,-16,main,"[(0, -252), (178, -178), (252, 0), (178, 178), (0, 252), (-178, 178), (-252, 0), (-178, -178)]",[],34,even,7,NA,354749,421270,421270,186951,185939,2415,275493,275493,2415,2415,195690,552648,2414,421270,551992,551247,551247,NA,736,study_X,0,8738,1,yes,1680
undefined,undefined,NA,NA,NA,8738,8738,black,no,legacy,legacy,legacy,0,green,"(0, 123, 0)",shape,present,highProb,circular,same,swap,same,swap,green,"(0, 123, 0)",lowProb,lowProb1,rectangular,uniform,1,undefined,0,0.265625,1,1,319.4375,1,51,61332,0,0,0,0,0,0,0,0,82,0,1,0.265625,319.4375,51,61332,81,81,81,11/21/2018 15:25,Default description,yes,<openexp._canvas.legacy.Legacy object at 0x055E91B0>,<openexp._canvas.legacy.Legacy object at 0x050A6330>,<openexp._canvas.legacy.Legacy object at 0x057BB530>,<openexp._canvas.legacy.Legacy object at 0x05515E70>,<openexp._canvas.legacy.Legacy object at 0x054FF8D0>,<openexp._canvas.legacy.Legacy object at 0x055E31F0>,<openexp._canvas.legacy.Legacy object at 0x055F7290>,<openexp._canvas.legacy.Legacy object at 0x050A6E50>,75,SpatProbMultiple3 (2).osexp,C:/Userdata/Michel/SpatProbMultiple3,no,mono,no,18,no,white,no,yes,0.09,98,1050,legacy,45,56,56,1,C:/Userdata/Michel/SpatProbMultiple3/beh/subject-10.csv,legacy,12,192,25,Kafkaesque Koffka,3.2.5,yes,598477b2b83f69022949e7e9,47,green,circular,green,rectangular,0,\,1096,space,8738,8738,"(80, 80, 80)","(0, 123, 0)","(177, 0, 0)","(155, 155, 155)",2,legacy,experiment,"[1, 2, 3, 4, 5, 6, 7, 0]",\,2500,3000,0,8,252.7587515,1024,2,48000,-16,main,"[(0, -252), (178, -178), (252, 0), (178, 178), (0, 252), (-178, 178), (-252, 0), (-178, -178)]",[],34,even,2,NA,354749,421270,421270,186951,185939,2415,275493,275493,2415,2415,195690,554920,2414,421270,553820,553074,553075,NA,736,study_X,0,8738,1,yes,1680
undefined,undefined,NA,NA,NA,8738,8738,black,no,legacy,legacy,legacy,0,green,"(0, 123, 0)",shape,present,highProb,rectangular,same,swap,same,swap,green,"(0, 123, 0)",lowProb,lowProb2,circular,uniform,1,undefined,0,0.270833333,1,1,322.3802083,1,52,61897,0,0,0,0,0,0,0,0,83,0,1,0.270833333,322.3802083,52,61897,82,82,82,11/21/2018 15:25,Default description,yes,<openexp._canvas.legacy.Legacy object at 0x055E91B0>,<openexp._canvas.legacy.Legacy object at 0x050A6330>,<openexp._canvas.legacy.Legacy object at 0x057BB530>,<openexp._canvas.legacy.Legacy object at 0x05515E70>,<openexp._canvas.legacy.Legacy object at 0x054FF8D0>,<openexp._canvas.legacy.Legacy object at 0x055E31F0>,<openexp._canvas.legacy.Legacy object at 0x057C4FB0>,<openexp._canvas.legacy.Legacy object at 0x050A6E50>,75,SpatProbMultiple3 (2).osexp,C:/Userdata/Michel/SpatProbMultiple3,no,mono,no,18,no,white,no,yes,0.09,98,1050,legacy,45,57,57,1,C:/Userdata/Michel/SpatProbMultiple3/beh/subject-10.csv,legacy,12,192,25,Kafkaesque Koffka,3.2.5,yes,598477b2b83f69022949e7e9,47,green,rectangular,green,circular,0,\,565,space,8738,8738,"(80, 80, 80)","(0, 123, 0)","(177, 0, 0)","(155, 155, 155)",2,legacy,experiment,"[1, 2, 3, 4, 5, 6, 7, 0]",\,2500,3000,0,8,252.7587515,1024,2,48000,-16,main,"[(0, -252), (178, -178), (252, 0), (178, 178), (0, 252), (-178, 178), (-252, 0), (-178, -178)]",[],34,even,3,NA,354749,421270,421270,186951,185939,2415,275493,275493,2415,2415,195690,556672,2414,421270,556104,555358,555358,NA,736,study_X,0,8738,1,yes,1680
undefined,undefined,NA,NA,NA,8738,8738,black,no,legacy,legacy,legacy,0,green,"(0, 123, 0)",shape,present,highProb,rectangular,same,same,same,same,green,"(0, 123, 0)",lowProb,lowProb1,circular,uniform,1,undefined,0,0.276041667,1,1,324.8697917,1,53,62375,0,0,0,0,0,0,0,0,84,0,1,0.276041667,324.8697917,53,62375,83,83,83,11/21/2018 15:25,Default description,yes,<openexp._canvas.legacy.Legacy object at 0x055E91B0>,<openexp._canvas.legacy.Legacy object at 0x050A6330>,<openexp._canvas.legacy.Legacy object at 0x057BB530>,<openexp._canvas.legacy.Legacy object at 0x05515E70>,<openexp._canvas.legacy.Legacy object at 0x054FF8D0>,<openexp._canvas.legacy.Legacy object at 0x055E31F0>,<openexp._canvas.legacy.Legacy object at 0x057CDA70>,<openexp._canvas.legacy.Legacy object at 0x050A6E50>,75,SpatProbMultiple3 (2).osexp,C:/Userdata/Michel/SpatProbMultiple3,no,mono,no,18,no,white,no,yes,0.09,98,1050,legacy,45,58,58,1,C:/Userdata/Michel/SpatProbMultiple3/beh/subject-10.csv,legacy,12,192,25,Kafkaesque Koffka,3.2.5,yes,598477b2b83f69022949e7e9,47,green,rectangular,green,circular,0,\,478,space,8738,8738,"(80, 80, 80)","(0, 123, 0)","(177, 0, 0)","(155, 155, 155)",2,legacy,experiment,"[1, 2, 3, 4, 5, 6, 7, 0]",\,2500,3000,0,8,252.7587515,1024,2,48000,-16,main,"[(0, -252), (178, -178), (252, 0), (178, 178), (0, 252), (-178, 178), (-252, 0), (-178, -178)]",[],34,even,2,NA,354749,421270,421270,186951,185939,2415,275493,275493,2415,2415,195690,558328,2414,421270,557847,557101,557102,NA,736,study_X,0,8738,1,yes,1680
undefined,undefined,NA,NA,NA,8738,8738,black,no,legacy,legacy,legacy,0,green,"(0, 123, 0)",shape,present,highProb,rectangular,same,same,same,same,green,"(0, 123, 0)",lowProb,lowProb2,circular,uniform,1,undefined,0,0.28125,1,1,328.5572917,1,54,63083,0,0,0,0,0,0,0,0,85,0,1,0.28125,328.5572917,54,63083,84,84,84,11/21/2018 15:25,Default description,yes,<openexp._canvas.legacy.Legacy object at 0x055E91B0>,<openexp._canvas.legacy.Legacy object at 0x050A6330>,<openexp._canvas.legacy.Legacy object at 0x057BB530>,<openexp._canvas.legacy.Legacy object at 0x05515E70>,<openexp._canvas.legacy.Legacy object at 0x054FF8D0>,<openexp._canvas.legacy.Legacy object at 0x055E31F0>,<openexp._canvas.legacy.Legacy object at 0x057BB610>,<openexp._canvas.legacy.Legacy object at 0x050A6E50>,75,SpatProbMultiple3 (2).osexp,C:/Userdata/Michel/SpatProbMultiple3,no,mono,no,18,no,white,no,yes,0.09,98,1050,legacy,315,59,59,1,C:/Userdata/Michel/SpatProbMultiple3/beh/subject-10.csv,legacy,12,192,25,Kafkaesque Koffka,3.2.5,yes,598477b2b83f69022949e7e9,47,green,rectangular,green,circular,0,/,708,space,8738,8738,"(80, 80, 80)","(0, 123, 0)","(177, 0, 0)","(155, 155, 155)",2,legacy,experiment,"[1, 2, 3, 4, 5, 6, 7, 0]",/,2500,3000,0,8,252.7587515,1024,2,48000,-16,main,"[(0, -252), (178, -178), (252, 0), (178, 178), (0, 252), (-178, 178), (-252, 0), (-178, -178)]",[],34,even,3,NA,354749,421270,421270,186951,185939,2415,275493,275493,2415,2415,195690,560208,2414,421270,559497,558752,558753,NA,736,study_X,0,8738,1,yes,1680
undefined,undefined,NA,NA,NA,8738,8738,black,no,legacy,legacy,legacy,0,red,"(177, 0, 0)",color,present,highProb,rectangular,swap,same,same,swap,green,"(0, 123, 0)",lowProb,lowProb3,rectangular,uniform,1,undefined,0,0.286458333,1,1,331.5625,1,55,63660,0,0,0,0,0,0,0,0,86,0,1,0.286458333,331.5625,55,63660,85,85,85,11/21/2018 15:25,Default description,yes,<openexp._canvas.legacy.Legacy object at 0x055E91B0>,<openexp._canvas.legacy.Legacy object at 0x050A6330>,<openexp._canvas.legacy.Legacy object at 0x057BB530>,<openexp._canvas.legacy.Legacy object at 0x05515E70>,<openexp._canvas.legacy.Legacy object at 0x054FF8D0>,<openexp._canvas.legacy.Legacy object at 0x055E31F0>,<openexp._canvas.legacy.Legacy object at 0x057BB190>,<openexp._canvas.legacy.Legacy object at 0x050A6E50>,75,SpatProbMultiple3 (2).osexp,C:/Userdata/Michel/SpatProbMultiple3,no,mono,no,18,no,white,no,yes,0.09,98,1050,legacy,315,60,60,1,C:/Userdata/Michel/SpatProbMultiple3/beh/subject-10.csv,legacy,12,192,25,Kafkaesque Koffka,3.2.5,yes,598477b2b83f69022949e7e9,47,red,rectangular,green,rectangular,0,/,577,space,8738,8738,"(80, 80, 80)","(0, 123, 0)","(177, 0, 0)","(155, 155, 155)",2,legacy,experiment,"[1, 2, 3, 4, 5, 6, 7, 0]",/,2500,3000,0,8,252.7587515,1024,2,48000,-16,main,"[(0, -252), (178, -178), (252, 0), (178, 178), (0, 252), (-178, 178), (-252, 0), (-178, -178)]",[],34,even,4,NA,354749,421270,421270,186951,185939,2415,275493,275493,2415,2415,195690,561959,2414,421270,561379,560633,560633,NA,736,study_X,0,8738,1,yes,1680
undefined,undefined,NA,NA,NA,8738,8738,black,no,legacy,legacy,legacy,0,green,"(0, 123, 0)",color,present,highProb,rectangular,swap,same,swap,same,red,"(177, 0, 0)",lowProb,lowProb6,rectangular,uniform,1,undefined,0,0.291666667,1,1,340.2291667,1,56,65324,0,0,0,0,0,0,0,0,87,0,1,0.291666667,340.2291667,56,65324,86,86,86,11/21/2018 15:25,Default description,yes,<openexp._canvas.legacy.Legacy object at 0x055E91B0>,<openexp._canvas.legacy.Legacy object at 0x050A6330>,<openexp._canvas.legacy.Legacy object at 0x057BB530>,<openexp._canvas.legacy.Legacy object at 0x05515E70>,<openexp._canvas.legacy.Legacy object at 0x054FF8D0>,<openexp._canvas.legacy.Legacy object at 0x055E31F0>,<openexp._canvas.legacy.Legacy object at 0x057C48F0>,<openexp._canvas.legacy.Legacy object at 0x050A6E50>,75,SpatProbMultiple3 (2).osexp,C:/Userdata/Michel/SpatProbMultiple3,no,mono,no,18,no,white,no,yes,0.09,98,1050,legacy,45,61,61,1,C:/Userdata/Michel/SpatProbMultiple3/beh/subject-10.csv,legacy,12,192,25,Kafkaesque Koffka,3.2.5,yes,598477b2b83f69022949e7e9,47,green,rectangular,red,rectangular,0,\,1664,space,8738,8738,"(80, 80, 80)","(0, 123, 0)","(177, 0, 0)","(155, 155, 155)",2,legacy,experiment,"[1, 2, 3, 4, 5, 6, 7, 0]",\,2500,3000,0,8,252.7587515,1024,2,48000,-16,main,"[(0, -252), (178, -178), (252, 0), (178, 178), (0, 252), (-178, 178), (-252, 0), (-178, -178)]",[],34,even,0,NA,354749,421270,421270,186951,185939,2415,275493,275493,2415,2415,195690,564799,2414,421270,563132,562386,562387,NA,736,study_X,0,8738,1,yes,1680
undefined,undefined,NA,NA,NA,8738,8738,black,no,legacy,legacy,legacy,0,green,"(0, 123, 0)",shape,present,highProb,circular,same,swap,swap,same,green,"(0, 123, 0)",lowProb,lowProb5,rectangular,uniform,1,undefined,0,0.296875,1,1,345.78125,1,57,66390,0,0,0,0,0,0,0,0,88,0,1,0.296875,345.78125,57,66390,87,87,87,11/21/2018 15:25,Default description,yes,<openexp._canvas.legacy.Legacy object at 0x055E91B0>,<openexp._canvas.legacy.Legacy object at 0x050A6330>,<openexp._canvas.legacy.Legacy object at 0x057BB530>,<openexp._canvas.legacy.Legacy object at 0x05515E70>,<openexp._canvas.legacy.Legacy object at 0x054FF8D0>,<openexp._canvas.legacy.Legacy object at 0x055E31F0>,<openexp._canvas.legacy.Legacy object at 0x050A6D10>,<openexp._canvas.legacy.Legacy object at 0x050A6E50>,75,SpatProbMultiple3 (2).osexp,C:/Userdata/Michel/SpatProbMultiple3,no,mono,no,18,no,white,no,yes,0.09,98,1050,legacy,315,62,62,1,C:/Userdata/Michel/SpatProbMultiple3/beh/subject-10.csv,legacy,12,192,25,Kafkaesque Koffka,3.2.5,yes,598477b2b83f69022949e7e9,47,green,circular,green,rectangular,0,/,1066,space,8738,8738,"(80, 80, 80)","(0, 123, 0)","(177, 0, 0)","(155, 155, 155)",2,legacy,experiment,"[1, 2, 3, 4, 5, 6, 7, 0]",/,2500,3000,0,8,252.7587515,1024,2,48000,-16,main,"[(0, -252), (178, -178), (252, 0), (178, 178), (0, 252), (-178, 178), (-252, 0), (-178, -178)]",[],34,even,7,NA,354749,421270,421270,186951,185939,2415,275493,275493,2415,2415,195690,567064,2414,421270,565995,565249,565249,NA,736,study_X,0,8738,1,yes,1680
undefined,undefined,NA,NA,NA,8738,8738,black,no,legacy,legacy,legacy,0,red,"(177, 0, 0)",shape,present,lowProb3,rectangular,swap,swap,swap,swap,red,"(177, 0, 0)",lowProb,lowProb6,circular,uniform,1,undefined,0,0.302083333,1,1,349.3333333,1,58,67072,0,0,0,0,0,0,0,0,89,0,1,0.302083333,349.3333333,58,67072,88,88,88,11/21/2018 15:25,Default description,yes,<openexp._canvas.legacy.Legacy object at 0x055E91B0>,<openexp._canvas.legacy.Legacy object at 0x050A6330>,<openexp._canvas.legacy.Legacy object at 0x057BB530>,<openexp._canvas.legacy.Legacy object at 0x05515E70>,<openexp._canvas.legacy.Legacy object at 0x054FF8D0>,<openexp._canvas.legacy.Legacy object at 0x055E31F0>,<openexp._canvas.legacy.Legacy object at 0x057D2D90>,<openexp._canvas.legacy.Legacy object at 0x050A6E50>,75,SpatProbMultiple3 (2).osexp,C:/Userdata/Michel/SpatProbMultiple3,no,mono,no,18,no,white,no,yes,0.09,98,1050,legacy,315,63,63,1,C:/Userdata/Michel/SpatProbMultiple3/beh/subject-10.csv,legacy,12,192,25,Kafkaesque Koffka,3.2.5,yes,598477b2b83f69022949e7e9,47,red,rectangular,red,circular,0,/,682,space,8738,8738,"(80, 80, 80)","(0, 123, 0)","(177, 0, 0)","(155, 155, 155)",2,legacy,experiment,"[1, 2, 3, 4, 5, 6, 7, 0]",/,2500,3000,0,8,252.7587515,1024,2,48000,-16,main,"[(0, -252), (178, -178), (252, 0), (178, 178), (0, 252), (-178, 178), (-252, 0), (-178, -178)]",[],34,even,0,NA,354749,421270,421270,186951,185939,2415,275493,275493,2415,2415,195690,568928,2414,421270,568243,567497,567497,NA,736,study_X,0,8738,1,yes,1680
