acc,accuracy,answerQ1,answerQ2,answerQ3,average_response_time,avg_rt,background,bidi,canvas_backend,clock_backend,color_backend,compensation,cond_disColor,cond_disColorRGB,cond_disFeature,cond_disPresent,cond_disProbability,cond_disShape,cond_primingDisColor,cond_primingDisShape,cond_primingTarColor,cond_primingTarShape,cond_tarColor,cond_tarColorRGB,cond_tarLocation,cond_tarLocationLong,cond_tarShape,coordinates,correct,correct_continuePress,count_Questions,count_blockAcc,count_blockFeed,count_blockLoop,count_blockRT,count_blockSeq,count_blockSumCorrect,count_blockSumRT,count_continuePress,count_example,count_expSettings,count_exp_mainLoop,count_experiment,count_instructions,count_instructions1,count_instructions2,count_log,count_main,count_prepCanvas,count_totalAcc,count_totalRT,count_totalSumCorrect,count_totalSumRT,count_trialResp,count_trialSeq,count_trialTask,datetime,description,disable_garbage_collection,dispBlank,dispBlockStart,dispFeedBlock,dispFix,dispInstructions,dispQuestions,dispSearch,dispStartScreen,distance2screen,experiment_file,experiment_path,font_bold,font_family,font_italic,font_size,font_underline,foreground,form_clicks,fullscreen,gaborFreq,gaborSize,height,keyboard_backend,lineOriTar,live_row,live_row_blockLoop,live_row_exp_mainLoop,logfile,mouse_backend,noExpBlocks,noExpTrials,noPracTrials,opensesame_codename,opensesame_version,osf_always_upload_experiment,osf_id,physical_screensize,previousDisColor,previousDisShape,previousTarColor,previousTarShape,repeat_cycle,response,responseTime,response_continuePress,response_time,response_time_continuePress,rgb_gray,rgb_green,rgb_red,rgb_white,round_decimals,sampler_backend,set_blockType,set_counterPositions,set_respCorrect,set_respTimeoutExp,set_respTimeoutPrac,set_rotation,set_setSize,sizeImaginary,sound_buf_size,sound_channels,sound_freq,sound_sample_size,start,stimPositions,stimuli,subject_nr,subject_parity,tarIdx,time_Questions,time_blockFeed,time_blockLoop,time_blockSeq,time_continuePress,time_example,time_expSettings,time_exp_mainLoop,time_experiment,time_instructions,time_instructions1,time_instructions2,time_log,time_main,time_prepCanvas,time_trialResp,time_trialSeq,time_trialTask,timing_EEGwait,timing_fix,title,total_correct,total_response_time,total_responses,uniform_coordinates,width
undefined,undefined,NA,NA,NA,7516,7516,black,no,legacy,legacy,legacy,0,red,"(177, 0, 0)",shape,present,highProb,rectangular,swap,swap,swap,swap,red,"(177, 0, 0)",lowProb,lowProb5,circular,uniform,1,undefined,0,0.005208333,1,1,11.85416667,1,1,2276,0,0,0,0,0,0,0,0,26,0,1,0.005208333,11.85416667,1,2276,25,25,25,11/28/2018 15:30,Default description,yes,<openexp._canvas.legacy.Legacy object at 0x0535ECB0>,<openexp._canvas.legacy.Legacy object at 0x0535AC70>,<openexp._canvas.legacy.Legacy object at 0x051E91F0>,<openexp._canvas.legacy.Legacy object at 0x051E4930>,<openexp._canvas.legacy.Legacy object at 0x051D4190>,<openexp._canvas.legacy.Legacy object at 0x053522B0>,<openexp._canvas.legacy.Legacy object at 0x0535AF30>,<openexp._canvas.legacy.Legacy object at 0x051E9950>,75,SpatProbMultiple3.osexp,C:/Userdata/Michel/SpatProbMultiple3,no,mono,no,18,no,white,no,yes,0.09,98,1050,legacy,315,0,0,1,C:/Userdata/Michel/SpatProbMultiple3/beh/subject-21.csv,legacy,9,192,25,Kafkaesque Koffka,3.2.5,yes,598477b2b83f69022949e7e9,47,red,rectangular,red,circular,0,/,2276,space,7516,7516,"(80, 80, 80)","(0, 123, 0)","(177, 0, 0)","(155, 155, 155)",2,legacy,experiment,"[4, 5, 6, 7, 0, 1, 2, 3]",/,2500,3000,0,8,252.7587515,1024,2,48000,-16,main,"[(0, -252), (178, -178), (252, 0), (178, 178), (0, 252), (-178, 178), (-252, 0), (-178, -178)]",[],45,odd,2,NA,232167,277019,277019,117834,116823,1940,147856,147856,1940,1940,125350,285661,1938,277019,283382,277424,277424,NA,792,study_X,0,7516,1,yes,1680
undefined,undefined,NA,NA,NA,7516,7516,black,no,legacy,legacy,legacy,0,green,"(0, 123, 0)",color,present,highProb,rectangular,swap,same,same,swap,red,"(177, 0, 0)",lowProb,lowProb6,rectangular,uniform,1,undefined,0,0.010416667,1,1,20.83333333,1,2,4000,0,0,0,0,0,0,0,0,27,0,1,0.010416667,20.83333333,2,4000,26,26,26,11/28/2018 15:30,Default description,yes,<openexp._canvas.legacy.Legacy object at 0x0535ECB0>,<openexp._canvas.legacy.Legacy object at 0x0535AC70>,<openexp._canvas.legacy.Legacy object at 0x051E91F0>,<openexp._canvas.legacy.Legacy object at 0x051E4930>,<openexp._canvas.legacy.Legacy object at 0x051D4190>,<openexp._canvas.legacy.Legacy object at 0x053522B0>,<openexp._canvas.legacy.Legacy object at 0x053B03D0>,<openexp._canvas.legacy.Legacy object at 0x051E9950>,75,SpatProbMultiple3.osexp,C:/Userdata/Michel/SpatProbMultiple3,no,mono,no,18,no,white,no,yes,0.09,98,1050,legacy,315,1,1,1,C:/Userdata/Michel/SpatProbMultiple3/beh/subject-21.csv,legacy,9,192,25,Kafkaesque Koffka,3.2.5,yes,598477b2b83f69022949e7e9,47,green,rectangular,red,rectangular,0,/,1724,space,7516,7516,"(80, 80, 80)","(0, 123, 0)","(177, 0, 0)","(155, 155, 155)",2,legacy,experiment,"[4, 5, 6, 7, 0, 1, 2, 3]",/,2500,3000,0,8,252.7587515,1024,2,48000,-16,main,"[(0, -252), (178, -178), (252, 0), (178, 178), (0, 252), (-178, 178), (-252, 0), (-178, -178)]",[],45,odd,3,NA,232167,277019,277019,117834,116823,1940,147856,147856,1940,1940,125350,288629,1938,277019,286901,286099,286099,NA,792,study_X,0,7516,1,yes,1680
undefined,undefined,NA,NA,NA,7516,7516,black,no,legacy,legacy,legacy,0,green,"(0, 123, 0)",shape,present,highProb,circular,same,swap,swap,same,green,"(0, 123, 0)",lowProb,lowProb4,rectangular,uniform,1,undefined,0,0.015625,1,1,31.42708333,1,3,6034,0,0,0,0,0,0,0,0,28,0,1,0.015625,31.42708333,3,6034,27,27,27,11/28/2018 15:30,Default description,yes,<openexp._canvas.legacy.Legacy object at 0x0535ECB0>,<openexp._canvas.legacy.Legacy object at 0x0535AC70>,<openexp._canvas.legacy.Legacy object at 0x051E91F0>,<openexp._canvas.legacy.Legacy object at 0x051E4930>,<openexp._canvas.legacy.Legacy object at 0x051D4190>,<openexp._canvas.legacy.Legacy object at 0x053522B0>,<openexp._canvas.legacy.Legacy object at 0x053815F0>,<openexp._canvas.legacy.Legacy object at 0x051E9950>,75,SpatProbMultiple3.osexp,C:/Userdata/Michel/SpatProbMultiple3,no,mono,no,18,no,white,no,yes,0.09,98,1050,legacy,45,2,2,1,C:/Userdata/Michel/SpatProbMultiple3/beh/subject-21.csv,legacy,9,192,25,Kafkaesque Koffka,3.2.5,yes,598477b2b83f69022949e7e9,47,green,circular,green,rectangular,0,\,2034,space,7516,7516,"(80, 80, 80)","(0, 123, 0)","(177, 0, 0)","(155, 155, 155)",2,legacy,experiment,"[4, 5, 6, 7, 0, 1, 2, 3]",\,2500,3000,0,8,252.7587515,1024,2,48000,-16,main,"[(0, -252), (178, -178), (252, 0), (178, 178), (0, 252), (-178, 178), (-252, 0), (-178, -178)]",[],45,odd,1,NA,232167,277019,277019,117834,116823,1940,147856,147856,1940,1940,125350,291894,1938,277019,289856,289054,289054,NA,792,study_X,0,7516,1,yes,1680
undefined,undefined,NA,NA,NA,7516,7516,black,no,legacy,legacy,legacy,0,green,"(0, 123, 0)",color,present,highProb,circular,same,same,swap,swap,red,"(177, 0, 0)",lowProb,lowProb1,circular,uniform,0,undefined,0,0.015625,1,1,44.44791667,1,3,8534,0,0,0,0,0,0,0,0,29,0,1,0.015625,44.44791667,3,8534,28,28,28,11/28/2018 15:30,Default description,yes,<openexp._canvas.legacy.Legacy object at 0x0535ECB0>,<openexp._canvas.legacy.Legacy object at 0x0535AC70>,<openexp._canvas.legacy.Legacy object at 0x051E91F0>,<openexp._canvas.legacy.Legacy object at 0x051E4930>,<openexp._canvas.legacy.Legacy object at 0x051D4190>,<openexp._canvas.legacy.Legacy object at 0x053522B0>,<openexp._canvas.legacy.Legacy object at 0x053B0FD0>,<openexp._canvas.legacy.Legacy object at 0x051E9950>,75,SpatProbMultiple3.osexp,C:/Userdata/Michel/SpatProbMultiple3,no,mono,no,18,no,white,no,yes,0.09,98,1050,legacy,45,3,3,1,C:/Userdata/Michel/SpatProbMultiple3/beh/subject-21.csv,legacy,9,192,25,Kafkaesque Koffka,3.2.5,yes,598477b2b83f69022949e7e9,47,green,circular,red,circular,0,None,2500,space,7516,7516,"(80, 80, 80)","(0, 123, 0)","(177, 0, 0)","(155, 155, 155)",2,legacy,experiment,"[4, 5, 6, 7, 0, 1, 2, 3]",\,2500,3000,0,8,252.7587515,1024,2,48000,-16,main,"[(0, -252), (178, -178), (252, 0), (178, 178), (0, 252), (-178, 178), (-252, 0), (-178, -178)]",[],45,odd,5,NA,232167,277019,277019,117834,116823,1940,147856,147856,1940,1940,125350,295628,1938,277019,293126,292325,292325,NA,792,study_X,0,7516,1,yes,1680
undefined,undefined,NA,NA,NA,7516,7516,black,no,legacy,legacy,legacy,0,red,"(177, 0, 0)",shape,present,lowProb6,rectangular,swap,swap,same,same,red,"(177, 0, 0)",lowProb,lowProb3,circular,uniform,1,undefined,0,0.020833333,1,1,53.34375,1,4,10242,0,0,0,0,0,0,0,0,30,0,1,0.020833333,53.34375,4,10242,29,29,29,11/28/2018 15:30,Default description,yes,<openexp._canvas.legacy.Legacy object at 0x0535ECB0>,<openexp._canvas.legacy.Legacy object at 0x0535AC70>,<openexp._canvas.legacy.Legacy object at 0x051E91F0>,<openexp._canvas.legacy.Legacy object at 0x051E4930>,<openexp._canvas.legacy.Legacy object at 0x051D4190>,<openexp._canvas.legacy.Legacy object at 0x053522B0>,<openexp._canvas.legacy.Legacy object at 0x05369C70>,<openexp._canvas.legacy.Legacy object at 0x051E9950>,75,SpatProbMultiple3.osexp,C:/Userdata/Michel/SpatProbMultiple3,no,mono,no,18,no,white,no,yes,0.09,98,1050,legacy,315,4,4,1,C:/Userdata/Michel/SpatProbMultiple3/beh/subject-21.csv,legacy,9,192,25,Kafkaesque Koffka,3.2.5,yes,598477b2b83f69022949e7e9,47,red,rectangular,red,circular,0,/,1708,space,7516,7516,"(80, 80, 80)","(0, 123, 0)","(177, 0, 0)","(155, 155, 155)",2,legacy,experiment,"[4, 5, 6, 7, 0, 1, 2, 3]",/,2500,3000,0,8,252.7587515,1024,2,48000,-16,main,"[(0, -252), (178, -178), (252, 0), (178, 178), (0, 252), (-178, 178), (-252, 0), (-178, -178)]",[],45,odd,7,NA,232167,277019,277019,117834,116823,1940,147856,147856,1940,1940,125350,298573,1938,277019,296862,296061,296061,NA,792,study_X,0,7516,1,yes,1680
undefined,undefined,NA,NA,NA,7516,7516,black,no,legacy,legacy,legacy,0,red,"(177, 0, 0)",color,present,highProb,rectangular,same,same,swap,swap,green,"(0, 123, 0)",lowProb,lowProb6,rectangular,uniform,1,undefined,0,0.026041667,1,1,59.29166667,1,5,11384,0,0,0,0,0,0,0,0,31,0,1,0.026041667,59.29166667,5,11384,30,30,30,11/28/2018 15:30,Default description,yes,<openexp._canvas.legacy.Legacy object at 0x0535ECB0>,<openexp._canvas.legacy.Legacy object at 0x0535AC70>,<openexp._canvas.legacy.Legacy object at 0x051E91F0>,<openexp._canvas.legacy.Legacy object at 0x051E4930>,<openexp._canvas.legacy.Legacy object at 0x051D4190>,<openexp._canvas.legacy.Legacy object at 0x053522B0>,<openexp._canvas.legacy.Legacy object at 0x0535A770>,<openexp._canvas.legacy.Legacy object at 0x051E9950>,75,SpatProbMultiple3.osexp,C:/Userdata/Michel/SpatProbMultiple3,no,mono,no,18,no,white,no,yes,0.09,98,1050,legacy,45,5,5,1,C:/Userdata/Michel/SpatProbMultiple3/beh/subject-21.csv,legacy,9,192,25,Kafkaesque Koffka,3.2.5,yes,598477b2b83f69022949e7e9,47,red,rectangular,green,rectangular,0,\,1142,space,7516,7516,"(80, 80, 80)","(0, 123, 0)","(177, 0, 0)","(155, 155, 155)",2,legacy,experiment,"[4, 5, 6, 7, 0, 1, 2, 3]",\,2500,3000,0,8,252.7587515,1024,2,48000,-16,main,"[(0, -252), (178, -178), (252, 0), (178, 178), (0, 252), (-178, 178), (-252, 0), (-178, -178)]",[],45,odd,3,NA,232167,277019,277019,117834,116823,1940,147856,147856,1940,1940,125350,300941,1938,277019,299796,298994,298994,NA,792,study_X,0,7516,1,yes,1680
undefined,undefined,NA,NA,NA,7516,7516,black,no,legacy,legacy,legacy,0,red,"(177, 0, 0)",shape,present,lowProb1,circular,same,swap,swap,same,red,"(177, 0, 0)",lowProb,lowProb4,rectangular,uniform,1,undefined,0,0.03125,1,1,66.16145833,1,6,12703,0,0,0,0,0,0,0,0,32,0,1,0.03125,66.16145833,6,12703,31,31,31,11/28/2018 15:30,Default description,yes,<openexp._canvas.legacy.Legacy object at 0x0535ECB0>,<openexp._canvas.legacy.Legacy object at 0x0535AC70>,<openexp._canvas.legacy.Legacy object at 0x051E91F0>,<openexp._canvas.legacy.Legacy object at 0x051E4930>,<openexp._canvas.legacy.Legacy object at 0x051D4190>,<openexp._canvas.legacy.Legacy object at 0x053522B0>,<openexp._canvas.legacy.Legacy object at 0x0535EDD0>,<openexp._canvas.legacy.Legacy object at 0x051E9950>,75,SpatProbMultiple3.osexp,C:/Userdata/Michel/SpatProbMultiple3,no,mono,no,18,no,white,no,yes,0.09,98,1050,legacy,45,6,6,1,C:/Userdata/Michel/SpatProbMultiple3/beh/subject-21.csv,legacy,9,192,25,Kafkaesque Koffka,3.2.5,yes,598477b2b83f69022949e7e9,47,red,circular,red,rectangular,0,\,1319,space,7516,7516,"(80, 80, 80)","(0, 123, 0)","(177, 0, 0)","(155, 155, 155)",2,legacy,experiment,"[4, 5, 6, 7, 0, 1, 2, 3]",\,2500,3000,0,8,252.7587515,1024,2,48000,-16,main,"[(0, -252), (178, -178), (252, 0), (178, 178), (0, 252), (-178, 178), (-252, 0), (-178, -178)]",[],45,odd,1,NA,232167,277019,277019,117834,116823,1940,147856,147856,1940,1940,125350,303501,1938,277019,302178,301376,301376,NA,792,study_X,0,7516,1,yes,1680
undefined,undefined,NA,NA,NA,7516,7516,black,no,legacy,legacy,legacy,0,red,"(177, 0, 0)",shape,present,highProb,circular,same,same,same,same,red,"(177, 0, 0)",lowProb,lowProb2,rectangular,uniform,1,undefined,0,0.036458333,1,1,75.27604167,1,7,14453,0,0,0,0,0,0,0,0,33,0,1,0.036458333,75.27604167,7,14453,32,32,32,11/28/2018 15:30,Default description,yes,<openexp._canvas.legacy.Legacy object at 0x0535ECB0>,<openexp._canvas.legacy.Legacy object at 0x0535AC70>,<openexp._canvas.legacy.Legacy object at 0x051E91F0>,<openexp._canvas.legacy.Legacy object at 0x051E4930>,<openexp._canvas.legacy.Legacy object at 0x051D4190>,<openexp._canvas.legacy.Legacy object at 0x053522B0>,<openexp._canvas.legacy.Legacy object at 0x05369D70>,<openexp._canvas.legacy.Legacy object at 0x051E9950>,75,SpatProbMultiple3.osexp,C:/Userdata/Michel/SpatProbMultiple3,no,mono,no,18,no,white,no,yes,0.09,98,1050,legacy,45,7,7,1,C:/Userdata/Michel/SpatProbMultiple3/beh/subject-21.csv,legacy,9,192,25,Kafkaesque Koffka,3.2.5,yes,598477b2b83f69022949e7e9,47,red,circular,red,rectangular,0,\,1750,space,7516,7516,"(80, 80, 80)","(0, 123, 0)","(177, 0, 0)","(155, 155, 155)",2,legacy,experiment,"[4, 5, 6, 7, 0, 1, 2, 3]",\,2500,3000,0,8,252.7587515,1024,2,48000,-16,main,"[(0, -252), (178, -178), (252, 0), (178, 178), (0, 252), (-178, 178), (-252, 0), (-178, -178)]",[],45,odd,6,NA,232167,277019,277019,117834,116823,1940,147856,147856,1940,1940,125350,306477,1938,277019,304723,303921,303921,NA,792,study_X,0,7516,1,yes,1680
undefined,undefined,NA,NA,NA,7516,7516,black,no,legacy,legacy,legacy,0,green,"(0, 123, 0)",color,present,highProb,circular,swap,same,same,swap,red,"(177, 0, 0)",lowProb,lowProb1,circular,uniform,0,undefined,0,0.036458333,1,1,88.296875,1,7,16953,0,0,0,0,0,0,0,0,34,0,1,0.036458333,88.296875,7,16953,33,33,33,11/28/2018 15:30,Default description,yes,<openexp._canvas.legacy.Legacy object at 0x0535ECB0>,<openexp._canvas.legacy.Legacy object at 0x0535AC70>,<openexp._canvas.legacy.Legacy object at 0x051E91F0>,<openexp._canvas.legacy.Legacy object at 0x051E4930>,<openexp._canvas.legacy.Legacy object at 0x051D4190>,<openexp._canvas.legacy.Legacy object at 0x053522B0>,<openexp._canvas.legacy.Legacy object at 0x05376830>,<openexp._canvas.legacy.Legacy object at 0x051E9950>,75,SpatProbMultiple3.osexp,C:/Userdata/Michel/SpatProbMultiple3,no,mono,no,18,no,white,no,yes,0.09,98,1050,legacy,315,8,8,1,C:/Userdata/Michel/SpatProbMultiple3/beh/subject-21.csv,legacy,9,192,25,Kafkaesque Koffka,3.2.5,yes,598477b2b83f69022949e7e9,47,green,circular,red,circular,0,None,2500,space,7516,7516,"(80, 80, 80)","(0, 123, 0)","(177, 0, 0)","(155, 155, 155)",2,legacy,experiment,"[4, 5, 6, 7, 0, 1, 2, 3]",/,2500,3000,0,8,252.7587515,1024,2,48000,-16,main,"[(0, -252), (178, -178), (252, 0), (178, 178), (0, 252), (-178, 178), (-252, 0), (-178, -178)]",[],45,odd,5,NA,232167,277019,277019,117834,116823,1940,147856,147856,1940,1940,125350,310215,1938,277019,307712,306910,306910,NA,792,study_X,0,7516,1,yes,1680
undefined,undefined,NA,NA,NA,7516,7516,black,no,legacy,legacy,legacy,0,red,"(177, 0, 0)",shape,present,lowProb2,rectangular,swap,swap,same,same,red,"(177, 0, 0)",lowProb,lowProb1,circular,uniform,1,undefined,0,0.041666667,1,1,97.97916667,1,8,18812,0,0,0,0,0,0,0,0,35,0,1,0.041666667,97.97916667,8,18812,34,34,34,11/28/2018 15:30,Default description,yes,<openexp._canvas.legacy.Legacy object at 0x0535ECB0>,<openexp._canvas.legacy.Legacy object at 0x0535AC70>,<openexp._canvas.legacy.Legacy object at 0x051E91F0>,<openexp._canvas.legacy.Legacy object at 0x051E4930>,<openexp._canvas.legacy.Legacy object at 0x051D4190>,<openexp._canvas.legacy.Legacy object at 0x053522B0>,<openexp._canvas.legacy.Legacy object at 0x053762F0>,<openexp._canvas.legacy.Legacy object at 0x051E9950>,75,SpatProbMultiple3.osexp,C:/Userdata/Michel/SpatProbMultiple3,no,mono,no,18,no,white,no,yes,0.09,98,1050,legacy,315,9,9,1,C:/Userdata/Michel/SpatProbMultiple3/beh/subject-21.csv,legacy,9,192,25,Kafkaesque Koffka,3.2.5,yes,598477b2b83f69022949e7e9,47,red,rectangular,red,circular,0,/,1859,space,7516,7516,"(80, 80, 80)","(0, 123, 0)","(177, 0, 0)","(155, 155, 155)",2,legacy,experiment,"[4, 5, 6, 7, 0, 1, 2, 3]",/,2500,3000,0,8,252.7587515,1024,2,48000,-16,main,"[(0, -252), (178, -178), (252, 0), (178, 178), (0, 252), (-178, 178), (-252, 0), (-178, -178)]",[],45,odd,5,NA,232167,277019,277019,117834,116823,1940,147856,147856,1940,1940,125350,313301,1938,277019,311439,310638,310638,NA,792,study_X,0,7516,1,yes,1680
undefined,undefined,NA,NA,NA,7516,7516,black,no,legacy,legacy,legacy,0,red,"(177, 0, 0)",shape,present,highProb,rectangular,same,same,same,same,red,"(177, 0, 0)",lowProb,lowProb4,circular,uniform,0,undefined,0,0.041666667,1,1,111,1,8,21312,0,0,0,0,0,0,0,0,36,0,1,0.041666667,111,8,21312,35,35,35,11/28/2018 15:30,Default description,yes,<openexp._canvas.legacy.Legacy object at 0x0535ECB0>,<openexp._canvas.legacy.Legacy object at 0x0535AC70>,<openexp._canvas.legacy.Legacy object at 0x051E91F0>,<openexp._canvas.legacy.Legacy object at 0x051E4930>,<openexp._canvas.legacy.Legacy object at 0x051D4190>,<openexp._canvas.legacy.Legacy object at 0x053522B0>,<openexp._canvas.legacy.Legacy object at 0x053B7A10>,<openexp._canvas.legacy.Legacy object at 0x051E9950>,75,SpatProbMultiple3.osexp,C:/Userdata/Michel/SpatProbMultiple3,no,mono,no,18,no,white,no,yes,0.09,98,1050,legacy,45,10,10,1,C:/Userdata/Michel/SpatProbMultiple3/beh/subject-21.csv,legacy,9,192,25,Kafkaesque Koffka,3.2.5,yes,598477b2b83f69022949e7e9,47,red,rectangular,red,circular,0,None,2500,space,7516,7516,"(80, 80, 80)","(0, 123, 0)","(177, 0, 0)","(155, 155, 155)",2,legacy,experiment,"[4, 5, 6, 7, 0, 1, 2, 3]",\,2500,3000,0,8,252.7587515,1024,2,48000,-16,main,"[(0, -252), (178, -178), (252, 0), (178, 178), (0, 252), (-178, 178), (-252, 0), (-178, -178)]",[],45,odd,1,NA,232167,277019,277019,117834,116823,1940,147856,147856,1940,1940,125350,317041,1938,277019,314538,313736,313736,NA,792,study_X,0,7516,1,yes,1680
undefined,undefined,NA,NA,NA,7516,7516,black,no,legacy,legacy,legacy,0,green,"(0, 123, 0)",color,present,highProb,circular,swap,swap,same,same,red,"(177, 0, 0)",lowProb,lowProb3,circular,uniform,1,undefined,0,0.046875,1,1,117.2708333,1,9,22516,0,0,0,0,0,0,0,0,37,0,1,0.046875,117.2708333,9,22516,36,36,36,11/28/2018 15:30,Default description,yes,<openexp._canvas.legacy.Legacy object at 0x0535ECB0>,<openexp._canvas.legacy.Legacy object at 0x0535AC70>,<openexp._canvas.legacy.Legacy object at 0x051E91F0>,<openexp._canvas.legacy.Legacy object at 0x051E4930>,<openexp._canvas.legacy.Legacy object at 0x051D4190>,<openexp._canvas.legacy.Legacy object at 0x053522B0>,<openexp._canvas.legacy.Legacy object at 0x053B04B0>,<openexp._canvas.legacy.Legacy object at 0x051E9950>,75,SpatProbMultiple3.osexp,C:/Userdata/Michel/SpatProbMultiple3,no,mono,no,18,no,white,no,yes,0.09,98,1050,legacy,315,11,11,1,C:/Userdata/Michel/SpatProbMultiple3/beh/subject-21.csv,legacy,9,192,25,Kafkaesque Koffka,3.2.5,yes,598477b2b83f69022949e7e9,47,green,circular,red,circular,0,/,1204,space,7516,7516,"(80, 80, 80)","(0, 123, 0)","(177, 0, 0)","(155, 155, 155)",2,legacy,experiment,"[4, 5, 6, 7, 0, 1, 2, 3]",/,2500,3000,0,8,252.7587515,1024,2,48000,-16,main,"[(0, -252), (178, -178), (252, 0), (178, 178), (0, 252), (-178, 178), (-252, 0), (-178, -178)]",[],45,odd,7,NA,232167,277019,277019,117834,116823,1940,147856,147856,1940,1940,125350,319477,1938,277019,318270,317468,317468,NA,792,study_X,0,7516,1,yes,1680
undefined,undefined,NA,NA,NA,7516,7516,black,no,legacy,legacy,legacy,0,red,"(177, 0, 0)",shape,present,highProb,circular,swap,same,same,swap,red,"(177, 0, 0)",lowProb,lowProb6,rectangular,uniform,1,undefined,0,0.052083333,1,1,126.421875,1,10,24273,0,0,0,0,0,0,0,0,38,0,1,0.052083333,126.421875,10,24273,37,37,37,11/28/2018 15:30,Default description,yes,<openexp._canvas.legacy.Legacy object at 0x0535ECB0>,<openexp._canvas.legacy.Legacy object at 0x0535AC70>,<openexp._canvas.legacy.Legacy object at 0x051E91F0>,<openexp._canvas.legacy.Legacy object at 0x051E4930>,<openexp._canvas.legacy.Legacy object at 0x051D4190>,<openexp._canvas.legacy.Legacy object at 0x053522B0>,<openexp._canvas.legacy.Legacy object at 0x051E4F10>,<openexp._canvas.legacy.Legacy object at 0x051E9950>,75,SpatProbMultiple3.osexp,C:/Userdata/Michel/SpatProbMultiple3,no,mono,no,18,no,white,no,yes,0.09,98,1050,legacy,315,12,12,1,C:/Userdata/Michel/SpatProbMultiple3/beh/subject-21.csv,legacy,9,192,25,Kafkaesque Koffka,3.2.5,yes,598477b2b83f69022949e7e9,47,red,circular,red,rectangular,0,/,1757,space,7516,7516,"(80, 80, 80)","(0, 123, 0)","(177, 0, 0)","(155, 155, 155)",2,legacy,experiment,"[4, 5, 6, 7, 0, 1, 2, 3]",/,2500,3000,0,8,252.7587515,1024,2,48000,-16,main,"[(0, -252), (178, -178), (252, 0), (178, 178), (0, 252), (-178, 178), (-252, 0), (-178, -178)]",[],45,odd,3,NA,232167,277019,277019,117834,116823,1940,147856,147856,1940,1940,125350,322469,1938,277019,320708,319906,319906,NA,792,study_X,0,7516,1,yes,1680
undefined,undefined,NA,NA,NA,7516,7516,black,no,legacy,legacy,legacy,0,green,"(0, 123, 0)",color,present,highProb,circular,swap,same,same,swap,red,"(177, 0, 0)",lowProb,lowProb1,circular,uniform,1,undefined,0,0.057291667,1,1,136.0416667,1,11,26120,0,0,0,0,0,0,0,0,39,0,1,0.057291667,136.0416667,11,26120,38,38,38,11/28/2018 15:30,Default description,yes,<openexp._canvas.legacy.Legacy object at 0x0535ECB0>,<openexp._canvas.legacy.Legacy object at 0x0535AC70>,<openexp._canvas.legacy.Legacy object at 0x051E91F0>,<openexp._canvas.legacy.Legacy object at 0x051E4930>,<openexp._canvas.legacy.Legacy object at 0x051D4190>,<openexp._canvas.legacy.Legacy object at 0x053522B0>,<openexp._canvas.legacy.Legacy object at 0x0535A8D0>,<openexp._canvas.legacy.Legacy object at 0x051E9950>,75,SpatProbMultiple3.osexp,C:/Userdata/Michel/SpatProbMultiple3,no,mono,no,18,no,white,no,yes,0.09,98,1050,legacy,45,13,13,1,C:/Userdata/Michel/SpatProbMultiple3/beh/subject-21.csv,legacy,9,192,25,Kafkaesque Koffka,3.2.5,yes,598477b2b83f69022949e7e9,47,green,circular,red,circular,0,\,1847,space,7516,7516,"(80, 80, 80)","(0, 123, 0)","(177, 0, 0)","(155, 155, 155)",2,legacy,experiment,"[4, 5, 6, 7, 0, 1, 2, 3]",\,2500,3000,0,8,252.7587515,1024,2,48000,-16,main,"[(0, -252), (178, -178), (252, 0), (178, 178), (0, 252), (-178, 178), (-252, 0), (-178, -178)]",[],45,odd,5,NA,232167,277019,277019,117834,116823,1940,147856,147856,1940,1940,125350,325565,1938,277019,323715,322913,322913,NA,792,study_X,0,7516,1,yes,1680
undefined,undefined,NA,NA,NA,7516,7516,black,no,legacy,legacy,legacy,0,green,"(0, 123, 0)",shape,present,lowProb1,circular,same,same,swap,swap,green,"(0, 123, 0)",highProbColor,highProbColor,rectangular,uniform,1,undefined,0,0.0625,1,1,139.7447917,1,12,26831,0,0,0,0,0,0,0,0,40,0,1,0.0625,139.7447917,12,26831,39,39,39,11/28/2018 15:30,Default description,yes,<openexp._canvas.legacy.Legacy object at 0x0535ECB0>,<openexp._canvas.legacy.Legacy object at 0x0535AC70>,<openexp._canvas.legacy.Legacy object at 0x051E91F0>,<openexp._canvas.legacy.Legacy object at 0x051E4930>,<openexp._canvas.legacy.Legacy object at 0x051D4190>,<openexp._canvas.legacy.Legacy object at 0x053522B0>,<openexp._canvas.legacy.Legacy object at 0x05369A90>,<openexp._canvas.legacy.Legacy object at 0x051E9950>,75,SpatProbMultiple3.osexp,C:/Userdata/Michel/SpatProbMultiple3,no,mono,no,18,no,white,no,yes,0.09,98,1050,legacy,45,14,14,1,C:/Userdata/Michel/SpatProbMultiple3/beh/subject-21.csv,legacy,9,192,25,Kafkaesque Koffka,3.2.5,yes,598477b2b83f69022949e7e9,47,green,circular,green,rectangular,0,\,711,space,7516,7516,"(80, 80, 80)","(0, 123, 0)","(177, 0, 0)","(155, 155, 155)",2,legacy,experiment,"[4, 5, 6, 7, 0, 1, 2, 3]",\,2500,3000,0,8,252.7587515,1024,2,48000,-16,main,"[(0, -252), (178, -178), (252, 0), (178, 178), (0, 252), (-178, 178), (-252, 0), (-178, -178)]",[],45,odd,4,NA,232167,277019,277019,117834,116823,1940,147856,147856,1940,1940,125350,327509,1938,277019,326795,325994,325994,NA,792,study_X,0,7516,1,yes,1680
undefined,undefined,NA,NA,NA,7516,7516,black,no,legacy,legacy,legacy,0,green,"(0, 123, 0)",color,present,highProb,circular,same,same,swap,swap,red,"(177, 0, 0)",lowProb,lowProb5,circular,uniform,1,undefined,0,0.067708333,1,1,149.265625,1,13,28659,0,0,0,0,0,0,0,0,41,0,1,0.067708333,149.265625,13,28659,40,40,40,11/28/2018 15:30,Default description,yes,<openexp._canvas.legacy.Legacy object at 0x0535ECB0>,<openexp._canvas.legacy.Legacy object at 0x0535AC70>,<openexp._canvas.legacy.Legacy object at 0x051E91F0>,<openexp._canvas.legacy.Legacy object at 0x051E4930>,<openexp._canvas.legacy.Legacy object at 0x051D4190>,<openexp._canvas.legacy.Legacy object at 0x053522B0>,<openexp._canvas.legacy.Legacy object at 0x053B71F0>,<openexp._canvas.legacy.Legacy object at 0x051E9950>,75,SpatProbMultiple3.osexp,C:/Userdata/Michel/SpatProbMultiple3,no,mono,no,18,no,white,no,yes,0.09,98,1050,legacy,315,15,15,1,C:/Userdata/Michel/SpatProbMultiple3/beh/subject-21.csv,legacy,9,192,25,Kafkaesque Koffka,3.2.5,yes,598477b2b83f69022949e7e9,47,green,circular,red,circular,0,/,1828,space,7516,7516,"(80, 80, 80)","(0, 123, 0)","(177, 0, 0)","(155, 155, 155)",2,legacy,experiment,"[4, 5, 6, 7, 0, 1, 2, 3]",/,2500,3000,0,8,252.7587515,1024,2,48000,-16,main,"[(0, -252), (178, -178), (252, 0), (178, 178), (0, 252), (-178, 178), (-252, 0), (-178, -178)]",[],45,odd,2,NA,232167,277019,277019,117834,116823,1940,147856,147856,1940,1940,125350,330573,1938,277019,328743,327941,327941,NA,792,study_X,0,7516,1,yes,1680
undefined,undefined,NA,NA,NA,7516,7516,black,no,legacy,legacy,legacy,0,green,"(0, 123, 0)",shape,present,lowProb3,rectangular,same,swap,swap,same,green,"(0, 123, 0)",lowProb,lowProb2,circular,uniform,1,undefined,0,0.072916667,1,1,161.125,1,14,30936,0,0,0,0,0,0,0,0,42,0,1,0.072916667,161.125,14,30936,41,41,41,11/28/2018 15:30,Default description,yes,<openexp._canvas.legacy.Legacy object at 0x0535ECB0>,<openexp._canvas.legacy.Legacy object at 0x0535AC70>,<openexp._canvas.legacy.Legacy object at 0x051E91F0>,<openexp._canvas.legacy.Legacy object at 0x051E4930>,<openexp._canvas.legacy.Legacy object at 0x051D4190>,<openexp._canvas.legacy.Legacy object at 0x053522B0>,<openexp._canvas.legacy.Legacy object at 0x0535ADF0>,<openexp._canvas.legacy.Legacy object at 0x051E9950>,75,SpatProbMultiple3.osexp,C:/Userdata/Michel/SpatProbMultiple3,no,mono,no,18,no,white,no,yes,0.09,98,1050,legacy,45,16,16,1,C:/Userdata/Michel/SpatProbMultiple3/beh/subject-21.csv,legacy,9,192,25,Kafkaesque Koffka,3.2.5,yes,598477b2b83f69022949e7e9,47,green,rectangular,green,circular,0,\,2277,space,7516,7516,"(80, 80, 80)","(0, 123, 0)","(177, 0, 0)","(155, 155, 155)",2,legacy,experiment,"[4, 5, 6, 7, 0, 1, 2, 3]",\,2500,3000,0,8,252.7587515,1024,2,48000,-16,main,"[(0, -252), (178, -178), (252, 0), (178, 178), (0, 252), (-178, 178), (-252, 0), (-178, -178)]",[],45,odd,6,NA,232167,277019,277019,117834,116823,1940,147856,147856,1940,1940,125350,334093,1938,277019,331812,331011,331011,NA,792,study_X,0,7516,1,yes,1680
undefined,undefined,NA,NA,NA,7516,7516,black,no,legacy,legacy,legacy,0,green,"(0, 123, 0)",color,present,highProb,rectangular,same,same,swap,swap,red,"(177, 0, 0)",lowProb,lowProb3,rectangular,uniform,0,undefined,0,0.072916667,1,1,168.3541667,1,14,32324,0,0,0,0,0,0,0,0,43,0,1,0.072916667,168.3541667,14,32324,42,42,42,11/28/2018 15:30,Default description,yes,<openexp._canvas.legacy.Legacy object at 0x0535ECB0>,<openexp._canvas.legacy.Legacy object at 0x0535AC70>,<openexp._canvas.legacy.Legacy object at 0x051E91F0>,<openexp._canvas.legacy.Legacy object at 0x051E4930>,<openexp._canvas.legacy.Legacy object at 0x051D4190>,<openexp._canvas.legacy.Legacy object at 0x053522B0>,<openexp._canvas.legacy.Legacy object at 0x053B7D50>,<openexp._canvas.legacy.Legacy object at 0x051E9950>,75,SpatProbMultiple3.osexp,C:/Userdata/Michel/SpatProbMultiple3,no,mono,no,18,no,white,no,yes,0.09,98,1050,legacy,45,17,17,1,C:/Userdata/Michel/SpatProbMultiple3/beh/subject-21.csv,legacy,9,192,25,Kafkaesque Koffka,3.2.5,yes,598477b2b83f69022949e7e9,47,green,rectangular,red,rectangular,0,/,1388,space,7516,7516,"(80, 80, 80)","(0, 123, 0)","(177, 0, 0)","(155, 155, 155)",2,legacy,experiment,"[4, 5, 6, 7, 0, 1, 2, 3]",\,2500,3000,0,8,252.7587515,1024,2,48000,-16,main,"[(0, -252), (178, -178), (252, 0), (178, 178), (0, 252), (-178, 178), (-252, 0), (-178, -178)]",[],45,odd,7,NA,232167,277019,277019,117834,116823,1940,147856,147856,1940,1940,125350,336709,1938,277019,335318,334517,334517,NA,792,study_X,0,7516,1,yes,1680
undefined,undefined,NA,NA,NA,7516,7516,black,no,legacy,legacy,legacy,0,green,"(0, 123, 0)",shape,present,highProb,circular,same,swap,swap,same,green,"(0, 123, 0)",lowProb,lowProb6,rectangular,uniform,1,undefined,0,0.078125,1,1,181.28125,1,15,34806,0,0,0,0,0,0,0,0,44,0,1,0.078125,181.28125,15,34806,43,43,43,11/28/2018 15:30,Default description,yes,<openexp._canvas.legacy.Legacy object at 0x0535ECB0>,<openexp._canvas.legacy.Legacy object at 0x0535AC70>,<openexp._canvas.legacy.Legacy object at 0x051E91F0>,<openexp._canvas.legacy.Legacy object at 0x051E4930>,<openexp._canvas.legacy.Legacy object at 0x051D4190>,<openexp._canvas.legacy.Legacy object at 0x053522B0>,<openexp._canvas.legacy.Legacy object at 0x053B04D0>,<openexp._canvas.legacy.Legacy object at 0x051E9950>,75,SpatProbMultiple3.osexp,C:/Userdata/Michel/SpatProbMultiple3,no,mono,no,18,no,white,no,yes,0.09,98,1050,legacy,315,18,18,1,C:/Userdata/Michel/SpatProbMultiple3/beh/subject-21.csv,legacy,9,192,25,Kafkaesque Koffka,3.2.5,yes,598477b2b83f69022949e7e9,47,green,circular,green,rectangular,0,/,2482,space,7516,7516,"(80, 80, 80)","(0, 123, 0)","(177, 0, 0)","(155, 155, 155)",2,legacy,experiment,"[4, 5, 6, 7, 0, 1, 2, 3]",/,2500,3000,0,8,252.7587515,1024,2,48000,-16,main,"[(0, -252), (178, -178), (252, 0), (178, 178), (0, 252), (-178, 178), (-252, 0), (-178, -178)]",[],45,odd,3,NA,232167,277019,277019,117834,116823,1940,147856,147856,1940,1940,125350,340428,1938,277019,337944,337142,337143,NA,792,study_X,0,7516,1,yes,1680
undefined,undefined,NA,NA,NA,7516,7516,black,no,legacy,legacy,legacy,0,red,"(177, 0, 0)",color,present,lowProb4,circular,swap,same,same,swap,green,"(0, 123, 0)",lowProb,lowProb2,circular,uniform,1,undefined,0,0.083333333,1,1,187.3854167,1,16,35978,0,0,0,0,0,0,0,0,45,0,1,0.083333333,187.3854167,16,35978,44,44,44,11/28/2018 15:30,Default description,yes,<openexp._canvas.legacy.Legacy object at 0x0535ECB0>,<openexp._canvas.legacy.Legacy object at 0x0535AC70>,<openexp._canvas.legacy.Legacy object at 0x051E91F0>,<openexp._canvas.legacy.Legacy object at 0x051E4930>,<openexp._canvas.legacy.Legacy object at 0x051D4190>,<openexp._canvas.legacy.Legacy object at 0x053522B0>,<openexp._canvas.legacy.Legacy object at 0x053B7F90>,<openexp._canvas.legacy.Legacy object at 0x051E9950>,75,SpatProbMultiple3.osexp,C:/Userdata/Michel/SpatProbMultiple3,no,mono,no,18,no,white,no,yes,0.09,98,1050,legacy,315,19,19,1,C:/Userdata/Michel/SpatProbMultiple3/beh/subject-21.csv,legacy,9,192,25,Kafkaesque Koffka,3.2.5,yes,598477b2b83f69022949e7e9,47,red,circular,green,circular,0,/,1172,space,7516,7516,"(80, 80, 80)","(0, 123, 0)","(177, 0, 0)","(155, 155, 155)",2,legacy,experiment,"[4, 5, 6, 7, 0, 1, 2, 3]",/,2500,3000,0,8,252.7587515,1024,2,48000,-16,main,"[(0, -252), (178, -178), (252, 0), (178, 178), (0, 252), (-178, 178), (-252, 0), (-178, -178)]",[],45,odd,6,NA,232167,277019,277019,117834,116823,1940,147856,147856,1940,1940,125350,342837,1938,277019,341662,340860,340860,NA,792,study_X,0,7516,1,yes,1680
undefined,undefined,NA,NA,NA,7516,7516,black,no,legacy,legacy,legacy,0,red,"(177, 0, 0)",shape,present,highProb,circular,same,same,swap,swap,red,"(177, 0, 0)",highProbColor,highProbColor,rectangular,uniform,1,undefined,0,0.088541667,1,1,197.140625,1,17,37851,0,0,0,0,0,0,0,0,46,0,1,0.088541667,197.140625,17,37851,45,45,45,11/28/2018 15:30,Default description,yes,<openexp._canvas.legacy.Legacy object at 0x0535ECB0>,<openexp._canvas.legacy.Legacy object at 0x0535AC70>,<openexp._canvas.legacy.Legacy object at 0x051E91F0>,<openexp._canvas.legacy.Legacy object at 0x051E4930>,<openexp._canvas.legacy.Legacy object at 0x051D4190>,<openexp._canvas.legacy.Legacy object at 0x053522B0>,<openexp._canvas.legacy.Legacy object at 0x05395030>,<openexp._canvas.legacy.Legacy object at 0x051E9950>,75,SpatProbMultiple3.osexp,C:/Userdata/Michel/SpatProbMultiple3,no,mono,no,18,no,white,no,yes,0.09,98,1050,legacy,45,20,20,1,C:/Userdata/Michel/SpatProbMultiple3/beh/subject-21.csv,legacy,9,192,25,Kafkaesque Koffka,3.2.5,yes,598477b2b83f69022949e7e9,47,red,circular,red,rectangular,0,\,1873,space,7516,7516,"(80, 80, 80)","(0, 123, 0)","(177, 0, 0)","(155, 155, 155)",2,legacy,experiment,"[4, 5, 6, 7, 0, 1, 2, 3]",\,2500,3000,0,8,252.7587515,1024,2,48000,-16,main,"[(0, -252), (178, -178), (252, 0), (178, 178), (0, 252), (-178, 178), (-252, 0), (-178, -178)]",[],45,odd,4,NA,232167,277019,277019,117834,116823,1940,147856,147856,1940,1940,125350,345965,1938,277019,344089,343288,343288,NA,792,study_X,0,7516,1,yes,1680
undefined,undefined,NA,NA,NA,7516,7516,black,no,legacy,legacy,legacy,0,red,"(177, 0, 0)",color,absent,lowProb4,circular,same,same,same,swap,red,"(177, 0, 0)",lowProb,lowProb6,circular,uniform,1,undefined,0,0.09375,1,1,201.296875,1,18,38649,0,0,0,0,0,0,0,0,47,0,1,0.09375,201.296875,18,38649,46,46,46,11/28/2018 15:30,Default description,yes,<openexp._canvas.legacy.Legacy object at 0x0535ECB0>,<openexp._canvas.legacy.Legacy object at 0x0535AC70>,<openexp._canvas.legacy.Legacy object at 0x051E91F0>,<openexp._canvas.legacy.Legacy object at 0x051E4930>,<openexp._canvas.legacy.Legacy object at 0x051D4190>,<openexp._canvas.legacy.Legacy object at 0x053522B0>,<openexp._canvas.legacy.Legacy object at 0x051E9DD0>,<openexp._canvas.legacy.Legacy object at 0x051E9950>,75,SpatProbMultiple3.osexp,C:/Userdata/Michel/SpatProbMultiple3,no,mono,no,18,no,white,no,yes,0.09,98,1050,legacy,45,21,21,1,C:/Userdata/Michel/SpatProbMultiple3/beh/subject-21.csv,legacy,9,192,25,Kafkaesque Koffka,3.2.5,yes,598477b2b83f69022949e7e9,47,red,circular,red,circular,0,\,798,space,7516,7516,"(80, 80, 80)","(0, 123, 0)","(177, 0, 0)","(155, 155, 155)",2,legacy,experiment,"[4, 5, 6, 7, 0, 1, 2, 3]",\,2500,3000,0,8,252.7587515,1024,2,48000,-16,main,"[(0, -252), (178, -178), (252, 0), (178, 178), (0, 252), (-178, 178), (-252, 0), (-178, -178)]",[],45,odd,3,NA,232167,277019,277019,117834,116823,1940,147856,147856,1940,1940,125350,347997,1938,277019,347196,346395,346395,NA,792,study_X,0,7516,1,yes,1680
undefined,undefined,NA,NA,NA,7516,7516,black,no,legacy,legacy,legacy,0,green,"(0, 123, 0)",color,present,highProb,circular,swap,same,same,same,red,"(177, 0, 0)",lowProb,lowProb2,circular,uniform,1,undefined,0,0.098958333,1,1,213.4010417,1,19,40973,0,0,0,0,0,0,0,0,48,0,1,0.098958333,213.4010417,19,40973,47,47,47,11/28/2018 15:30,Default description,yes,<openexp._canvas.legacy.Legacy object at 0x0535ECB0>,<openexp._canvas.legacy.Legacy object at 0x0535AC70>,<openexp._canvas.legacy.Legacy object at 0x051E91F0>,<openexp._canvas.legacy.Legacy object at 0x051E4930>,<openexp._canvas.legacy.Legacy object at 0x051D4190>,<openexp._canvas.legacy.Legacy object at 0x053522B0>,<openexp._canvas.legacy.Legacy object at 0x0537AFB0>,<openexp._canvas.legacy.Legacy object at 0x051E9950>,75,SpatProbMultiple3.osexp,C:/Userdata/Michel/SpatProbMultiple3,no,mono,no,18,no,white,no,yes,0.09,98,1050,legacy,45,22,22,1,C:/Userdata/Michel/SpatProbMultiple3/beh/subject-21.csv,legacy,9,192,25,Kafkaesque Koffka,3.2.5,yes,598477b2b83f69022949e7e9,47,green,circular,red,circular,0,\,2324,space,7516,7516,"(80, 80, 80)","(0, 123, 0)","(177, 0, 0)","(155, 155, 155)",2,legacy,experiment,"[4, 5, 6, 7, 0, 1, 2, 3]",\,2500,3000,0,8,252.7587515,1024,2,48000,-16,main,"[(0, -252), (178, -178), (252, 0), (178, 178), (0, 252), (-178, 178), (-252, 0), (-178, -178)]",[],45,odd,6,NA,232167,277019,277019,117834,116823,1940,147856,147856,1940,1940,125350,351613,1938,277019,349286,348485,348485,NA,792,study_X,0,7516,1,yes,1680
undefined,undefined,NA,NA,NA,7516,7516,black,no,legacy,legacy,legacy,0,green,"(0, 123, 0)",shape,absent,highProbOther,rectangular,same,swap,swap,swap,green,"(0, 123, 0)",lowProb,lowProb4,rectangular,uniform,1,undefined,0,0.104166667,1,1,218.8541667,1,20,42020,0,0,0,0,0,0,0,0,49,0,1,0.104166667,218.8541667,20,42020,48,48,48,11/28/2018 15:30,Default description,yes,<openexp._canvas.legacy.Legacy object at 0x0535ECB0>,<openexp._canvas.legacy.Legacy object at 0x0535AC70>,<openexp._canvas.legacy.Legacy object at 0x051E91F0>,<openexp._canvas.legacy.Legacy object at 0x051E4930>,<openexp._canvas.legacy.Legacy object at 0x051D4190>,<openexp._canvas.legacy.Legacy object at 0x053522B0>,<openexp._canvas.legacy.Legacy object at 0x051E9C50>,<openexp._canvas.legacy.Legacy object at 0x051E9950>,75,SpatProbMultiple3.osexp,C:/Userdata/Michel/SpatProbMultiple3,no,mono,no,18,no,white,no,yes,0.09,98,1050,legacy,45,23,23,1,C:/Userdata/Michel/SpatProbMultiple3/beh/subject-21.csv,legacy,9,192,25,Kafkaesque Koffka,3.2.5,yes,598477b2b83f69022949e7e9,47,green,rectangular,green,rectangular,0,\,1047,space,7516,7516,"(80, 80, 80)","(0, 123, 0)","(177, 0, 0)","(155, 155, 155)",2,legacy,experiment,"[4, 5, 6, 7, 0, 1, 2, 3]",\,2500,3000,0,8,252.7587515,1024,2,48000,-16,main,"[(0, -252), (178, -178), (252, 0), (178, 178), (0, 252), (-178, 178), (-252, 0), (-178, -178)]",[],45,odd,1,NA,232167,277019,277019,117834,116823,1940,147856,147856,1940,1940,125350,353885,1938,277019,352834,352033,352033,NA,792,study_X,0,7516,1,yes,1680
undefined,undefined,NA,NA,NA,7516,7516,black,no,legacy,legacy,legacy,0,green,"(0, 123, 0)",color,present,highProb,rectangular,same,same,swap,same,red,"(177, 0, 0)",lowProb,lowProb5,rectangular,uniform,1,undefined,0,0.109375,1,1,222.9270833,1,21,42802,0,0,0,0,0,0,0,0,50,0,1,0.109375,222.9270833,21,42802,49,49,49,11/28/2018 15:30,Default description,yes,<openexp._canvas.legacy.Legacy object at 0x0535ECB0>,<openexp._canvas.legacy.Legacy object at 0x0535AC70>,<openexp._canvas.legacy.Legacy object at 0x051E91F0>,<openexp._canvas.legacy.Legacy object at 0x051E4930>,<openexp._canvas.legacy.Legacy object at 0x051D4190>,<openexp._canvas.legacy.Legacy object at 0x053522B0>,<openexp._canvas.legacy.Legacy object at 0x053B0490>,<openexp._canvas.legacy.Legacy object at 0x051E9950>,75,SpatProbMultiple3.osexp,C:/Userdata/Michel/SpatProbMultiple3,no,mono,no,18,no,white,no,yes,0.09,98,1050,legacy,45,24,24,1,C:/Userdata/Michel/SpatProbMultiple3/beh/subject-21.csv,legacy,9,192,25,Kafkaesque Koffka,3.2.5,yes,598477b2b83f69022949e7e9,47,green,rectangular,red,rectangular,0,\,782,space,7516,7516,"(80, 80, 80)","(0, 123, 0)","(177, 0, 0)","(155, 155, 155)",2,legacy,experiment,"[4, 5, 6, 7, 0, 1, 2, 3]",\,2500,3000,0,8,252.7587515,1024,2,48000,-16,main,"[(0, -252), (178, -178), (252, 0), (178, 178), (0, 252), (-178, 178), (-252, 0), (-178, -178)]",[],45,odd,2,NA,232167,277019,277019,117834,116823,1940,147856,147856,1940,1940,125350,355900,1938,277019,355116,354315,354315,NA,792,study_X,0,7516,1,yes,1680
undefined,undefined,NA,NA,NA,7516,7516,black,no,legacy,legacy,legacy,0,red,"(177, 0, 0)",shape,present,lowProb2,rectangular,swap,same,same,swap,red,"(177, 0, 0)",highProbColor,highProbColor,circular,uniform,1,undefined,0,0.114583333,1,1,227.859375,1,22,43749,0,0,0,0,0,0,0,0,51,0,1,0.114583333,227.859375,22,43749,50,50,50,11/28/2018 15:30,Default description,yes,<openexp._canvas.legacy.Legacy object at 0x0535ECB0>,<openexp._canvas.legacy.Legacy object at 0x0535AC70>,<openexp._canvas.legacy.Legacy object at 0x051E91F0>,<openexp._canvas.legacy.Legacy object at 0x051E4930>,<openexp._canvas.legacy.Legacy object at 0x051D4190>,<openexp._canvas.legacy.Legacy object at 0x053522B0>,<openexp._canvas.legacy.Legacy object at 0x051E94B0>,<openexp._canvas.legacy.Legacy object at 0x051E9950>,75,SpatProbMultiple3.osexp,C:/Userdata/Michel/SpatProbMultiple3,no,mono,no,18,no,white,no,yes,0.09,98,1050,legacy,315,25,25,1,C:/Userdata/Michel/SpatProbMultiple3/beh/subject-21.csv,legacy,9,192,25,Kafkaesque Koffka,3.2.5,yes,598477b2b83f69022949e7e9,47,red,rectangular,red,circular,0,/,947,space,7516,7516,"(80, 80, 80)","(0, 123, 0)","(177, 0, 0)","(155, 155, 155)",2,legacy,experiment,"[4, 5, 6, 7, 0, 1, 2, 3]",/,2500,3000,0,8,252.7587515,1024,2,48000,-16,main,"[(0, -252), (178, -178), (252, 0), (178, 178), (0, 252), (-178, 178), (-252, 0), (-178, -178)]",[],45,odd,4,NA,232167,277019,277019,117834,116823,1940,147856,147856,1940,1940,125350,358076,1938,277019,357127,356325,356325,NA,792,study_X,0,7516,1,yes,1680
undefined,undefined,NA,NA,NA,7516,7516,black,no,legacy,legacy,legacy,0,red,"(177, 0, 0)",shape,present,highProb,rectangular,same,same,same,same,red,"(177, 0, 0)",highProbColor,highProbColor,circular,uniform,1,undefined,0,0.119791667,1,1,234.2083333,1,23,44968,0,0,0,0,0,0,0,0,52,0,1,0.119791667,234.2083333,23,44968,51,51,51,11/28/2018 15:30,Default description,yes,<openexp._canvas.legacy.Legacy object at 0x0535ECB0>,<openexp._canvas.legacy.Legacy object at 0x0535AC70>,<openexp._canvas.legacy.Legacy object at 0x051E91F0>,<openexp._canvas.legacy.Legacy object at 0x051E4930>,<openexp._canvas.legacy.Legacy object at 0x051D4190>,<openexp._canvas.legacy.Legacy object at 0x053522B0>,<openexp._canvas.legacy.Legacy object at 0x053813D0>,<openexp._canvas.legacy.Legacy object at 0x051E9950>,75,SpatProbMultiple3.osexp,C:/Userdata/Michel/SpatProbMultiple3,no,mono,no,18,no,white,no,yes,0.09,98,1050,legacy,45,26,26,1,C:/Userdata/Michel/SpatProbMultiple3/beh/subject-21.csv,legacy,9,192,25,Kafkaesque Koffka,3.2.5,yes,598477b2b83f69022949e7e9,47,red,rectangular,red,circular,0,\,1219,space,7516,7516,"(80, 80, 80)","(0, 123, 0)","(177, 0, 0)","(155, 155, 155)",2,legacy,experiment,"[4, 5, 6, 7, 0, 1, 2, 3]",\,2500,3000,0,8,252.7587515,1024,2,48000,-16,main,"[(0, -252), (178, -178), (252, 0), (178, 178), (0, 252), (-178, 178), (-252, 0), (-178, -178)]",[],45,odd,4,NA,232167,277019,277019,117834,116823,1940,147856,147856,1940,1940,125350,360533,1938,277019,359311,358509,358509,NA,792,study_X,0,7516,1,yes,1680
undefined,undefined,NA,NA,NA,7516,7516,black,no,legacy,legacy,legacy,0,red,"(177, 0, 0)",color,present,highProb,rectangular,same,same,swap,swap,green,"(0, 123, 0)",highProbShape,highProbShape,rectangular,uniform,1,undefined,0,0.125,1,1,241.390625,1,24,46347,0,0,0,0,0,0,0,0,53,0,1,0.125,241.390625,24,46347,52,52,52,11/28/2018 15:30,Default description,yes,<openexp._canvas.legacy.Legacy object at 0x0535ECB0>,<openexp._canvas.legacy.Legacy object at 0x0535AC70>,<openexp._canvas.legacy.Legacy object at 0x051E91F0>,<openexp._canvas.legacy.Legacy object at 0x051E4930>,<openexp._canvas.legacy.Legacy object at 0x051D4190>,<openexp._canvas.legacy.Legacy object at 0x053522B0>,<openexp._canvas.legacy.Legacy object at 0x053B0F50>,<openexp._canvas.legacy.Legacy object at 0x051E9950>,75,SpatProbMultiple3.osexp,C:/Userdata/Michel/SpatProbMultiple3,no,mono,no,18,no,white,no,yes,0.09,98,1050,legacy,45,27,27,1,C:/Userdata/Michel/SpatProbMultiple3/beh/subject-21.csv,legacy,9,192,25,Kafkaesque Koffka,3.2.5,yes,598477b2b83f69022949e7e9,47,red,rectangular,green,rectangular,0,\,1379,space,7516,7516,"(80, 80, 80)","(0, 123, 0)","(177, 0, 0)","(155, 155, 155)",2,legacy,experiment,"[4, 5, 6, 7, 0, 1, 2, 3]",\,2500,3000,0,8,252.7587515,1024,2,48000,-16,main,"[(0, -252), (178, -178), (252, 0), (178, 178), (0, 252), (-178, 178), (-252, 0), (-178, -178)]",[],45,odd,0,NA,232167,277019,277019,117834,116823,1940,147856,147856,1940,1940,125350,363141,1938,277019,361760,360958,360958,NA,792,study_X,0,7516,1,yes,1680
undefined,undefined,NA,NA,NA,7516,7516,black,no,legacy,legacy,legacy,0,green,"(0, 123, 0)",color,present,highProb,circular,swap,swap,swap,swap,red,"(177, 0, 0)",lowProb,lowProb3,circular,uniform,1,undefined,0,0.130208333,1,1,245.2395833,1,25,47086,0,0,0,0,0,0,0,0,54,0,1,0.130208333,245.2395833,25,47086,53,53,53,11/28/2018 15:30,Default description,yes,<openexp._canvas.legacy.Legacy object at 0x0535ECB0>,<openexp._canvas.legacy.Legacy object at 0x0535AC70>,<openexp._canvas.legacy.Legacy object at 0x051E91F0>,<openexp._canvas.legacy.Legacy object at 0x051E4930>,<openexp._canvas.legacy.Legacy object at 0x051D4190>,<openexp._canvas.legacy.Legacy object at 0x053522B0>,<openexp._canvas.legacy.Legacy object at 0x05395B90>,<openexp._canvas.legacy.Legacy object at 0x051E9950>,75,SpatProbMultiple3.osexp,C:/Userdata/Michel/SpatProbMultiple3,no,mono,no,18,no,white,no,yes,0.09,98,1050,legacy,45,28,28,1,C:/Userdata/Michel/SpatProbMultiple3/beh/subject-21.csv,legacy,9,192,25,Kafkaesque Koffka,3.2.5,yes,598477b2b83f69022949e7e9,47,green,circular,red,circular,0,\,739,space,7516,7516,"(80, 80, 80)","(0, 123, 0)","(177, 0, 0)","(155, 155, 155)",2,legacy,experiment,"[4, 5, 6, 7, 0, 1, 2, 3]",\,2500,3000,0,8,252.7587515,1024,2,48000,-16,main,"[(0, -252), (178, -178), (252, 0), (178, 178), (0, 252), (-178, 178), (-252, 0), (-178, -178)]",[],45,odd,7,NA,232167,277019,277019,117834,116823,1940,147856,147856,1940,1940,125350,365125,1938,277019,364382,363580,363580,NA,792,study_X,0,7516,1,yes,1680
undefined,undefined,NA,NA,NA,7516,7516,black,no,legacy,legacy,legacy,0,green,"(0, 123, 0)",shape,present,highProbOther,circular,same,same,swap,swap,green,"(0, 123, 0)",lowProb,lowProb2,rectangular,uniform,1,undefined,0,0.135416667,1,1,255.7552083,1,26,49105,0,0,0,0,0,0,0,0,55,0,1,0.135416667,255.7552083,26,49105,54,54,54,11/28/2018 15:30,Default description,yes,<openexp._canvas.legacy.Legacy object at 0x0535ECB0>,<openexp._canvas.legacy.Legacy object at 0x0535AC70>,<openexp._canvas.legacy.Legacy object at 0x051E91F0>,<openexp._canvas.legacy.Legacy object at 0x051E4930>,<openexp._canvas.legacy.Legacy object at 0x051D4190>,<openexp._canvas.legacy.Legacy object at 0x053522B0>,<openexp._canvas.legacy.Legacy object at 0x0537A2D0>,<openexp._canvas.legacy.Legacy object at 0x051E9950>,75,SpatProbMultiple3.osexp,C:/Userdata/Michel/SpatProbMultiple3,no,mono,no,18,no,white,no,yes,0.09,98,1050,legacy,45,29,29,1,C:/Userdata/Michel/SpatProbMultiple3/beh/subject-21.csv,legacy,9,192,25,Kafkaesque Koffka,3.2.5,yes,598477b2b83f69022949e7e9,47,green,circular,green,rectangular,0,\,2019,space,7516,7516,"(80, 80, 80)","(0, 123, 0)","(177, 0, 0)","(155, 155, 155)",2,legacy,experiment,"[4, 5, 6, 7, 0, 1, 2, 3]",\,2500,3000,0,8,252.7587515,1024,2,48000,-16,main,"[(0, -252), (178, -178), (252, 0), (178, 178), (0, 252), (-178, 178), (-252, 0), (-178, -178)]",[],45,odd,6,NA,232167,277019,277019,117834,116823,1940,147856,147856,1940,1940,125350,368373,1938,277019,366350,365548,365548,NA,792,study_X,0,7516,1,yes,1680
undefined,undefined,NA,NA,NA,7516,7516,black,no,legacy,legacy,legacy,0,green,"(0, 123, 0)",shape,present,lowProb3,circular,same,same,same,same,green,"(0, 123, 0)",lowProb,lowProb4,rectangular,uniform,1,undefined,0,0.140625,1,1,266.3385417,1,27,51137,0,0,0,0,0,0,0,0,56,0,1,0.140625,266.3385417,27,51137,55,55,55,11/28/2018 15:30,Default description,yes,<openexp._canvas.legacy.Legacy object at 0x0535ECB0>,<openexp._canvas.legacy.Legacy object at 0x0535AC70>,<openexp._canvas.legacy.Legacy object at 0x051E91F0>,<openexp._canvas.legacy.Legacy object at 0x051E4930>,<openexp._canvas.legacy.Legacy object at 0x051D4190>,<openexp._canvas.legacy.Legacy object at 0x053522B0>,<openexp._canvas.legacy.Legacy object at 0x053B0510>,<openexp._canvas.legacy.Legacy object at 0x051E9950>,75,SpatProbMultiple3.osexp,C:/Userdata/Michel/SpatProbMultiple3,no,mono,no,18,no,white,no,yes,0.09,98,1050,legacy,315,30,30,1,C:/Userdata/Michel/SpatProbMultiple3/beh/subject-21.csv,legacy,9,192,25,Kafkaesque Koffka,3.2.5,yes,598477b2b83f69022949e7e9,47,green,circular,green,rectangular,0,/,2032,space,7516,7516,"(80, 80, 80)","(0, 123, 0)","(177, 0, 0)","(155, 155, 155)",2,legacy,experiment,"[4, 5, 6, 7, 0, 1, 2, 3]",/,2500,3000,0,8,252.7587515,1024,2,48000,-16,main,"[(0, -252), (178, -178), (252, 0), (178, 178), (0, 252), (-178, 178), (-252, 0), (-178, -178)]",[],45,odd,1,NA,232167,277019,277019,117834,116823,1940,147856,147856,1940,1940,125350,371636,1938,277019,369601,368799,368799,NA,792,study_X,0,7516,1,yes,1680
undefined,undefined,NA,NA,NA,7516,7516,black,no,legacy,legacy,legacy,0,green,"(0, 123, 0)",shape,present,lowProb5,rectangular,same,swap,same,swap,green,"(0, 123, 0)",lowProb,lowProb2,circular,uniform,1,undefined,0,0.145833333,1,1,271.8645833,1,28,52198,0,0,0,0,0,0,0,0,57,0,1,0.145833333,271.8645833,28,52198,56,56,56,11/28/2018 15:30,Default description,yes,<openexp._canvas.legacy.Legacy object at 0x0535ECB0>,<openexp._canvas.legacy.Legacy object at 0x0535AC70>,<openexp._canvas.legacy.Legacy object at 0x051E91F0>,<openexp._canvas.legacy.Legacy object at 0x051E4930>,<openexp._canvas.legacy.Legacy object at 0x051D4190>,<openexp._canvas.legacy.Legacy object at 0x053522B0>,<openexp._canvas.legacy.Legacy object at 0x05369770>,<openexp._canvas.legacy.Legacy object at 0x051E9950>,75,SpatProbMultiple3.osexp,C:/Userdata/Michel/SpatProbMultiple3,no,mono,no,18,no,white,no,yes,0.09,98,1050,legacy,45,31,31,1,C:/Userdata/Michel/SpatProbMultiple3/beh/subject-21.csv,legacy,9,192,25,Kafkaesque Koffka,3.2.5,yes,598477b2b83f69022949e7e9,47,green,rectangular,green,circular,0,\,1061,space,7516,7516,"(80, 80, 80)","(0, 123, 0)","(177, 0, 0)","(155, 155, 155)",2,legacy,experiment,"[4, 5, 6, 7, 0, 1, 2, 3]",\,2500,3000,0,8,252.7587515,1024,2,48000,-16,main,"[(0, -252), (178, -178), (252, 0), (178, 178), (0, 252), (-178, 178), (-252, 0), (-178, -178)]",[],45,odd,6,NA,232167,277019,277019,117834,116823,1940,147856,147856,1940,1940,125350,373948,1938,277019,372884,372082,372082,NA,792,study_X,0,7516,1,yes,1680
undefined,undefined,NA,NA,NA,7516,7516,black,no,legacy,legacy,legacy,0,red,"(177, 0, 0)",color,present,highProb,circular,swap,swap,same,same,green,"(0, 123, 0)",lowProb,lowProb5,circular,uniform,1,undefined,0,0.151041667,1,1,281.328125,1,29,54015,0,0,0,0,0,0,0,0,58,0,1,0.151041667,281.328125,29,54015,57,57,57,11/28/2018 15:30,Default description,yes,<openexp._canvas.legacy.Legacy object at 0x0535ECB0>,<openexp._canvas.legacy.Legacy object at 0x0535AC70>,<openexp._canvas.legacy.Legacy object at 0x051E91F0>,<openexp._canvas.legacy.Legacy object at 0x051E4930>,<openexp._canvas.legacy.Legacy object at 0x051D4190>,<openexp._canvas.legacy.Legacy object at 0x053522B0>,<openexp._canvas.legacy.Legacy object at 0x0535EED0>,<openexp._canvas.legacy.Legacy object at 0x051E9950>,75,SpatProbMultiple3.osexp,C:/Userdata/Michel/SpatProbMultiple3,no,mono,no,18,no,white,no,yes,0.09,98,1050,legacy,315,32,32,1,C:/Userdata/Michel/SpatProbMultiple3/beh/subject-21.csv,legacy,9,192,25,Kafkaesque Koffka,3.2.5,yes,598477b2b83f69022949e7e9,47,red,circular,green,circular,0,/,1817,space,7516,7516,"(80, 80, 80)","(0, 123, 0)","(177, 0, 0)","(155, 155, 155)",2,legacy,experiment,"[4, 5, 6, 7, 0, 1, 2, 3]",/,2500,3000,0,8,252.7587515,1024,2,48000,-16,main,"[(0, -252), (178, -178), (252, 0), (178, 178), (0, 252), (-178, 178), (-252, 0), (-178, -178)]",[],45,odd,2,NA,232167,277019,277019,117834,116823,1940,147856,147856,1940,1940,125350,376996,1938,277019,375177,374375,374376,NA,792,study_X,0,7516,1,yes,1680
undefined,undefined,NA,NA,NA,7516,7516,black,no,legacy,legacy,legacy,0,green,"(0, 123, 0)",color,absent,highProb,rectangular,swap,swap,same,swap,green,"(0, 123, 0)",lowProb,lowProb5,rectangular,uniform,1,undefined,0,0.15625,1,1,290.1875,1,30,55716,0,0,0,0,0,0,0,0,59,0,1,0.15625,290.1875,30,55716,58,58,58,11/28/2018 15:30,Default description,yes,<openexp._canvas.legacy.Legacy object at 0x0535ECB0>,<openexp._canvas.legacy.Legacy object at 0x0535AC70>,<openexp._canvas.legacy.Legacy object at 0x051E91F0>,<openexp._canvas.legacy.Legacy object at 0x051E4930>,<openexp._canvas.legacy.Legacy object at 0x051D4190>,<openexp._canvas.legacy.Legacy object at 0x053522B0>,<openexp._canvas.legacy.Legacy object at 0x05369030>,<openexp._canvas.legacy.Legacy object at 0x051E9950>,75,SpatProbMultiple3.osexp,C:/Userdata/Michel/SpatProbMultiple3,no,mono,no,18,no,white,no,yes,0.09,98,1050,legacy,45,33,33,1,C:/Userdata/Michel/SpatProbMultiple3/beh/subject-21.csv,legacy,9,192,25,Kafkaesque Koffka,3.2.5,yes,598477b2b83f69022949e7e9,47,green,rectangular,green,rectangular,0,\,1701,space,7516,7516,"(80, 80, 80)","(0, 123, 0)","(177, 0, 0)","(155, 155, 155)",2,legacy,experiment,"[4, 5, 6, 7, 0, 1, 2, 3]",\,2500,3000,0,8,252.7587515,1024,2,48000,-16,main,"[(0, -252), (178, -178), (252, 0), (178, 178), (0, 252), (-178, 178), (-252, 0), (-178, -178)]",[],45,odd,2,NA,232167,277019,277019,117834,116823,1940,147856,147856,1940,1940,125350,379933,1938,277019,378228,377426,377426,NA,792,study_X,0,7516,1,yes,1680
undefined,undefined,NA,NA,NA,7516,7516,black,no,legacy,legacy,legacy,0,red,"(177, 0, 0)",color,absent,highProbOther,rectangular,swap,same,swap,same,red,"(177, 0, 0)",highProbShape,highProbShape,rectangular,uniform,1,undefined,0,0.161458333,1,1,299.9635417,1,31,57593,0,0,0,0,0,0,0,0,60,0,1,0.161458333,299.9635417,31,57593,59,59,59,11/28/2018 15:30,Default description,yes,<openexp._canvas.legacy.Legacy object at 0x0535ECB0>,<openexp._canvas.legacy.Legacy object at 0x0535AC70>,<openexp._canvas.legacy.Legacy object at 0x051E91F0>,<openexp._canvas.legacy.Legacy object at 0x051E4930>,<openexp._canvas.legacy.Legacy object at 0x051D4190>,<openexp._canvas.legacy.Legacy object at 0x053522B0>,<openexp._canvas.legacy.Legacy object at 0x05381BD0>,<openexp._canvas.legacy.Legacy object at 0x051E9950>,75,SpatProbMultiple3.osexp,C:/Userdata/Michel/SpatProbMultiple3,no,mono,no,18,no,white,no,yes,0.09,98,1050,legacy,45,34,34,1,C:/Userdata/Michel/SpatProbMultiple3/beh/subject-21.csv,legacy,9,192,25,Kafkaesque Koffka,3.2.5,yes,598477b2b83f69022949e7e9,47,red,rectangular,red,rectangular,0,\,1877,space,7516,7516,"(80, 80, 80)","(0, 123, 0)","(177, 0, 0)","(155, 155, 155)",2,legacy,experiment,"[4, 5, 6, 7, 0, 1, 2, 3]",\,2500,3000,0,8,252.7587515,1024,2,48000,-16,main,"[(0, -252), (178, -178), (252, 0), (178, 178), (0, 252), (-178, 178), (-252, 0), (-178, -178)]",[],45,odd,0,NA,232167,277019,277019,117834,116823,1940,147856,147856,1940,1940,125350,383045,1938,277019,381164,380363,380363,NA,792,study_X,0,7516,1,yes,1680
undefined,undefined,NA,NA,NA,7516,7516,black,no,legacy,legacy,legacy,0,green,"(0, 123, 0)",shape,present,lowProb4,circular,swap,swap,swap,same,green,"(0, 123, 0)",lowProb,lowProb1,rectangular,uniform,1,undefined,0,0.166666667,1,1,303.9427083,1,32,58357,0,0,0,0,0,0,0,0,61,0,1,0.166666667,303.9427083,32,58357,60,60,60,11/28/2018 15:30,Default description,yes,<openexp._canvas.legacy.Legacy object at 0x0535ECB0>,<openexp._canvas.legacy.Legacy object at 0x0535AC70>,<openexp._canvas.legacy.Legacy object at 0x051E91F0>,<openexp._canvas.legacy.Legacy object at 0x051E4930>,<openexp._canvas.legacy.Legacy object at 0x051D4190>,<openexp._canvas.legacy.Legacy object at 0x053522B0>,<openexp._canvas.legacy.Legacy object at 0x0537ACD0>,<openexp._canvas.legacy.Legacy object at 0x051E9950>,75,SpatProbMultiple3.osexp,C:/Userdata/Michel/SpatProbMultiple3,no,mono,no,18,no,white,no,yes,0.09,98,1050,legacy,315,35,35,1,C:/Userdata/Michel/SpatProbMultiple3/beh/subject-21.csv,legacy,9,192,25,Kafkaesque Koffka,3.2.5,yes,598477b2b83f69022949e7e9,47,green,circular,green,rectangular,0,/,764,space,7516,7516,"(80, 80, 80)","(0, 123, 0)","(177, 0, 0)","(155, 155, 155)",2,legacy,experiment,"[4, 5, 6, 7, 0, 1, 2, 3]",/,2500,3000,0,8,252.7587515,1024,2,48000,-16,main,"[(0, -252), (178, -178), (252, 0), (178, 178), (0, 252), (-178, 178), (-252, 0), (-178, -178)]",[],45,odd,5,NA,232167,277019,277019,117834,116823,1940,147856,147856,1940,1940,125350,385037,1938,277019,384269,383469,383469,NA,792,study_X,0,7516,1,yes,1680
undefined,undefined,NA,NA,NA,7516,7516,black,no,legacy,legacy,legacy,0,green,"(0, 123, 0)",color,present,highProb,rectangular,same,swap,swap,same,red,"(177, 0, 0)",lowProb,lowProb4,rectangular,uniform,1,undefined,0,0.171875,1,1,307.6770833,1,33,59074,0,0,0,0,0,0,0,0,62,0,1,0.171875,307.6770833,33,59074,61,61,61,11/28/2018 15:30,Default description,yes,<openexp._canvas.legacy.Legacy object at 0x0535ECB0>,<openexp._canvas.legacy.Legacy object at 0x0535AC70>,<openexp._canvas.legacy.Legacy object at 0x051E91F0>,<openexp._canvas.legacy.Legacy object at 0x051E4930>,<openexp._canvas.legacy.Legacy object at 0x051D4190>,<openexp._canvas.legacy.Legacy object at 0x053522B0>,<openexp._canvas.legacy.Legacy object at 0x05369030>,<openexp._canvas.legacy.Legacy object at 0x051E9950>,75,SpatProbMultiple3.osexp,C:/Userdata/Michel/SpatProbMultiple3,no,mono,no,18,no,white,no,yes,0.09,98,1050,legacy,45,36,36,1,C:/Userdata/Michel/SpatProbMultiple3/beh/subject-21.csv,legacy,9,192,25,Kafkaesque Koffka,3.2.5,yes,598477b2b83f69022949e7e9,47,green,rectangular,red,rectangular,0,\,717,space,7516,7516,"(80, 80, 80)","(0, 123, 0)","(177, 0, 0)","(155, 155, 155)",2,legacy,experiment,"[4, 5, 6, 7, 0, 1, 2, 3]",\,2500,3000,0,8,252.7587515,1024,2,48000,-16,main,"[(0, -252), (178, -178), (252, 0), (178, 178), (0, 252), (-178, 178), (-252, 0), (-178, -178)]",[],45,odd,1,NA,232167,277019,277019,117834,116823,1940,147856,147856,1940,1940,125350,386988,1938,277019,386268,385467,385467,NA,792,study_X,0,7516,1,yes,1680
undefined,undefined,NA,NA,NA,7516,7516,black,no,legacy,legacy,legacy,0,red,"(177, 0, 0)",color,present,lowProb4,rectangular,swap,same,swap,same,green,"(0, 123, 0)",lowProb,lowProb5,rectangular,uniform,1,undefined,0,0.177083333,1,1,318.296875,1,34,61113,0,0,0,0,0,0,0,0,63,0,1,0.177083333,318.296875,34,61113,62,62,62,11/28/2018 15:30,Default description,yes,<openexp._canvas.legacy.Legacy object at 0x0535ECB0>,<openexp._canvas.legacy.Legacy object at 0x0535AC70>,<openexp._canvas.legacy.Legacy object at 0x051E91F0>,<openexp._canvas.legacy.Legacy object at 0x051E4930>,<openexp._canvas.legacy.Legacy object at 0x051D4190>,<openexp._canvas.legacy.Legacy object at 0x053522B0>,<openexp._canvas.legacy.Legacy object at 0x0538B3F0>,<openexp._canvas.legacy.Legacy object at 0x051E9950>,75,SpatProbMultiple3.osexp,C:/Userdata/Michel/SpatProbMultiple3,no,mono,no,18,no,white,no,yes,0.09,98,1050,legacy,45,37,37,1,C:/Userdata/Michel/SpatProbMultiple3/beh/subject-21.csv,legacy,9,192,25,Kafkaesque Koffka,3.2.5,yes,598477b2b83f69022949e7e9,47,red,rectangular,green,rectangular,0,\,2039,space,7516,7516,"(80, 80, 80)","(0, 123, 0)","(177, 0, 0)","(155, 155, 155)",2,legacy,experiment,"[4, 5, 6, 7, 0, 1, 2, 3]",\,2500,3000,0,8,252.7587515,1024,2,48000,-16,main,"[(0, -252), (178, -178), (252, 0), (178, 178), (0, 252), (-178, 178), (-252, 0), (-178, -178)]",[],45,odd,2,NA,232167,277019,277019,117834,116823,1940,147856,147856,1940,1940,125350,390292,1938,277019,388251,387449,387449,NA,792,study_X,0,7516,1,yes,1680
undefined,undefined,NA,NA,NA,7516,7516,black,no,legacy,legacy,legacy,0,green,"(0, 123, 0)",color,present,highProb,rectangular,swap,same,swap,same,red,"(177, 0, 0)",lowProb,lowProb6,rectangular,uniform,1,undefined,0,0.182291667,1,1,329.6458333,1,35,63292,0,0,0,0,0,0,0,0,64,0,1,0.182291667,329.6458333,35,63292,63,63,63,11/28/2018 15:30,Default description,yes,<openexp._canvas.legacy.Legacy object at 0x0535ECB0>,<openexp._canvas.legacy.Legacy object at 0x0535AC70>,<openexp._canvas.legacy.Legacy object at 0x051E91F0>,<openexp._canvas.legacy.Legacy object at 0x051E4930>,<openexp._canvas.legacy.Legacy object at 0x051D4190>,<openexp._canvas.legacy.Legacy object at 0x053522B0>,<openexp._canvas.legacy.Legacy object at 0x0537AFD0>,<openexp._canvas.legacy.Legacy object at 0x051E9950>,75,SpatProbMultiple3.osexp,C:/Userdata/Michel/SpatProbMultiple3,no,mono,no,18,no,white,no,yes,0.09,98,1050,legacy,315,38,38,1,C:/Userdata/Michel/SpatProbMultiple3/beh/subject-21.csv,legacy,9,192,25,Kafkaesque Koffka,3.2.5,yes,598477b2b83f69022949e7e9,47,green,rectangular,red,rectangular,0,/,2179,space,7516,7516,"(80, 80, 80)","(0, 123, 0)","(177, 0, 0)","(155, 155, 155)",2,legacy,experiment,"[4, 5, 6, 7, 0, 1, 2, 3]",/,2500,3000,0,8,252.7587515,1024,2,48000,-16,main,"[(0, -252), (178, -178), (252, 0), (178, 178), (0, 252), (-178, 178), (-252, 0), (-178, -178)]",[],45,odd,3,NA,232167,277019,277019,117834,116823,1940,147856,147856,1940,1940,125350,393700,1938,277019,391519,390717,390717,NA,792,study_X,0,7516,1,yes,1680
undefined,undefined,NA,NA,NA,7516,7516,black,no,legacy,legacy,legacy,0,red,"(177, 0, 0)",shape,present,highProb,circular,swap,swap,same,same,red,"(177, 0, 0)",lowProb,lowProb5,rectangular,uniform,1,undefined,0,0.1875,1,1,336.8541667,1,36,64676,0,0,0,0,0,0,0,0,65,0,1,0.1875,336.8541667,36,64676,64,64,64,11/28/2018 15:30,Default description,yes,<openexp._canvas.legacy.Legacy object at 0x0535ECB0>,<openexp._canvas.legacy.Legacy object at 0x0535AC70>,<openexp._canvas.legacy.Legacy object at 0x051E91F0>,<openexp._canvas.legacy.Legacy object at 0x051E4930>,<openexp._canvas.legacy.Legacy object at 0x051D4190>,<openexp._canvas.legacy.Legacy object at 0x053522B0>,<openexp._canvas.legacy.Legacy object at 0x053B7BF0>,<openexp._canvas.legacy.Legacy object at 0x051E9950>,75,SpatProbMultiple3.osexp,C:/Userdata/Michel/SpatProbMultiple3,no,mono,no,18,no,white,no,yes,0.09,98,1050,legacy,45,39,39,1,C:/Userdata/Michel/SpatProbMultiple3/beh/subject-21.csv,legacy,9,192,25,Kafkaesque Koffka,3.2.5,yes,598477b2b83f69022949e7e9,47,red,circular,red,rectangular,0,\,1384,space,7516,7516,"(80, 80, 80)","(0, 123, 0)","(177, 0, 0)","(155, 155, 155)",2,legacy,experiment,"[4, 5, 6, 7, 0, 1, 2, 3]",\,2500,3000,0,8,252.7587515,1024,2,48000,-16,main,"[(0, -252), (178, -178), (252, 0), (178, 178), (0, 252), (-178, 178), (-252, 0), (-178, -178)]",[],45,odd,2,NA,232167,277019,277019,117834,116823,1940,147856,147856,1940,1940,125350,396309,1938,277019,394921,394119,394119,NA,792,study_X,0,7516,1,yes,1680
undefined,undefined,NA,NA,NA,7516,7516,black,no,legacy,legacy,legacy,0,green,"(0, 123, 0)",shape,present,highProb,rectangular,swap,swap,swap,swap,green,"(0, 123, 0)",lowProb,lowProb5,circular,uniform,1,undefined,0,0.192708333,1,1,346.9375,1,37,66612,0,0,0,0,0,0,0,0,66,0,1,0.192708333,346.9375,37,66612,65,65,65,11/28/2018 15:30,Default description,yes,<openexp._canvas.legacy.Legacy object at 0x0535ECB0>,<openexp._canvas.legacy.Legacy object at 0x0535AC70>,<openexp._canvas.legacy.Legacy object at 0x051E91F0>,<openexp._canvas.legacy.Legacy object at 0x051E4930>,<openexp._canvas.legacy.Legacy object at 0x051D4190>,<openexp._canvas.legacy.Legacy object at 0x053522B0>,<openexp._canvas.legacy.Legacy object at 0x05376BD0>,<openexp._canvas.legacy.Legacy object at 0x051E9950>,75,SpatProbMultiple3.osexp,C:/Userdata/Michel/SpatProbMultiple3,no,mono,no,18,no,white,no,yes,0.09,98,1050,legacy,315,40,40,1,C:/Userdata/Michel/SpatProbMultiple3/beh/subject-21.csv,legacy,9,192,25,Kafkaesque Koffka,3.2.5,yes,598477b2b83f69022949e7e9,47,green,rectangular,green,circular,0,/,1936,space,7516,7516,"(80, 80, 80)","(0, 123, 0)","(177, 0, 0)","(155, 155, 155)",2,legacy,experiment,"[4, 5, 6, 7, 0, 1, 2, 3]",/,2500,3000,0,8,252.7587515,1024,2,48000,-16,main,"[(0, -252), (178, -178), (252, 0), (178, 178), (0, 252), (-178, 178), (-252, 0), (-178, -178)]",[],45,odd,2,NA,232167,277019,277019,117834,116823,1940,147856,147856,1940,1940,125350,399485,1938,277019,397545,396743,396743,NA,792,study_X,0,7516,1,yes,1680
undefined,undefined,NA,NA,NA,7516,7516,black,no,legacy,legacy,legacy,0,red,"(177, 0, 0)",color,present,highProb,rectangular,swap,same,same,swap,green,"(0, 123, 0)",lowProb,lowProb3,rectangular,uniform,1,undefined,0,0.197916667,1,1,350.75,1,38,67344,0,0,0,0,0,0,0,0,67,0,1,0.197916667,350.75,38,67344,66,66,66,11/28/2018 15:30,Default description,yes,<openexp._canvas.legacy.Legacy object at 0x0535ECB0>,<openexp._canvas.legacy.Legacy object at 0x0535AC70>,<openexp._canvas.legacy.Legacy object at 0x051E91F0>,<openexp._canvas.legacy.Legacy object at 0x051E4930>,<openexp._canvas.legacy.Legacy object at 0x051D4190>,<openexp._canvas.legacy.Legacy object at 0x053522B0>,<openexp._canvas.legacy.Legacy object at 0x051E9BD0>,<openexp._canvas.legacy.Legacy object at 0x051E9950>,75,SpatProbMultiple3.osexp,C:/Userdata/Michel/SpatProbMultiple3,no,mono,no,18,no,white,no,yes,0.09,98,1050,legacy,45,41,41,1,C:/Userdata/Michel/SpatProbMultiple3/beh/subject-21.csv,legacy,9,192,25,Kafkaesque Koffka,3.2.5,yes,598477b2b83f69022949e7e9,47,red,rectangular,green,rectangular,0,\,732,space,7516,7516,"(80, 80, 80)","(0, 123, 0)","(177, 0, 0)","(155, 155, 155)",2,legacy,experiment,"[4, 5, 6, 7, 0, 1, 2, 3]",\,2500,3000,0,8,252.7587515,1024,2,48000,-16,main,"[(0, -252), (178, -178), (252, 0), (178, 178), (0, 252), (-178, 178), (-252, 0), (-178, -178)]",[],45,odd,7,NA,232167,277019,277019,117834,116823,1940,147856,147856,1940,1940,125350,401437,1938,277019,400701,399899,399899,NA,792,study_X,0,7516,1,yes,1680
undefined,undefined,NA,NA,NA,7516,7516,black,no,legacy,legacy,legacy,0,green,"(0, 123, 0)",color,present,lowProb6,rectangular,swap,same,swap,same,red,"(177, 0, 0)",lowProb,lowProb1,rectangular,uniform,1,undefined,0,0.203125,1,1,354.25,1,39,68016,0,0,0,0,0,0,0,0,68,0,1,0.203125,354.25,39,68016,67,67,67,11/28/2018 15:30,Default description,yes,<openexp._canvas.legacy.Legacy object at 0x0535ECB0>,<openexp._canvas.legacy.Legacy object at 0x0535AC70>,<openexp._canvas.legacy.Legacy object at 0x051E91F0>,<openexp._canvas.legacy.Legacy object at 0x051E4930>,<openexp._canvas.legacy.Legacy object at 0x051D4190>,<openexp._canvas.legacy.Legacy object at 0x053522B0>,<openexp._canvas.legacy.Legacy object at 0x053B0AF0>,<openexp._canvas.legacy.Legacy object at 0x051E9950>,75,SpatProbMultiple3.osexp,C:/Userdata/Michel/SpatProbMultiple3,no,mono,no,18,no,white,no,yes,0.09,98,1050,legacy,315,42,42,1,C:/Userdata/Michel/SpatProbMultiple3/beh/subject-21.csv,legacy,9,192,25,Kafkaesque Koffka,3.2.5,yes,598477b2b83f69022949e7e9,47,green,rectangular,red,rectangular,0,/,672,space,7516,7516,"(80, 80, 80)","(0, 123, 0)","(177, 0, 0)","(155, 155, 155)",2,legacy,experiment,"[4, 5, 6, 7, 0, 1, 2, 3]",/,2500,3000,0,8,252.7587515,1024,2,48000,-16,main,"[(0, -252), (178, -178), (252, 0), (178, 178), (0, 252), (-178, 178), (-252, 0), (-178, -178)]",[],45,odd,5,NA,232167,277019,277019,117834,116823,1940,147856,147856,1940,1940,125350,403340,1938,277019,402665,401863,401863,NA,792,study_X,0,7516,1,yes,1680
undefined,undefined,NA,NA,NA,7516,7516,black,no,legacy,legacy,legacy,0,green,"(0, 123, 0)",shape,present,highProb,rectangular,same,same,swap,swap,green,"(0, 123, 0)",lowProb,lowProb6,circular,uniform,1,undefined,0,0.208333333,1,1,358.4479167,1,40,68822,0,0,0,0,0,0,0,0,69,0,1,0.208333333,358.4479167,40,68822,68,68,68,11/28/2018 15:30,Default description,yes,<openexp._canvas.legacy.Legacy object at 0x0535ECB0>,<openexp._canvas.legacy.Legacy object at 0x0535AC70>,<openexp._canvas.legacy.Legacy object at 0x051E91F0>,<openexp._canvas.legacy.Legacy object at 0x051E4930>,<openexp._canvas.legacy.Legacy object at 0x051D4190>,<openexp._canvas.legacy.Legacy object at 0x053522B0>,<openexp._canvas.legacy.Legacy object at 0x053B7350>,<openexp._canvas.legacy.Legacy object at 0x051E9950>,75,SpatProbMultiple3.osexp,C:/Userdata/Michel/SpatProbMultiple3,no,mono,no,18,no,white,no,yes,0.09,98,1050,legacy,315,43,43,1,C:/Userdata/Michel/SpatProbMultiple3/beh/subject-21.csv,legacy,9,192,25,Kafkaesque Koffka,3.2.5,yes,598477b2b83f69022949e7e9,47,green,rectangular,green,circular,0,/,806,space,7516,7516,"(80, 80, 80)","(0, 123, 0)","(177, 0, 0)","(155, 155, 155)",2,legacy,experiment,"[4, 5, 6, 7, 0, 1, 2, 3]",/,2500,3000,0,8,252.7587515,1024,2,48000,-16,main,"[(0, -252), (178, -178), (252, 0), (178, 178), (0, 252), (-178, 178), (-252, 0), (-178, -178)]",[],45,odd,3,NA,232167,277019,277019,117834,116823,1940,147856,147856,1940,1940,125350,405380,1938,277019,404571,403770,403770,NA,792,study_X,0,7516,1,yes,1680
undefined,undefined,NA,NA,NA,7516,7516,black,no,legacy,legacy,legacy,0,green,"(0, 123, 0)",color,absent,lowProb3,circular,same,swap,same,same,green,"(0, 123, 0)",highProbColor,highProbColor,circular,uniform,1,undefined,0,0.213541667,1,1,362.3958333,1,41,69580,0,0,0,0,0,0,0,0,70,0,1,0.213541667,362.3958333,41,69580,69,69,69,11/28/2018 15:30,Default description,yes,<openexp._canvas.legacy.Legacy object at 0x0535ECB0>,<openexp._canvas.legacy.Legacy object at 0x0535AC70>,<openexp._canvas.legacy.Legacy object at 0x051E91F0>,<openexp._canvas.legacy.Legacy object at 0x051E4930>,<openexp._canvas.legacy.Legacy object at 0x051D4190>,<openexp._canvas.legacy.Legacy object at 0x053522B0>,<openexp._canvas.legacy.Legacy object at 0x051E99D0>,<openexp._canvas.legacy.Legacy object at 0x051E9950>,75,SpatProbMultiple3.osexp,C:/Userdata/Michel/SpatProbMultiple3,no,mono,no,18,no,white,no,yes,0.09,98,1050,legacy,45,44,44,1,C:/Userdata/Michel/SpatProbMultiple3/beh/subject-21.csv,legacy,9,192,25,Kafkaesque Koffka,3.2.5,yes,598477b2b83f69022949e7e9,47,green,circular,green,circular,0,\,758,space,7516,7516,"(80, 80, 80)","(0, 123, 0)","(177, 0, 0)","(155, 155, 155)",2,legacy,experiment,"[4, 5, 6, 7, 0, 1, 2, 3]",\,2500,3000,0,8,252.7587515,1024,2,48000,-16,main,"[(0, -252), (178, -178), (252, 0), (178, 178), (0, 252), (-178, 178), (-252, 0), (-178, -178)]",[],45,odd,4,NA,232167,277019,277019,117834,116823,1940,147856,147856,1940,1940,125350,407380,1938,277019,406620,405819,405819,NA,792,study_X,0,7516,1,yes,1680
undefined,undefined,NA,NA,NA,7516,7516,black,no,legacy,legacy,legacy,0,green,"(0, 123, 0)",shape,absent,highProb,circular,same,same,same,same,green,"(0, 123, 0)",lowProb,lowProb1,circular,uniform,1,undefined,0,0.21875,1,1,369.6927083,1,42,70981,0,0,0,0,0,0,0,0,71,0,1,0.21875,369.6927083,42,70981,70,70,70,11/28/2018 15:30,Default description,yes,<openexp._canvas.legacy.Legacy object at 0x0535ECB0>,<openexp._canvas.legacy.Legacy object at 0x0535AC70>,<openexp._canvas.legacy.Legacy object at 0x051E91F0>,<openexp._canvas.legacy.Legacy object at 0x051E4930>,<openexp._canvas.legacy.Legacy object at 0x051D4190>,<openexp._canvas.legacy.Legacy object at 0x053522B0>,<openexp._canvas.legacy.Legacy object at 0x053B78B0>,<openexp._canvas.legacy.Legacy object at 0x051E9950>,75,SpatProbMultiple3.osexp,C:/Userdata/Michel/SpatProbMultiple3,no,mono,no,18,no,white,no,yes,0.09,98,1050,legacy,45,45,45,1,C:/Userdata/Michel/SpatProbMultiple3/beh/subject-21.csv,legacy,9,192,25,Kafkaesque Koffka,3.2.5,yes,598477b2b83f69022949e7e9,47,green,circular,green,circular,0,\,1401,space,7516,7516,"(80, 80, 80)","(0, 123, 0)","(177, 0, 0)","(155, 155, 155)",2,legacy,experiment,"[4, 5, 6, 7, 0, 1, 2, 3]",\,2500,3000,0,8,252.7587515,1024,2,48000,-16,main,"[(0, -252), (178, -178), (252, 0), (178, 178), (0, 252), (-178, 178), (-252, 0), (-178, -178)]",[],45,odd,5,NA,232167,277019,277019,117834,116823,1940,147856,147856,1940,1940,125350,410012,1938,277019,408608,407806,407806,NA,792,study_X,0,7516,1,yes,1680
undefined,undefined,NA,NA,NA,7516,7516,black,no,legacy,legacy,legacy,0,red,"(177, 0, 0)",color,present,highProb,rectangular,swap,swap,same,swap,green,"(0, 123, 0)",highProbShape,highProbShape,rectangular,uniform,1,undefined,0,0.223958333,1,1,377.3125,1,43,72444,0,0,0,0,0,0,0,0,72,0,1,0.223958333,377.3125,43,72444,71,71,71,11/28/2018 15:30,Default description,yes,<openexp._canvas.legacy.Legacy object at 0x0535ECB0>,<openexp._canvas.legacy.Legacy object at 0x0535AC70>,<openexp._canvas.legacy.Legacy object at 0x051E91F0>,<openexp._canvas.legacy.Legacy object at 0x051E4930>,<openexp._canvas.legacy.Legacy object at 0x051D4190>,<openexp._canvas.legacy.Legacy object at 0x053522B0>,<openexp._canvas.legacy.Legacy object at 0x053B0D70>,<openexp._canvas.legacy.Legacy object at 0x051E9950>,75,SpatProbMultiple3.osexp,C:/Userdata/Michel/SpatProbMultiple3,no,mono,no,18,no,white,no,yes,0.09,98,1050,legacy,315,46,46,1,C:/Userdata/Michel/SpatProbMultiple3/beh/subject-21.csv,legacy,9,192,25,Kafkaesque Koffka,3.2.5,yes,598477b2b83f69022949e7e9,47,red,rectangular,green,rectangular,0,/,1463,space,7516,7516,"(80, 80, 80)","(0, 123, 0)","(177, 0, 0)","(155, 155, 155)",2,legacy,experiment,"[4, 5, 6, 7, 0, 1, 2, 3]",/,2500,3000,0,8,252.7587515,1024,2,48000,-16,main,"[(0, -252), (178, -178), (252, 0), (178, 178), (0, 252), (-178, 178), (-252, 0), (-178, -178)]",[],45,odd,0,NA,232167,277019,277019,117834,116823,1940,147856,147856,1940,1940,125350,412701,1938,277019,411234,410433,410433,NA,792,study_X,0,7516,1,yes,1680
undefined,undefined,NA,NA,NA,7516,7516,black,no,legacy,legacy,legacy,0,green,"(0, 123, 0)",shape,present,highProbOther,rectangular,swap,same,same,swap,green,"(0, 123, 0)",lowProb,lowProb1,circular,uniform,1,undefined,0,0.229166667,1,1,387.8645833,1,44,74470,0,0,0,0,0,0,0,0,73,0,1,0.229166667,387.8645833,44,74470,72,72,72,11/28/2018 15:30,Default description,yes,<openexp._canvas.legacy.Legacy object at 0x0535ECB0>,<openexp._canvas.legacy.Legacy object at 0x0535AC70>,<openexp._canvas.legacy.Legacy object at 0x051E91F0>,<openexp._canvas.legacy.Legacy object at 0x051E4930>,<openexp._canvas.legacy.Legacy object at 0x051D4190>,<openexp._canvas.legacy.Legacy object at 0x053522B0>,<openexp._canvas.legacy.Legacy object at 0x05381DF0>,<openexp._canvas.legacy.Legacy object at 0x051E9950>,75,SpatProbMultiple3.osexp,C:/Userdata/Michel/SpatProbMultiple3,no,mono,no,18,no,white,no,yes,0.09,98,1050,legacy,45,47,47,1,C:/Userdata/Michel/SpatProbMultiple3/beh/subject-21.csv,legacy,9,192,25,Kafkaesque Koffka,3.2.5,yes,598477b2b83f69022949e7e9,47,green,rectangular,green,circular,0,\,2026,space,7516,7516,"(80, 80, 80)","(0, 123, 0)","(177, 0, 0)","(155, 155, 155)",2,legacy,experiment,"[4, 5, 6, 7, 0, 1, 2, 3]",\,2500,3000,0,8,252.7587515,1024,2,48000,-16,main,"[(0, -252), (178, -178), (252, 0), (178, 178), (0, 252), (-178, 178), (-252, 0), (-178, -178)]",[],45,odd,5,NA,232167,277019,277019,117834,116823,1940,147856,147856,1940,1940,125350,415957,1938,277019,413927,413126,413126,NA,792,study_X,0,7516,1,yes,1680
undefined,undefined,NA,NA,NA,7516,7516,black,no,legacy,legacy,legacy,0,green,"(0, 123, 0)",color,present,highProb,rectangular,same,same,swap,swap,red,"(177, 0, 0)",lowProb,lowProb6,rectangular,uniform,0,undefined,0,0.229166667,1,1,400.8854167,1,44,76970,0,0,0,0,0,0,0,0,74,0,1,0.229166667,400.8854167,44,76970,73,73,73,11/28/2018 15:30,Default description,yes,<openexp._canvas.legacy.Legacy object at 0x0535ECB0>,<openexp._canvas.legacy.Legacy object at 0x0535AC70>,<openexp._canvas.legacy.Legacy object at 0x051E91F0>,<openexp._canvas.legacy.Legacy object at 0x051E4930>,<openexp._canvas.legacy.Legacy object at 0x051D4190>,<openexp._canvas.legacy.Legacy object at 0x053522B0>,<openexp._canvas.legacy.Legacy object at 0x053B05F0>,<openexp._canvas.legacy.Legacy object at 0x051E9950>,75,SpatProbMultiple3.osexp,C:/Userdata/Michel/SpatProbMultiple3,no,mono,no,18,no,white,no,yes,0.09,98,1050,legacy,45,48,48,1,C:/Userdata/Michel/SpatProbMultiple3/beh/subject-21.csv,legacy,9,192,25,Kafkaesque Koffka,3.2.5,yes,598477b2b83f69022949e7e9,47,green,rectangular,red,rectangular,0,None,2500,space,7516,7516,"(80, 80, 80)","(0, 123, 0)","(177, 0, 0)","(155, 155, 155)",2,legacy,experiment,"[4, 5, 6, 7, 0, 1, 2, 3]",\,2500,3000,0,8,252.7587515,1024,2,48000,-16,main,"[(0, -252), (178, -178), (252, 0), (178, 178), (0, 252), (-178, 178), (-252, 0), (-178, -178)]",[],45,odd,3,NA,232167,277019,277019,117834,116823,1940,147856,147856,1940,1940,125350,419688,1938,277019,417185,416383,416383,NA,792,study_X,0,7516,1,yes,1680
undefined,undefined,NA,NA,NA,7516,7516,black,no,legacy,legacy,legacy,0,red,"(177, 0, 0)",color,present,lowProb2,rectangular,swap,same,swap,same,green,"(0, 123, 0)",lowProb,lowProb3,rectangular,uniform,1,undefined,0,0.234375,1,1,405.9270833,1,45,77938,0,0,0,0,0,0,0,0,75,0,1,0.234375,405.9270833,45,77938,74,74,74,11/28/2018 15:30,Default description,yes,<openexp._canvas.legacy.Legacy object at 0x0535ECB0>,<openexp._canvas.legacy.Legacy object at 0x0535AC70>,<openexp._canvas.legacy.Legacy object at 0x051E91F0>,<openexp._canvas.legacy.Legacy object at 0x051E4930>,<openexp._canvas.legacy.Legacy object at 0x051D4190>,<openexp._canvas.legacy.Legacy object at 0x053522B0>,<openexp._canvas.legacy.Legacy object at 0x0537ABD0>,<openexp._canvas.legacy.Legacy object at 0x051E9950>,75,SpatProbMultiple3.osexp,C:/Userdata/Michel/SpatProbMultiple3,no,mono,no,18,no,white,no,yes,0.09,98,1050,legacy,315,49,49,1,C:/Userdata/Michel/SpatProbMultiple3/beh/subject-21.csv,legacy,9,192,25,Kafkaesque Koffka,3.2.5,yes,598477b2b83f69022949e7e9,47,red,rectangular,green,rectangular,0,/,968,space,7516,7516,"(80, 80, 80)","(0, 123, 0)","(177, 0, 0)","(155, 155, 155)",2,legacy,experiment,"[4, 5, 6, 7, 0, 1, 2, 3]",/,2500,3000,0,8,252.7587515,1024,2,48000,-16,main,"[(0, -252), (178, -178), (252, 0), (178, 178), (0, 252), (-178, 178), (-252, 0), (-178, -178)]",[],45,odd,7,NA,232167,277019,277019,117834,116823,1940,147856,147856,1940,1940,125350,421884,1938,277019,420914,420113,420113,NA,792,study_X,0,7516,1,yes,1680
undefined,undefined,NA,NA,NA,7516,7516,black,no,legacy,legacy,legacy,0,green,"(0, 123, 0)",shape,present,lowProb3,circular,swap,swap,same,same,green,"(0, 123, 0)",highProbColor,highProbColor,rectangular,uniform,1,undefined,0,0.239583333,1,1,413.0572917,1,46,79307,0,0,0,0,0,0,0,0,76,0,1,0.239583333,413.0572917,46,79307,75,75,75,11/28/2018 15:30,Default description,yes,<openexp._canvas.legacy.Legacy object at 0x0535ECB0>,<openexp._canvas.legacy.Legacy object at 0x0535AC70>,<openexp._canvas.legacy.Legacy object at 0x051E91F0>,<openexp._canvas.legacy.Legacy object at 0x051E4930>,<openexp._canvas.legacy.Legacy object at 0x051D4190>,<openexp._canvas.legacy.Legacy object at 0x053522B0>,<openexp._canvas.legacy.Legacy object at 0x051E93F0>,<openexp._canvas.legacy.Legacy object at 0x051E9950>,75,SpatProbMultiple3.osexp,C:/Userdata/Michel/SpatProbMultiple3,no,mono,no,18,no,white,no,yes,0.09,98,1050,legacy,315,50,50,1,C:/Userdata/Michel/SpatProbMultiple3/beh/subject-21.csv,legacy,9,192,25,Kafkaesque Koffka,3.2.5,yes,598477b2b83f69022949e7e9,47,green,circular,green,rectangular,0,/,1369,space,7516,7516,"(80, 80, 80)","(0, 123, 0)","(177, 0, 0)","(155, 155, 155)",2,legacy,experiment,"[4, 5, 6, 7, 0, 1, 2, 3]",/,2500,3000,0,8,252.7587515,1024,2,48000,-16,main,"[(0, -252), (178, -178), (252, 0), (178, 178), (0, 252), (-178, 178), (-252, 0), (-178, -178)]",[],45,odd,4,NA,232167,277019,277019,117834,116823,1940,147856,147856,1940,1940,125350,424484,1938,277019,423112,422310,422311,NA,792,study_X,0,7516,1,yes,1680
undefined,undefined,NA,NA,NA,7516,7516,black,no,legacy,legacy,legacy,0,red,"(177, 0, 0)",color,present,highProb,circular,swap,same,same,swap,green,"(0, 123, 0)",lowProb,lowProb6,circular,uniform,1,undefined,0,0.244791667,1,1,416.3020833,1,47,79930,0,0,0,0,0,0,0,0,77,0,1,0.244791667,416.3020833,47,79930,76,76,76,11/28/2018 15:30,Default description,yes,<openexp._canvas.legacy.Legacy object at 0x0535ECB0>,<openexp._canvas.legacy.Legacy object at 0x0535AC70>,<openexp._canvas.legacy.Legacy object at 0x051E91F0>,<openexp._canvas.legacy.Legacy object at 0x051E4930>,<openexp._canvas.legacy.Legacy object at 0x051D4190>,<openexp._canvas.legacy.Legacy object at 0x053522B0>,<openexp._canvas.legacy.Legacy object at 0x05369770>,<openexp._canvas.legacy.Legacy object at 0x051E9950>,75,SpatProbMultiple3.osexp,C:/Userdata/Michel/SpatProbMultiple3,no,mono,no,18,no,white,no,yes,0.09,98,1050,legacy,45,51,51,1,C:/Userdata/Michel/SpatProbMultiple3/beh/subject-21.csv,legacy,9,192,25,Kafkaesque Koffka,3.2.5,yes,598477b2b83f69022949e7e9,47,red,circular,green,circular,0,\,623,space,7516,7516,"(80, 80, 80)","(0, 123, 0)","(177, 0, 0)","(155, 155, 155)",2,legacy,experiment,"[4, 5, 6, 7, 0, 1, 2, 3]",\,2500,3000,0,8,252.7587515,1024,2,48000,-16,main,"[(0, -252), (178, -178), (252, 0), (178, 178), (0, 252), (-178, 178), (-252, 0), (-178, -178)]",[],45,odd,3,NA,232167,277019,277019,117834,116823,1940,147856,147856,1940,1940,125350,426340,1938,277019,425714,424913,424913,NA,792,study_X,0,7516,1,yes,1680
undefined,undefined,NA,NA,NA,7516,7516,black,no,legacy,legacy,legacy,0,red,"(177, 0, 0)",shape,absent,lowProb6,circular,same,same,swap,same,red,"(177, 0, 0)",highProbColor,highProbColor,circular,uniform,1,undefined,0,0.25,1,1,422.7447917,1,48,81167,0,0,0,0,0,0,0,0,78,0,1,0.25,422.7447917,48,81167,77,77,77,11/28/2018 15:30,Default description,yes,<openexp._canvas.legacy.Legacy object at 0x0535ECB0>,<openexp._canvas.legacy.Legacy object at 0x0535AC70>,<openexp._canvas.legacy.Legacy object at 0x051E91F0>,<openexp._canvas.legacy.Legacy object at 0x051E4930>,<openexp._canvas.legacy.Legacy object at 0x051D4190>,<openexp._canvas.legacy.Legacy object at 0x053522B0>,<openexp._canvas.legacy.Legacy object at 0x053B79F0>,<openexp._canvas.legacy.Legacy object at 0x051E9950>,75,SpatProbMultiple3.osexp,C:/Userdata/Michel/SpatProbMultiple3,no,mono,no,18,no,white,no,yes,0.09,98,1050,legacy,45,52,52,1,C:/Userdata/Michel/SpatProbMultiple3/beh/subject-21.csv,legacy,9,192,25,Kafkaesque Koffka,3.2.5,yes,598477b2b83f69022949e7e9,47,red,circular,red,circular,0,\,1237,space,7516,7516,"(80, 80, 80)","(0, 123, 0)","(177, 0, 0)","(155, 155, 155)",2,legacy,experiment,"[4, 5, 6, 7, 0, 1, 2, 3]",\,2500,3000,0,8,252.7587515,1024,2,48000,-16,main,"[(0, -252), (178, -178), (252, 0), (178, 178), (0, 252), (-178, 178), (-252, 0), (-178, -178)]",[],45,odd,4,NA,232167,277019,277019,117834,116823,1940,147856,147856,1940,1940,125350,428820,1938,277019,427579,426778,426778,NA,792,study_X,0,7516,1,yes,1680
undefined,undefined,NA,NA,NA,7516,7516,black,no,legacy,legacy,legacy,0,red,"(177, 0, 0)",color,present,highProb,rectangular,same,swap,swap,swap,green,"(0, 123, 0)",lowProb,lowProb6,rectangular,uniform,1,undefined,0,0.255208333,1,1,434.1354167,1,49,83354,0,0,0,0,0,0,0,0,79,0,1,0.255208333,434.1354167,49,83354,78,78,78,11/28/2018 15:30,Default description,yes,<openexp._canvas.legacy.Legacy object at 0x0535ECB0>,<openexp._canvas.legacy.Legacy object at 0x0535AC70>,<openexp._canvas.legacy.Legacy object at 0x051E91F0>,<openexp._canvas.legacy.Legacy object at 0x051E4930>,<openexp._canvas.legacy.Legacy object at 0x051D4190>,<openexp._canvas.legacy.Legacy object at 0x053522B0>,<openexp._canvas.legacy.Legacy object at 0x05369A90>,<openexp._canvas.legacy.Legacy object at 0x051E9950>,75,SpatProbMultiple3.osexp,C:/Userdata/Michel/SpatProbMultiple3,no,mono,no,18,no,white,no,yes,0.09,98,1050,legacy,45,53,53,1,C:/Userdata/Michel/SpatProbMultiple3/beh/subject-21.csv,legacy,9,192,25,Kafkaesque Koffka,3.2.5,yes,598477b2b83f69022949e7e9,47,red,rectangular,green,rectangular,0,\,2187,space,7516,7516,"(80, 80, 80)","(0, 123, 0)","(177, 0, 0)","(155, 155, 155)",2,legacy,experiment,"[4, 5, 6, 7, 0, 1, 2, 3]",\,2500,3000,0,8,252.7587515,1024,2,48000,-16,main,"[(0, -252), (178, -178), (252, 0), (178, 178), (0, 252), (-178, 178), (-252, 0), (-178, -178)]",[],45,odd,3,NA,232167,277019,277019,117834,116823,1940,147856,147856,1940,1940,125350,432253,1938,277019,430063,429261,429261,NA,792,study_X,0,7516,1,yes,1680
undefined,undefined,NA,NA,NA,7516,7516,black,no,legacy,legacy,legacy,0,green,"(0, 123, 0)",color,present,highProbOther,circular,swap,swap,swap,swap,red,"(177, 0, 0)",lowProb,lowProb1,circular,uniform,1,undefined,0,0.260416667,1,1,440.765625,1,50,84627,0,0,0,0,0,0,0,0,80,0,1,0.260416667,440.765625,50,84627,79,79,79,11/28/2018 15:30,Default description,yes,<openexp._canvas.legacy.Legacy object at 0x0535ECB0>,<openexp._canvas.legacy.Legacy object at 0x0535AC70>,<openexp._canvas.legacy.Legacy object at 0x051E91F0>,<openexp._canvas.legacy.Legacy object at 0x051E4930>,<openexp._canvas.legacy.Legacy object at 0x051D4190>,<openexp._canvas.legacy.Legacy object at 0x053522B0>,<openexp._canvas.legacy.Legacy object at 0x053B0BB0>,<openexp._canvas.legacy.Legacy object at 0x051E9950>,75,SpatProbMultiple3.osexp,C:/Userdata/Michel/SpatProbMultiple3,no,mono,no,18,no,white,no,yes,0.09,98,1050,legacy,45,54,54,1,C:/Userdata/Michel/SpatProbMultiple3/beh/subject-21.csv,legacy,9,192,25,Kafkaesque Koffka,3.2.5,yes,598477b2b83f69022949e7e9,47,green,circular,red,circular,0,\,1273,space,7516,7516,"(80, 80, 80)","(0, 123, 0)","(177, 0, 0)","(155, 155, 155)",2,legacy,experiment,"[4, 5, 6, 7, 0, 1, 2, 3]",\,2500,3000,0,8,252.7587515,1024,2,48000,-16,main,"[(0, -252), (178, -178), (252, 0), (178, 178), (0, 252), (-178, 178), (-252, 0), (-178, -178)]",[],45,odd,5,NA,232167,277019,277019,117834,116823,1940,147856,147856,1940,1940,125350,434764,1938,277019,433489,432688,432688,NA,792,study_X,0,7516,1,yes,1680
undefined,undefined,NA,NA,NA,7516,7516,black,no,legacy,legacy,legacy,0,green,"(0, 123, 0)",shape,present,highProb,circular,same,same,swap,swap,green,"(0, 123, 0)",lowProb,lowProb4,rectangular,uniform,0,undefined,0,0.260416667,1,1,453.7864583,1,50,87127,0,0,0,0,0,0,0,0,81,0,1,0.260416667,453.7864583,50,87127,80,80,80,11/28/2018 15:30,Default description,yes,<openexp._canvas.legacy.Legacy object at 0x0535ECB0>,<openexp._canvas.legacy.Legacy object at 0x0535AC70>,<openexp._canvas.legacy.Legacy object at 0x051E91F0>,<openexp._canvas.legacy.Legacy object at 0x051E4930>,<openexp._canvas.legacy.Legacy object at 0x051D4190>,<openexp._canvas.legacy.Legacy object at 0x053522B0>,<openexp._canvas.legacy.Legacy object at 0x051B99F0>,<openexp._canvas.legacy.Legacy object at 0x051E9950>,75,SpatProbMultiple3.osexp,C:/Userdata/Michel/SpatProbMultiple3,no,mono,no,18,no,white,no,yes,0.09,98,1050,legacy,315,55,55,1,C:/Userdata/Michel/SpatProbMultiple3/beh/subject-21.csv,legacy,9,192,25,Kafkaesque Koffka,3.2.5,yes,598477b2b83f69022949e7e9,47,green,circular,green,rectangular,0,None,2500,space,7516,7516,"(80, 80, 80)","(0, 123, 0)","(177, 0, 0)","(155, 155, 155)",2,legacy,experiment,"[4, 5, 6, 7, 0, 1, 2, 3]",/,2500,3000,0,8,252.7587515,1024,2,48000,-16,main,"[(0, -252), (178, -178), (252, 0), (178, 178), (0, 252), (-178, 178), (-252, 0), (-178, -178)]",[],45,odd,1,NA,232167,277019,277019,117834,116823,1940,147856,147856,1940,1940,125350,438504,1938,277019,436001,435200,435200,NA,792,study_X,0,7516,1,yes,1680
undefined,undefined,NA,NA,NA,7516,7516,black,no,legacy,legacy,legacy,0,green,"(0, 123, 0)",shape,present,highProb,rectangular,same,swap,same,swap,green,"(0, 123, 0)",highProbColor,highProbColor,circular,uniform,1,undefined,0,0.265625,1,1,465.8697917,1,51,89447,0,0,0,0,0,0,0,0,82,0,1,0.265625,465.8697917,51,89447,81,81,81,11/28/2018 15:30,Default description,yes,<openexp._canvas.legacy.Legacy object at 0x0535ECB0>,<openexp._canvas.legacy.Legacy object at 0x0535AC70>,<openexp._canvas.legacy.Legacy object at 0x051E91F0>,<openexp._canvas.legacy.Legacy object at 0x051E4930>,<openexp._canvas.legacy.Legacy object at 0x051D4190>,<openexp._canvas.legacy.Legacy object at 0x053522B0>,<openexp._canvas.legacy.Legacy object at 0x05395FD0>,<openexp._canvas.legacy.Legacy object at 0x051E9950>,75,SpatProbMultiple3.osexp,C:/Userdata/Michel/SpatProbMultiple3,no,mono,no,18,no,white,no,yes,0.09,98,1050,legacy,45,56,56,1,C:/Userdata/Michel/SpatProbMultiple3/beh/subject-21.csv,legacy,9,192,25,Kafkaesque Koffka,3.2.5,yes,598477b2b83f69022949e7e9,47,green,rectangular,green,circular,0,\,2320,space,7516,7516,"(80, 80, 80)","(0, 123, 0)","(177, 0, 0)","(155, 155, 155)",2,legacy,experiment,"[4, 5, 6, 7, 0, 1, 2, 3]",\,2500,3000,0,8,252.7587515,1024,2,48000,-16,main,"[(0, -252), (178, -178), (252, 0), (178, 178), (0, 252), (-178, 178), (-252, 0), (-178, -178)]",[],45,odd,4,NA,232167,277019,277019,117834,116823,1940,147856,147856,1940,1940,125350,442084,1938,277019,439760,438959,438959,NA,792,study_X,0,7516,1,yes,1680
undefined,undefined,NA,NA,NA,7516,7516,black,no,legacy,legacy,legacy,0,green,"(0, 123, 0)",color,present,highProb,rectangular,same,same,swap,swap,red,"(177, 0, 0)",lowProb,lowProb3,rectangular,uniform,1,undefined,0,0.270833333,1,1,471.859375,1,52,90597,0,0,0,0,0,0,0,0,83,0,1,0.270833333,471.859375,52,90597,82,82,82,11/28/2018 15:30,Default description,yes,<openexp._canvas.legacy.Legacy object at 0x0535ECB0>,<openexp._canvas.legacy.Legacy object at 0x0535AC70>,<openexp._canvas.legacy.Legacy object at 0x051E91F0>,<openexp._canvas.legacy.Legacy object at 0x051E4930>,<openexp._canvas.legacy.Legacy object at 0x051D4190>,<openexp._canvas.legacy.Legacy object at 0x053522B0>,<openexp._canvas.legacy.Legacy object at 0x053696F0>,<openexp._canvas.legacy.Legacy object at 0x051E9950>,75,SpatProbMultiple3.osexp,C:/Userdata/Michel/SpatProbMultiple3,no,mono,no,18,no,white,no,yes,0.09,98,1050,legacy,45,57,57,1,C:/Userdata/Michel/SpatProbMultiple3/beh/subject-21.csv,legacy,9,192,25,Kafkaesque Koffka,3.2.5,yes,598477b2b83f69022949e7e9,47,green,rectangular,red,rectangular,0,\,1150,space,7516,7516,"(80, 80, 80)","(0, 123, 0)","(177, 0, 0)","(155, 155, 155)",2,legacy,experiment,"[4, 5, 6, 7, 0, 1, 2, 3]",\,2500,3000,0,8,252.7587515,1024,2,48000,-16,main,"[(0, -252), (178, -178), (252, 0), (178, 178), (0, 252), (-178, 178), (-252, 0), (-178, -178)]",[],45,odd,7,NA,232167,277019,277019,117834,116823,1940,147856,147856,1940,1940,125350,444460,1938,277019,443307,442505,442505,NA,792,study_X,0,7516,1,yes,1680
undefined,undefined,NA,NA,NA,7516,7516,black,no,legacy,legacy,legacy,0,red,"(177, 0, 0)",shape,present,lowProb3,circular,swap,swap,same,same,red,"(177, 0, 0)",lowProb,lowProb2,rectangular,uniform,1,undefined,0,0.276041667,1,1,478.5625,1,53,91884,0,0,0,0,0,0,0,0,84,0,1,0.276041667,478.5625,53,91884,83,83,83,11/28/2018 15:30,Default description,yes,<openexp._canvas.legacy.Legacy object at 0x0535ECB0>,<openexp._canvas.legacy.Legacy object at 0x0535AC70>,<openexp._canvas.legacy.Legacy object at 0x051E91F0>,<openexp._canvas.legacy.Legacy object at 0x051E4930>,<openexp._canvas.legacy.Legacy object at 0x051D4190>,<openexp._canvas.legacy.Legacy object at 0x053522B0>,<openexp._canvas.legacy.Legacy object at 0x053B7870>,<openexp._canvas.legacy.Legacy object at 0x051E9950>,75,SpatProbMultiple3.osexp,C:/Userdata/Michel/SpatProbMultiple3,no,mono,no,18,no,white,no,yes,0.09,98,1050,legacy,315,58,58,1,C:/Userdata/Michel/SpatProbMultiple3/beh/subject-21.csv,legacy,9,192,25,Kafkaesque Koffka,3.2.5,yes,598477b2b83f69022949e7e9,47,red,circular,red,rectangular,0,/,1287,space,7516,7516,"(80, 80, 80)","(0, 123, 0)","(177, 0, 0)","(155, 155, 155)",2,legacy,experiment,"[4, 5, 6, 7, 0, 1, 2, 3]",/,2500,3000,0,8,252.7587515,1024,2,48000,-16,main,"[(0, -252), (178, -178), (252, 0), (178, 178), (0, 252), (-178, 178), (-252, 0), (-178, -178)]",[],45,odd,6,NA,232167,277019,277019,117834,116823,1940,147856,147856,1940,1940,125350,446988,1938,277019,445697,444896,444896,NA,792,study_X,0,7516,1,yes,1680
undefined,undefined,NA,NA,NA,7516,7516,black,no,legacy,legacy,legacy,0,green,"(0, 123, 0)",shape,present,highProbOther,circular,swap,same,swap,same,green,"(0, 123, 0)",lowProb,lowProb6,rectangular,uniform,1,undefined,0,0.28125,1,1,488.1927083,1,54,93733,0,0,0,0,0,0,0,0,85,0,1,0.28125,488.1927083,54,93733,84,84,84,11/28/2018 15:30,Default description,yes,<openexp._canvas.legacy.Legacy object at 0x0535ECB0>,<openexp._canvas.legacy.Legacy object at 0x0535AC70>,<openexp._canvas.legacy.Legacy object at 0x051E91F0>,<openexp._canvas.legacy.Legacy object at 0x051E4930>,<openexp._canvas.legacy.Legacy object at 0x051D4190>,<openexp._canvas.legacy.Legacy object at 0x053522B0>,<openexp._canvas.legacy.Legacy object at 0x051E9870>,<openexp._canvas.legacy.Legacy object at 0x051E9950>,75,SpatProbMultiple3.osexp,C:/Userdata/Michel/SpatProbMultiple3,no,mono,no,18,no,white,no,yes,0.09,98,1050,legacy,315,59,59,1,C:/Userdata/Michel/SpatProbMultiple3/beh/subject-21.csv,legacy,9,192,25,Kafkaesque Koffka,3.2.5,yes,598477b2b83f69022949e7e9,47,green,circular,green,rectangular,0,/,1849,space,7516,7516,"(80, 80, 80)","(0, 123, 0)","(177, 0, 0)","(155, 155, 155)",2,legacy,experiment,"[4, 5, 6, 7, 0, 1, 2, 3]",/,2500,3000,0,8,252.7587515,1024,2,48000,-16,main,"[(0, -252), (178, -178), (252, 0), (178, 178), (0, 252), (-178, 178), (-252, 0), (-178, -178)]",[],45,odd,3,NA,232167,277019,277019,117834,116823,1940,147856,147856,1940,1940,125350,450068,1938,277019,448217,447416,447416,NA,792,study_X,0,7516,1,yes,1680
undefined,undefined,NA,NA,NA,7516,7516,black,no,legacy,legacy,legacy,0,green,"(0, 123, 0)",shape,present,highProb,circular,same,same,same,same,green,"(0, 123, 0)",lowProb,lowProb6,rectangular,uniform,1,undefined,0,0.286458333,1,1,494.78125,1,55,94998,0,0,0,0,0,0,0,0,86,0,1,0.286458333,494.78125,55,94998,85,85,85,11/28/2018 15:30,Default description,yes,<openexp._canvas.legacy.Legacy object at 0x0535ECB0>,<openexp._canvas.legacy.Legacy object at 0x0535AC70>,<openexp._canvas.legacy.Legacy object at 0x051E91F0>,<openexp._canvas.legacy.Legacy object at 0x051E4930>,<openexp._canvas.legacy.Legacy object at 0x051D4190>,<openexp._canvas.legacy.Legacy object at 0x053522B0>,<openexp._canvas.legacy.Legacy object at 0x0539BF10>,<openexp._canvas.legacy.Legacy object at 0x051E9950>,75,SpatProbMultiple3.osexp,C:/Userdata/Michel/SpatProbMultiple3,no,mono,no,18,no,white,no,yes,0.09,98,1050,legacy,315,60,60,1,C:/Userdata/Michel/SpatProbMultiple3/beh/subject-21.csv,legacy,9,192,25,Kafkaesque Koffka,3.2.5,yes,598477b2b83f69022949e7e9,47,green,circular,green,rectangular,0,/,1265,space,7516,7516,"(80, 80, 80)","(0, 123, 0)","(177, 0, 0)","(155, 155, 155)",2,legacy,experiment,"[4, 5, 6, 7, 0, 1, 2, 3]",/,2500,3000,0,8,252.7587515,1024,2,48000,-16,main,"[(0, -252), (178, -178), (252, 0), (178, 178), (0, 252), (-178, 178), (-252, 0), (-178, -178)]",[],45,odd,3,NA,232167,277019,277019,117834,116823,1940,147856,147856,1940,1940,125350,452572,1938,277019,451304,450503,450503,NA,792,study_X,0,7516,1,yes,1680
undefined,undefined,NA,NA,NA,7516,7516,black,no,legacy,legacy,legacy,0,red,"(177, 0, 0)",shape,absent,lowProb2,circular,swap,same,swap,swap,red,"(177, 0, 0)",lowProb,lowProb6,circular,uniform,1,undefined,0,0.291666667,1,1,504.0625,1,56,96780,0,0,0,0,0,0,0,0,87,0,1,0.291666667,504.0625,56,96780,86,86,86,11/28/2018 15:30,Default description,yes,<openexp._canvas.legacy.Legacy object at 0x0535ECB0>,<openexp._canvas.legacy.Legacy object at 0x0535AC70>,<openexp._canvas.legacy.Legacy object at 0x051E91F0>,<openexp._canvas.legacy.Legacy object at 0x051E4930>,<openexp._canvas.legacy.Legacy object at 0x051D4190>,<openexp._canvas.legacy.Legacy object at 0x053522B0>,<openexp._canvas.legacy.Legacy object at 0x0537A070>,<openexp._canvas.legacy.Legacy object at 0x051E9950>,75,SpatProbMultiple3.osexp,C:/Userdata/Michel/SpatProbMultiple3,no,mono,no,18,no,white,no,yes,0.09,98,1050,legacy,45,61,61,1,C:/Userdata/Michel/SpatProbMultiple3/beh/subject-21.csv,legacy,9,192,25,Kafkaesque Koffka,3.2.5,yes,598477b2b83f69022949e7e9,47,red,circular,red,circular,0,\,1782,space,7516,7516,"(80, 80, 80)","(0, 123, 0)","(177, 0, 0)","(155, 155, 155)",2,legacy,experiment,"[4, 5, 6, 7, 0, 1, 2, 3]",\,2500,3000,0,8,252.7587515,1024,2,48000,-16,main,"[(0, -252), (178, -178), (252, 0), (178, 178), (0, 252), (-178, 178), (-252, 0), (-178, -178)]",[],45,odd,3,NA,232167,277019,277019,117834,116823,1940,147856,147856,1940,1940,125350,455588,1938,277019,453803,453001,453001,NA,792,study_X,0,7516,1,yes,1680
undefined,undefined,NA,NA,NA,7516,7516,black,no,legacy,legacy,legacy,0,green,"(0, 123, 0)",shape,absent,lowProb2,rectangular,swap,swap,swap,swap,green,"(0, 123, 0)",highProbShape,highProbShape,rectangular,uniform,0,undefined,0,0.291666667,1,1,517.0833333,1,56,99280,0,0,0,0,0,0,0,0,88,0,1,0.291666667,517.0833333,56,99280,87,87,87,11/28/2018 15:30,Default description,yes,<openexp._canvas.legacy.Legacy object at 0x0535ECB0>,<openexp._canvas.legacy.Legacy object at 0x0535AC70>,<openexp._canvas.legacy.Legacy object at 0x051E91F0>,<openexp._canvas.legacy.Legacy object at 0x051E4930>,<openexp._canvas.legacy.Legacy object at 0x051D4190>,<openexp._canvas.legacy.Legacy object at 0x053522B0>,<openexp._canvas.legacy.Legacy object at 0x05376670>,<openexp._canvas.legacy.Legacy object at 0x051E9950>,75,SpatProbMultiple3.osexp,C:/Userdata/Michel/SpatProbMultiple3,no,mono,no,18,no,white,no,yes,0.09,98,1050,legacy,45,62,62,1,C:/Userdata/Michel/SpatProbMultiple3/beh/subject-21.csv,legacy,9,192,25,Kafkaesque Koffka,3.2.5,yes,598477b2b83f69022949e7e9,47,green,rectangular,green,rectangular,0,None,2500,space,7516,7516,"(80, 80, 80)","(0, 123, 0)","(177, 0, 0)","(155, 155, 155)",2,legacy,experiment,"[4, 5, 6, 7, 0, 1, 2, 3]",\,2500,3000,0,8,252.7587515,1024,2,48000,-16,main,"[(0, -252), (178, -178), (252, 0), (178, 178), (0, 252), (-178, 178), (-252, 0), (-178, -178)]",[],45,odd,0,NA,232167,277019,277019,117834,116823,1940,147856,147856,1940,1940,125350,459322,1938,277019,456819,456017,456017,NA,792,study_X,0,7516,1,yes,1680
undefined,undefined,NA,NA,NA,7516,7516,black,no,legacy,legacy,legacy,0,red,"(177, 0, 0)",shape,present,highProb,rectangular,swap,same,swap,swap,red,"(177, 0, 0)",lowProb,lowProb3,circular,uniform,0,undefined,0,0.291666667,1,1,530.1041667,1,56,101780,0,0,0,0,0,0,0,0,89,0,1,0.291666667,530.1041667,56,101780,88,88,88,11/28/2018 15:30,Default description,yes,<openexp._canvas.legacy.Legacy object at 0x0535ECB0>,<openexp._canvas.legacy.Legacy object at 0x0535AC70>,<openexp._canvas.legacy.Legacy object at 0x051E91F0>,<openexp._canvas.legacy.Legacy object at 0x051E4930>,<openexp._canvas.legacy.Legacy object at 0x051D4190>,<openexp._canvas.legacy.Legacy object at 0x053522B0>,<openexp._canvas.legacy.Legacy object at 0x051B99F0>,<openexp._canvas.legacy.Legacy object at 0x051E9950>,75,SpatProbMultiple3.osexp,C:/Userdata/Michel/SpatProbMultiple3,no,mono,no,18,no,white,no,yes,0.09,98,1050,legacy,45,63,63,1,C:/Userdata/Michel/SpatProbMultiple3/beh/subject-21.csv,legacy,9,192,25,Kafkaesque Koffka,3.2.5,yes,598477b2b83f69022949e7e9,47,red,rectangular,red,circular,0,None,2500,space,7516,7516,"(80, 80, 80)","(0, 123, 0)","(177, 0, 0)","(155, 155, 155)",2,legacy,experiment,"[4, 5, 6, 7, 0, 1, 2, 3]",\,2500,3000,0,8,252.7587515,1024,2,48000,-16,main,"[(0, -252), (178, -178), (252, 0), (178, 178), (0, 252), (-178, 178), (-252, 0), (-178, -178)]",[],45,odd,7,NA,232167,277019,277019,117834,116823,1940,147856,147856,1940,1940,125350,463055,1938,277019,460552,459751,459751,NA,792,study_X,0,7516,1,yes,1680
undefined,undefined,NA,NA,NA,7516,7516,black,no,legacy,legacy,legacy,0,red,"(177, 0, 0)",shape,present,lowProb6,rectangular,same,same,same,same,red,"(177, 0, 0)",lowProb,lowProb4,circular,uniform,1,undefined,0,0.296875,1,1,537.8333333,1,57,103264,0,0,0,0,0,0,0,0,90,0,1,0.296875,537.8333333,57,103264,89,89,89,11/28/2018 15:30,Default description,yes,<openexp._canvas.legacy.Legacy object at 0x0535ECB0>,<openexp._canvas.legacy.Legacy object at 0x0535AC70>,<openexp._canvas.legacy.Legacy object at 0x051E91F0>,<openexp._canvas.legacy.Legacy object at 0x051E4930>,<openexp._canvas.legacy.Legacy object at 0x051D4190>,<openexp._canvas.legacy.Legacy object at 0x053522B0>,<openexp._canvas.legacy.Legacy object at 0x05369A90>,<openexp._canvas.legacy.Legacy object at 0x051E9950>,75,SpatProbMultiple3.osexp,C:/Userdata/Michel/SpatProbMultiple3,no,mono,no,18,no,white,no,yes,0.09,98,1050,legacy,45,64,64,1,C:/Userdata/Michel/SpatProbMultiple3/beh/subject-21.csv,legacy,9,192,25,Kafkaesque Koffka,3.2.5,yes,598477b2b83f69022949e7e9,47,red,rectangular,red,circular,0,\,1484,space,7516,7516,"(80, 80, 80)","(0, 123, 0)","(177, 0, 0)","(155, 155, 155)",2,legacy,experiment,"[4, 5, 6, 7, 0, 1, 2, 3]",\,2500,3000,0,8,252.7587515,1024,2,48000,-16,main,"[(0, -252), (178, -178), (252, 0), (178, 178), (0, 252), (-178, 178), (-252, 0), (-178, -178)]",[],45,odd,1,NA,232167,277019,277019,117834,116823,1940,147856,147856,1940,1940,125350,465780,1938,277019,464293,463491,463491,NA,792,study_X,0,7516,1,yes,1680
