"acc","accuracy","average_response_time","avg_rt","background","bidi","canvas_backend","clock_backend","color_backend","compensation","cond_disColor","cond_disColorRGB","cond_disFeature","cond_disPresent","cond_disProbability","cond_disShape","cond_primingDisColor","cond_primingDisShape","cond_primingTarColor","cond_primingTarShape","cond_tarColor","cond_tarColorRGB","cond_tarLocation","cond_tarLocationLong","cond_tarShape","coordinates","correct","correct_continuePress","count_blockAcc","count_blockFeed","count_blockLoop","count_blockRT","count_blockSeq","count_blockSumCorrect","count_blockSumRT","count_continuePress","count_example","count_expSettings","count_exp_mainLoop","count_experiment","count_instructions","count_instructions1","count_instructions2","count_log","count_main","count_prepCanvas","count_totalAcc","count_totalRT","count_totalSumCorrect","count_totalSumRT","count_trialResp","count_trialSeq","count_trialTask","datetime","description","disable_garbage_collection","dispBlank","dispBlockStart","dispFeedBlock","dispFix","dispInstructions","dispSearch","dispStartScreen","distance2screen","experiment_file","experiment_path","font_bold","font_family","font_italic","font_size","font_underline","foreground","form_clicks","fullscreen","gaborFreq","gaborSize","height","keyboard_backend","lineOriTar","live_row","live_row_blockLoop","live_row_exp_mainLoop","logfile","mouse_backend","noExpBlocks","noExpTrials","noPracTrials","opensesame_codename","opensesame_version","osf_always_upload_experiment","osf_id","physical_screensize","previousDisColor","previousDisShape","previousTarColor","previousTarShape","repeat_cycle","response","responseTime","response_continuePress","response_time","response_time_continuePress","rgb_gray","rgb_green","rgb_red","rgb_white","round_decimals","sampler_backend","set_blockType","set_counterPositions","set_respCorrect","set_respTimeoutExp","set_respTimeoutPrac","set_rotation","set_setSize","sizeImaginary","sound_buf_size","sound_channels","sound_freq","sound_sample_size","start","stimPositions","stimuli","subject_nr","subject_parity","tarIdx","time_blockFeed","time_blockLoop","time_blockSeq","time_continuePress","time_example","time_expSettings","time_exp_mainLoop","time_experiment","time_instructions","time_instructions1","time_instructions2","time_log","time_main","time_prepCanvas","time_trialResp","time_trialSeq","time_trialTask","timing_EEGwait","timing_fix","title","total_correct","total_response_time","total_responses","uniform_coordinates","width"
"undefined","undefined","14285","14285","black","no","legacy","legacy","legacy","0","green","(0, 122, 0)","shape","present","highProbOther","circular","same","swap","swap","same","green","(0, 122, 0)","lowProb","lowProb3","rectangular","uniform","1","undefined","0.00520833333333","1","1","8.55729166667","1","1","1643","0","0","0","0","0","0","0","0","25","0","1","0.00520833333333","8.55729166667","1","1643","25","25","25","08/21/17 11:21:29","Default description","yes","<openexp._canvas.legacy.legacy object at 0x048527F0>","<openexp._canvas.legacy.legacy object at 0x0485E7B0>","<openexp._canvas.legacy.legacy object at 0x04847510>","<openexp._canvas.legacy.legacy object at 0x0493F9D0>","<openexp._canvas.legacy.legacy object at 0x049114B0>","<openexp._canvas.legacy.legacy object at 0x0484E550>","<openexp._canvas.legacy.legacy object at 0x04912BD0>","75","IndividualPriorityWithDis_v1.osexp","C:/Userdata/Michel/SpatialProb/IndividualPriorityMaps/Experiment2","no","mono","no","18","no","white","no","yes","0.09","98","1050","legacy","315","0","0","1","C:/Userdata/Michel/SpatialProb/IndividualPriorityMaps/Experiment2/data/subject-10.csv","legacy","9","192","25","Jazzy James","3.1.3","yes","598477b2b83f69022949e7e9","47","green","circular","green","rectangular","0","/","1643","space","14285","14285","(80, 80, 80)","(0, 122, 0)","(179, 0, 0)","(155, 155, 155)","2","legacy","experiment","[1, 2, 3, 4, 5, 6, 7, 0]","/","2500","3000","0","8","252.758751519","1024","2","48000","-16","main","[(0, -252), (178, -178), (252, 0), (178, 178), (0, 252), (-178, 178), (-252, 0), (-178, -178)]","[]","10","even","4","306863","351882","351882","199872","198865","1580","227365","227365","1580","1580","214157","359812","1579","351882","358166","352278","352278","NA","810","study_X","0","14285","1","yes","1680"
"undefined","undefined","14285","14285","black","no","legacy","legacy","legacy","0","green","(0, 122, 0)","shape","present","highProb","rectangular","same","swap","same","swap","green","(0, 122, 0)","lowProb","lowProb6","circular","uniform","1","undefined","0.0104166666667","1","1","20.3020833333","1","2","3898","0","0","0","0","0","0","0","0","26","0","1","0.0104166666667","20.3020833333","2","3898","26","26","26","08/21/17 11:21:29","Default description","yes","<openexp._canvas.legacy.legacy object at 0x048527F0>","<openexp._canvas.legacy.legacy object at 0x0485E7B0>","<openexp._canvas.legacy.legacy object at 0x04847510>","<openexp._canvas.legacy.legacy object at 0x0493F9D0>","<openexp._canvas.legacy.legacy object at 0x049114B0>","<openexp._canvas.legacy.legacy object at 0x0485EFB0>","<openexp._canvas.legacy.legacy object at 0x04912BD0>","75","IndividualPriorityWithDis_v1.osexp","C:/Userdata/Michel/SpatialProb/IndividualPriorityMaps/Experiment2","no","mono","no","18","no","white","no","yes","0.09","98","1050","legacy","315","1","1","1","C:/Userdata/Michel/SpatialProb/IndividualPriorityMaps/Experiment2/data/subject-10.csv","legacy","9","192","25","Jazzy James","3.1.3","yes","598477b2b83f69022949e7e9","47","green","rectangular","green","circular","0","/","2255","space","14285","14285","(80, 80, 80)","(0, 122, 0)","(179, 0, 0)","(155, 155, 155)","2","legacy","experiment","[1, 2, 3, 4, 5, 6, 7, 0]","/","2500","3000","0","8","252.758751519","1024","2","48000","-16","main","[(0, -252), (178, -178), (252, 0), (178, 178), (0, 252), (-178, 178), (-252, 0), (-178, -178)]","[]","10","even","0","306863","351882","351882","199872","198865","1580","227365","227365","1580","1580","214157","363325","1579","351882","361066","360250","360250","NA","810","study_X","0","14285","1","yes","1680"
"undefined","undefined","14285","14285","black","no","legacy","legacy","legacy","0","red","(179, 0, 0)","shape","present","highProb","circular","swap","swap","swap","swap","red","(179, 0, 0)","lowProb","lowProb2","rectangular","uniform","1","undefined","0.015625","1","1","29.9114583333","1","3","5743","0","0","0","0","0","0","0","0","27","0","1","0.015625","29.9114583333","3","5743","27","27","27","08/21/17 11:21:29","Default description","yes","<openexp._canvas.legacy.legacy object at 0x048527F0>","<openexp._canvas.legacy.legacy object at 0x0485E7B0>","<openexp._canvas.legacy.legacy object at 0x04847510>","<openexp._canvas.legacy.legacy object at 0x0493F9D0>","<openexp._canvas.legacy.legacy object at 0x049114B0>","<openexp._canvas.legacy.legacy object at 0x0484F950>","<openexp._canvas.legacy.legacy object at 0x04912BD0>","75","IndividualPriorityWithDis_v1.osexp","C:/Userdata/Michel/SpatialProb/IndividualPriorityMaps/Experiment2","no","mono","no","18","no","white","no","yes","0.09","98","1050","legacy","45","2","2","1","C:/Userdata/Michel/SpatialProb/IndividualPriorityMaps/Experiment2/data/subject-10.csv","legacy","9","192","25","Jazzy James","3.1.3","yes","598477b2b83f69022949e7e9","47","red","circular","red","rectangular","0","\","1845","space","14285","14285","(80, 80, 80)","(0, 122, 0)","(179, 0, 0)","(155, 155, 155)","2","legacy","experiment","[1, 2, 3, 4, 5, 6, 7, 0]","\","2500","3000","0","8","252.758751519","1024","2","48000","-16","main","[(0, -252), (178, -178), (252, 0), (178, 178), (0, 252), (-178, 178), (-252, 0), (-178, -178)]","[]","10","even","3","306863","351882","351882","199872","198865","1580","227365","227365","1580","1580","214157","366404","1579","351882","364556","363740","363740","NA","810","study_X","0","14285","1","yes","1680"
"undefined","undefined","14285","14285","black","no","legacy","legacy","legacy","0","green","(0, 122, 0)","shape","absent","lowProb1","circular","swap","same","swap","swap","green","(0, 122, 0)","highProbColor","highProbColor","circular","uniform","1","undefined","0.0208333333333","1","1","34.4114583333","1","4","6607","0","0","0","0","0","0","0","0","28","0","1","0.0208333333333","34.4114583333","4","6607","28","28","28","08/21/17 11:21:29","Default description","yes","<openexp._canvas.legacy.legacy object at 0x048527F0>","<openexp._canvas.legacy.legacy object at 0x0485E7B0>","<openexp._canvas.legacy.legacy object at 0x04847510>","<openexp._canvas.legacy.legacy object at 0x0493F9D0>","<openexp._canvas.legacy.legacy object at 0x049114B0>","<openexp._canvas.legacy.legacy object at 0x04847930>","<openexp._canvas.legacy.legacy object at 0x04912BD0>","75","IndividualPriorityWithDis_v1.osexp","C:/Userdata/Michel/SpatialProb/IndividualPriorityMaps/Experiment2","no","mono","no","18","no","white","no","yes","0.09","98","1050","legacy","315","3","3","1","C:/Userdata/Michel/SpatialProb/IndividualPriorityMaps/Experiment2/data/subject-10.csv","legacy","9","192","25","Jazzy James","3.1.3","yes","598477b2b83f69022949e7e9","47","green","circular","green","circular","0","/","864","space","14285","14285","(80, 80, 80)","(0, 122, 0)","(179, 0, 0)","(155, 155, 155)","2","legacy","experiment","[1, 2, 3, 4, 5, 6, 7, 0]","/","2500","3000","0","8","252.758751519","1024","2","48000","-16","main","[(0, -252), (178, -178), (252, 0), (178, 178), (0, 252), (-178, 178), (-252, 0), (-178, -178)]","[]","10","even","1","306863","351882","351882","199872","198865","1580","227365","227365","1580","1580","214157","368516","1579","351882","367649","366833","366833","NA","810","study_X","0","14285","1","yes","1680"
"undefined","undefined","14285","14285","black","no","legacy","legacy","legacy","0","red","(179, 0, 0)","color","absent","lowProb2","rectangular","swap","swap","swap","swap","red","(179, 0, 0)","highProbShape","highProbShape","rectangular","uniform","1","undefined","0.0260416666667","1","1","39.515625","1","5","7587","0","0","0","0","0","0","0","0","29","0","1","0.0260416666667","39.515625","5","7587","29","29","29","08/21/17 11:21:29","Default description","yes","<openexp._canvas.legacy.legacy object at 0x048527F0>","<openexp._canvas.legacy.legacy object at 0x0485E7B0>","<openexp._canvas.legacy.legacy object at 0x04847510>","<openexp._canvas.legacy.legacy object at 0x0493F9D0>","<openexp._canvas.legacy.legacy object at 0x049114B0>","<openexp._canvas.legacy.legacy object at 0x0484FF50>","<openexp._canvas.legacy.legacy object at 0x04912BD0>","75","IndividualPriorityWithDis_v1.osexp","C:/Userdata/Michel/SpatialProb/IndividualPriorityMaps/Experiment2","no","mono","no","18","no","white","no","yes","0.09","98","1050","legacy","45","4","4","1","C:/Userdata/Michel/SpatialProb/IndividualPriorityMaps/Experiment2/data/subject-10.csv","legacy","9","192","25","Jazzy James","3.1.3","yes","598477b2b83f69022949e7e9","47","red","rectangular","red","rectangular","0","\","980","space","14285","14285","(80, 80, 80)","(0, 122, 0)","(179, 0, 0)","(155, 155, 155)","2","legacy","experiment","[1, 2, 3, 4, 5, 6, 7, 0]","\","2500","3000","0","8","252.758751519","1024","2","48000","-16","main","[(0, -252), (178, -178), (252, 0), (178, 178), (0, 252), (-178, 178), (-252, 0), (-178, -178)]","[]","10","even","5","306863","351882","351882","199872","198865","1580","227365","227365","1580","1580","214157","370724","1579","351882","369741","368925","368926","NA","810","study_X","0","14285","1","yes","1680"
"undefined","undefined","14285","14285","black","no","legacy","legacy","legacy","0","red","(179, 0, 0)","color","present","lowProb2","rectangular","same","same","swap","same","green","(0, 122, 0)","highProbColor","highProbColor","rectangular","uniform","1","undefined","0.03125","1","1","45.7708333333","1","6","8788","0","0","0","0","0","0","0","0","30","0","1","0.03125","45.7708333333","6","8788","30","30","30","08/21/17 11:21:29","Default description","yes","<openexp._canvas.legacy.legacy object at 0x048527F0>","<openexp._canvas.legacy.legacy object at 0x0485E7B0>","<openexp._canvas.legacy.legacy object at 0x04847510>","<openexp._canvas.legacy.legacy object at 0x0493F9D0>","<openexp._canvas.legacy.legacy object at 0x049114B0>","<openexp._canvas.legacy.legacy object at 0x0493F2B0>","<openexp._canvas.legacy.legacy object at 0x04912BD0>","75","IndividualPriorityWithDis_v1.osexp","C:/Userdata/Michel/SpatialProb/IndividualPriorityMaps/Experiment2","no","mono","no","18","no","white","no","yes","0.09","98","1050","legacy","315","5","5","1","C:/Userdata/Michel/SpatialProb/IndividualPriorityMaps/Experiment2/data/subject-10.csv","legacy","9","192","25","Jazzy James","3.1.3","yes","598477b2b83f69022949e7e9","47","red","rectangular","green","rectangular","0","/","1201","space","14285","14285","(80, 80, 80)","(0, 122, 0)","(179, 0, 0)","(155, 155, 155)","2","legacy","experiment","[1, 2, 3, 4, 5, 6, 7, 0]","/","2500","3000","0","8","252.758751519","1024","2","48000","-16","main","[(0, -252), (178, -178), (252, 0), (178, 178), (0, 252), (-178, 178), (-252, 0), (-178, -178)]","[]","10","even","1","306863","351882","351882","199872","198865","1580","227365","227365","1580","1580","214157","373164","1579","351882","371960","371144","371144","NA","810","study_X","0","14285","1","yes","1680"
"undefined","undefined","14285","14285","black","no","legacy","legacy","legacy","0","red","(179, 0, 0)","color","present","highProb","circular","same","swap","same","swap","green","(0, 122, 0)","highProbShape","highProbShape","circular","uniform","1","undefined","0.0364583333333","1","1","51.296875","1","7","9849","0","0","0","0","0","0","0","0","31","0","1","0.0364583333333","51.296875","7","9849","31","31","31","08/21/17 11:21:29","Default description","yes","<openexp._canvas.legacy.legacy object at 0x048527F0>","<openexp._canvas.legacy.legacy object at 0x0485E7B0>","<openexp._canvas.legacy.legacy object at 0x04847510>","<openexp._canvas.legacy.legacy object at 0x0493F9D0>","<openexp._canvas.legacy.legacy object at 0x049114B0>","<openexp._canvas.legacy.legacy object at 0x04847ED0>","<openexp._canvas.legacy.legacy object at 0x04912BD0>","75","IndividualPriorityWithDis_v1.osexp","C:/Userdata/Michel/SpatialProb/IndividualPriorityMaps/Experiment2","no","mono","no","18","no","white","no","yes","0.09","98","1050","legacy","45","6","6","1","C:/Userdata/Michel/SpatialProb/IndividualPriorityMaps/Experiment2/data/subject-10.csv","legacy","9","192","25","Jazzy James","3.1.3","yes","598477b2b83f69022949e7e9","47","red","circular","green","circular","0","\","1061","space","14285","14285","(80, 80, 80)","(0, 122, 0)","(179, 0, 0)","(155, 155, 155)","2","legacy","experiment","[1, 2, 3, 4, 5, 6, 7, 0]","\","2500","3000","0","8","252.758751519","1024","2","48000","-16","main","[(0, -252), (178, -178), (252, 0), (178, 178), (0, 252), (-178, 178), (-252, 0), (-178, -178)]","[]","10","even","5","306863","351882","351882","199872","198865","1580","227365","227365","1580","1580","214157","375468","1579","351882","374404","373588","373588","NA","810","study_X","0","14285","1","yes","1680"
"undefined","undefined","14285","14285","black","no","legacy","legacy","legacy","0","green","(0, 122, 0)","color","present","highProb","rectangular","swap","swap","swap","swap","red","(179, 0, 0)","lowProb","lowProb4","rectangular","uniform","1","undefined","0.0416666666667","1","1","57.7239583333","1","8","11083","0","0","0","0","0","0","0","0","32","0","1","0.0416666666667","57.7239583333","8","11083","32","32","32","08/21/17 11:21:29","Default description","yes","<openexp._canvas.legacy.legacy object at 0x048527F0>","<openexp._canvas.legacy.legacy object at 0x0485E7B0>","<openexp._canvas.legacy.legacy object at 0x04847510>","<openexp._canvas.legacy.legacy object at 0x0493F9D0>","<openexp._canvas.legacy.legacy object at 0x049114B0>","<openexp._canvas.legacy.legacy object at 0x0484E550>","<openexp._canvas.legacy.legacy object at 0x04912BD0>","75","IndividualPriorityWithDis_v1.osexp","C:/Userdata/Michel/SpatialProb/IndividualPriorityMaps/Experiment2","no","mono","no","18","no","white","no","yes","0.09","98","1050","legacy","45","7","7","1","C:/Userdata/Michel/SpatialProb/IndividualPriorityMaps/Experiment2/data/subject-10.csv","legacy","9","192","25","Jazzy James","3.1.3","yes","598477b2b83f69022949e7e9","47","green","rectangular","red","rectangular","0","\","1234","space","14285","14285","(80, 80, 80)","(0, 122, 0)","(179, 0, 0)","(155, 155, 155)","2","legacy","experiment","[1, 2, 3, 4, 5, 6, 7, 0]","\","2500","3000","0","8","252.758751519","1024","2","48000","-16","main","[(0, -252), (178, -178), (252, 0), (178, 178), (0, 252), (-178, 178), (-252, 0), (-178, -178)]","[]","10","even","6","306863","351882","351882","199872","198865","1580","227365","227365","1580","1580","214157","377949","1579","351882","376712","375896","375896","NA","810","study_X","0","14285","1","yes","1680"
"undefined","undefined","14285","14285","black","no","legacy","legacy","legacy","0","red","(179, 0, 0)","shape","present","lowProb3","rectangular","swap","same","same","swap","red","(179, 0, 0)","highProbColor","highProbColor","circular","uniform","1","undefined","0.046875","1","1","62.078125","1","9","11919","0","0","0","0","0","0","0","0","33","0","1","0.046875","62.078125","9","11919","33","33","33","08/21/17 11:21:29","Default description","yes","<openexp._canvas.legacy.legacy object at 0x048527F0>","<openexp._canvas.legacy.legacy object at 0x0485E7B0>","<openexp._canvas.legacy.legacy object at 0x04847510>","<openexp._canvas.legacy.legacy object at 0x0493F9D0>","<openexp._canvas.legacy.legacy object at 0x049114B0>","<openexp._canvas.legacy.legacy object at 0x0493FAB0>","<openexp._canvas.legacy.legacy object at 0x04912BD0>","75","IndividualPriorityWithDis_v1.osexp","C:/Userdata/Michel/SpatialProb/IndividualPriorityMaps/Experiment2","no","mono","no","18","no","white","no","yes","0.09","98","1050","legacy","45","8","8","1","C:/Userdata/Michel/SpatialProb/IndividualPriorityMaps/Experiment2/data/subject-10.csv","legacy","9","192","25","Jazzy James","3.1.3","yes","598477b2b83f69022949e7e9","47","red","rectangular","red","circular","0","\","836","space","14285","14285","(80, 80, 80)","(0, 122, 0)","(179, 0, 0)","(155, 155, 155)","2","legacy","experiment","[1, 2, 3, 4, 5, 6, 7, 0]","\","2500","3000","0","8","252.758751519","1024","2","48000","-16","main","[(0, -252), (178, -178), (252, 0), (178, 178), (0, 252), (-178, 178), (-252, 0), (-178, -178)]","[]","10","even","1","306863","351882","351882","199872","198865","1580","227365","227365","1580","1580","214157","380021","1579","351882","379182","378366","378367","NA","810","study_X","0","14285","1","yes","1680"
"undefined","undefined","14285","14285","black","no","legacy","legacy","legacy","0","red","(179, 0, 0)","shape","absent","highProbOther","rectangular","same","same","same","swap","red","(179, 0, 0)","highProbColor","highProbColor","rectangular","uniform","1","undefined","0.0520833333333","1","1","67.109375","1","10","12885","0","0","0","0","0","0","0","0","34","0","1","0.0520833333333","67.109375","10","12885","34","34","34","08/21/17 11:21:29","Default description","yes","<openexp._canvas.legacy.legacy object at 0x048527F0>","<openexp._canvas.legacy.legacy object at 0x0485E7B0>","<openexp._canvas.legacy.legacy object at 0x04847510>","<openexp._canvas.legacy.legacy object at 0x0493F9D0>","<openexp._canvas.legacy.legacy object at 0x049114B0>","<openexp._canvas.legacy.legacy object at 0x0484E890>","<openexp._canvas.legacy.legacy object at 0x04912BD0>","75","IndividualPriorityWithDis_v1.osexp","C:/Userdata/Michel/SpatialProb/IndividualPriorityMaps/Experiment2","no","mono","no","18","no","white","no","yes","0.09","98","1050","legacy","45","9","9","1","C:/Userdata/Michel/SpatialProb/IndividualPriorityMaps/Experiment2/data/subject-10.csv","legacy","9","192","25","Jazzy James","3.1.3","yes","598477b2b83f69022949e7e9","47","red","rectangular","red","rectangular","0","\","966","space","14285","14285","(80, 80, 80)","(0, 122, 0)","(179, 0, 0)","(155, 155, 155)","2","legacy","experiment","[1, 2, 3, 4, 5, 6, 7, 0]","\","2500","3000","0","8","252.758751519","1024","2","48000","-16","main","[(0, -252), (178, -178), (252, 0), (178, 178), (0, 252), (-178, 178), (-252, 0), (-178, -178)]","[]","10","even","1","306863","351882","351882","199872","198865","1580","227365","227365","1580","1580","214157","382228","1579","351882","381259","380443","380443","NA","810","study_X","0","14285","1","yes","1680"
"undefined","undefined","14285","14285","black","no","legacy","legacy","legacy","0","green","(0, 122, 0)","shape","present","highProb","circular","swap","swap","swap","same","green","(0, 122, 0)","lowProb","lowProb6","rectangular","uniform","1","undefined","0.0572916666667","1","1","74","1","11","14208","0","0","0","0","0","0","0","0","35","0","1","0.0572916666667","74","11","14208","35","35","35","08/21/17 11:21:29","Default description","yes","<openexp._canvas.legacy.legacy object at 0x048527F0>","<openexp._canvas.legacy.legacy object at 0x0485E7B0>","<openexp._canvas.legacy.legacy object at 0x04847510>","<openexp._canvas.legacy.legacy object at 0x0493F9D0>","<openexp._canvas.legacy.legacy object at 0x049114B0>","<openexp._canvas.legacy.legacy object at 0x04859770>","<openexp._canvas.legacy.legacy object at 0x04912BD0>","75","IndividualPriorityWithDis_v1.osexp","C:/Userdata/Michel/SpatialProb/IndividualPriorityMaps/Experiment2","no","mono","no","18","no","white","no","yes","0.09","98","1050","legacy","45","10","10","1","C:/Userdata/Michel/SpatialProb/IndividualPriorityMaps/Experiment2/data/subject-10.csv","legacy","9","192","25","Jazzy James","3.1.3","yes","598477b2b83f69022949e7e9","47","green","circular","green","rectangular","0","\","1323","space","14285","14285","(80, 80, 80)","(0, 122, 0)","(179, 0, 0)","(155, 155, 155)","2","legacy","experiment","[1, 2, 3, 4, 5, 6, 7, 0]","\","2500","3000","0","8","252.758751519","1024","2","48000","-16","main","[(0, -252), (178, -178), (252, 0), (178, 178), (0, 252), (-178, 178), (-252, 0), (-178, -178)]","[]","10","even","0","306863","351882","351882","199872","198865","1580","227365","227365","1580","1580","214157","384780","1579","351882","383454","382638","382638","NA","810","study_X","0","14285","1","yes","1680"
"undefined","undefined","14285","14285","black","no","legacy","legacy","legacy","0","red","(179, 0, 0)","color","absent","lowProb3","rectangular","swap","swap","swap","same","red","(179, 0, 0)","highProbColor","highProbColor","rectangular","uniform","1","undefined","0.0625","1","1","77.9895833333","1","12","14974","0","0","0","0","0","0","0","0","36","0","1","0.0625","77.9895833333","12","14974","36","36","36","08/21/17 11:21:29","Default description","yes","<openexp._canvas.legacy.legacy object at 0x048527F0>","<openexp._canvas.legacy.legacy object at 0x0485E7B0>","<openexp._canvas.legacy.legacy object at 0x04847510>","<openexp._canvas.legacy.legacy object at 0x0493F9D0>","<openexp._canvas.legacy.legacy object at 0x049114B0>","<openexp._canvas.legacy.legacy object at 0x0484EA70>","<openexp._canvas.legacy.legacy object at 0x04912BD0>","75","IndividualPriorityWithDis_v1.osexp","C:/Userdata/Michel/SpatialProb/IndividualPriorityMaps/Experiment2","no","mono","no","18","no","white","no","yes","0.09","98","1050","legacy","45","11","11","1","C:/Userdata/Michel/SpatialProb/IndividualPriorityMaps/Experiment2/data/subject-10.csv","legacy","9","192","25","Jazzy James","3.1.3","yes","598477b2b83f69022949e7e9","47","red","rectangular","red","rectangular","0","\","766","space","14285","14285","(80, 80, 80)","(0, 122, 0)","(179, 0, 0)","(155, 155, 155)","2","legacy","experiment","[1, 2, 3, 4, 5, 6, 7, 0]","\","2500","3000","0","8","252.758751519","1024","2","48000","-16","main","[(0, -252), (178, -178), (252, 0), (178, 178), (0, 252), (-178, 178), (-252, 0), (-178, -178)]","[]","10","even","1","306863","351882","351882","199872","198865","1580","227365","227365","1580","1580","214157","386780","1579","351882","386011","385195","385195","NA","810","study_X","0","14285","1","yes","1680"
"undefined","undefined","14285","14285","black","no","legacy","legacy","legacy","0","green","(0, 122, 0)","shape","present","highProb","circular","swap","swap","swap","same","green","(0, 122, 0)","lowProb","lowProb6","rectangular","uniform","1","undefined","0.0677083333333","1","1","84.328125","1","13","16191","0","0","0","0","0","0","0","0","37","0","1","0.0677083333333","84.328125","13","16191","37","37","37","08/21/17 11:21:29","Default description","yes","<openexp._canvas.legacy.legacy object at 0x048527F0>","<openexp._canvas.legacy.legacy object at 0x0485E7B0>","<openexp._canvas.legacy.legacy object at 0x04847510>","<openexp._canvas.legacy.legacy object at 0x0493F9D0>","<openexp._canvas.legacy.legacy object at 0x049114B0>","<openexp._canvas.legacy.legacy object at 0x0493BF90>","<openexp._canvas.legacy.legacy object at 0x04912BD0>","75","IndividualPriorityWithDis_v1.osexp","C:/Userdata/Michel/SpatialProb/IndividualPriorityMaps/Experiment2","no","mono","no","18","no","white","no","yes","0.09","98","1050","legacy","45","12","12","1","C:/Userdata/Michel/SpatialProb/IndividualPriorityMaps/Experiment2/data/subject-10.csv","legacy","9","192","25","Jazzy James","3.1.3","yes","598477b2b83f69022949e7e9","47","green","circular","green","rectangular","0","\","1217","space","14285","14285","(80, 80, 80)","(0, 122, 0)","(179, 0, 0)","(155, 155, 155)","2","legacy","experiment","[1, 2, 3, 4, 5, 6, 7, 0]","\","2500","3000","0","8","252.758751519","1024","2","48000","-16","main","[(0, -252), (178, -178), (252, 0), (178, 178), (0, 252), (-178, 178), (-252, 0), (-178, -178)]","[]","10","even","0","306863","351882","351882","199872","198865","1580","227365","227365","1580","1580","214157","389236","1579","351882","388016","387200","387200","NA","810","study_X","0","14285","1","yes","1680"
"undefined","undefined","14285","14285","black","no","legacy","legacy","legacy","0","green","(0, 122, 0)","color","present","lowProb5","circular","same","same","swap","swap","red","(179, 0, 0)","highProbShape","highProbShape","circular","uniform","1","undefined","0.0729166666667","1","1","92.765625","1","14","17811","0","0","0","0","0","0","0","0","38","0","1","0.0729166666667","92.765625","14","17811","38","38","38","08/21/17 11:21:29","Default description","yes","<openexp._canvas.legacy.legacy object at 0x048527F0>","<openexp._canvas.legacy.legacy object at 0x0485E7B0>","<openexp._canvas.legacy.legacy object at 0x04847510>","<openexp._canvas.legacy.legacy object at 0x0493F9D0>","<openexp._canvas.legacy.legacy object at 0x049114B0>","<openexp._canvas.legacy.legacy object at 0x0493FC30>","<openexp._canvas.legacy.legacy object at 0x04912BD0>","75","IndividualPriorityWithDis_v1.osexp","C:/Userdata/Michel/SpatialProb/IndividualPriorityMaps/Experiment2","no","mono","no","18","no","white","no","yes","0.09","98","1050","legacy","45","13","13","1","C:/Userdata/Michel/SpatialProb/IndividualPriorityMaps/Experiment2/data/subject-10.csv","legacy","9","192","25","Jazzy James","3.1.3","yes","598477b2b83f69022949e7e9","47","green","circular","red","circular","0","\","1620","space","14285","14285","(80, 80, 80)","(0, 122, 0)","(179, 0, 0)","(155, 155, 155)","2","legacy","experiment","[1, 2, 3, 4, 5, 6, 7, 0]","\","2500","3000","0","8","252.758751519","1024","2","48000","-16","main","[(0, -252), (178, -178), (252, 0), (178, 178), (0, 252), (-178, 178), (-252, 0), (-178, -178)]","[]","10","even","5","306863","351882","351882","199872","198865","1580","227365","227365","1580","1580","214157","392116","1579","351882","390492","389676","389676","NA","810","study_X","0","14285","1","yes","1680"
"undefined","undefined","14285","14285","black","no","legacy","legacy","legacy","0","green","(0, 122, 0)","shape","present","lowProb4","rectangular","same","swap","swap","same","green","(0, 122, 0)","lowProb","lowProb1","circular","uniform","1","undefined","0.078125","1","1","98.7291666667","1","15","18956","0","0","0","0","0","0","0","0","39","0","1","0.078125","98.7291666667","15","18956","39","39","39","08/21/17 11:21:29","Default description","yes","<openexp._canvas.legacy.legacy object at 0x048527F0>","<openexp._canvas.legacy.legacy object at 0x0485E7B0>","<openexp._canvas.legacy.legacy object at 0x04847510>","<openexp._canvas.legacy.legacy object at 0x0493F9D0>","<openexp._canvas.legacy.legacy object at 0x049114B0>","<openexp._canvas.legacy.legacy object at 0x04847690>","<openexp._canvas.legacy.legacy object at 0x04912BD0>","75","IndividualPriorityWithDis_v1.osexp","C:/Userdata/Michel/SpatialProb/IndividualPriorityMaps/Experiment2","no","mono","no","18","no","white","no","yes","0.09","98","1050","legacy","315","14","14","1","C:/Userdata/Michel/SpatialProb/IndividualPriorityMaps/Experiment2/data/subject-10.csv","legacy","9","192","25","Jazzy James","3.1.3","yes","598477b2b83f69022949e7e9","47","green","rectangular","green","circular","0","/","1145","space","14285","14285","(80, 80, 80)","(0, 122, 0)","(179, 0, 0)","(155, 155, 155)","2","legacy","experiment","[1, 2, 3, 4, 5, 6, 7, 0]","/","2500","3000","0","8","252.758751519","1024","2","48000","-16","main","[(0, -252), (178, -178), (252, 0), (178, 178), (0, 252), (-178, 178), (-252, 0), (-178, -178)]","[]","10","even","2","306863","351882","351882","199872","198865","1580","227365","227365","1580","1580","214157","394500","1579","351882","393351","392535","392535","NA","810","study_X","0","14285","1","yes","1680"
"undefined","undefined","14285","14285","black","no","legacy","legacy","legacy","0","red","(179, 0, 0)","shape","absent","lowProb3","circular","swap","swap","swap","same","red","(179, 0, 0)","lowProb","lowProb2","circular","uniform","0","undefined","0.078125","1","1","111.75","1","15","21456","0","0","0","0","0","0","0","0","40","0","1","0.078125","111.75","15","21456","40","40","40","08/21/17 11:21:29","Default description","yes","<openexp._canvas.legacy.legacy object at 0x048527F0>","<openexp._canvas.legacy.legacy object at 0x0485E7B0>","<openexp._canvas.legacy.legacy object at 0x04847510>","<openexp._canvas.legacy.legacy object at 0x0493F9D0>","<openexp._canvas.legacy.legacy object at 0x049114B0>","<openexp._canvas.legacy.legacy object at 0x04852AB0>","<openexp._canvas.legacy.legacy object at 0x04912BD0>","75","IndividualPriorityWithDis_v1.osexp","C:/Userdata/Michel/SpatialProb/IndividualPriorityMaps/Experiment2","no","mono","no","18","no","white","no","yes","0.09","98","1050","legacy","315","15","15","1","C:/Userdata/Michel/SpatialProb/IndividualPriorityMaps/Experiment2/data/subject-10.csv","legacy","9","192","25","Jazzy James","3.1.3","yes","598477b2b83f69022949e7e9","47","red","circular","red","circular","0","None","2500","space","14285","14285","(80, 80, 80)","(0, 122, 0)","(179, 0, 0)","(155, 155, 155)","2","legacy","experiment","[1, 2, 3, 4, 5, 6, 7, 0]","/","2500","3000","0","8","252.758751519","1024","2","48000","-16","main","[(0, -252), (178, -178), (252, 0), (178, 178), (0, 252), (-178, 178), (-252, 0), (-178, -178)]","[]","10","even","3","306863","351882","351882","199872","198865","1580","227365","227365","1580","1580","214157","398247","1579","351882","395744","394928","394928","NA","810","study_X","0","14285","1","yes","1680"
"undefined","undefined","14285","14285","black","no","legacy","legacy","legacy","0","green","(0, 122, 0)","shape","present","highProb","rectangular","swap","swap","swap","same","green","(0, 122, 0)","highProbColor","highProbColor","circular","uniform","1","undefined","0.0833333333333","1","1","116.505208333","1","16","22369","0","0","0","0","0","0","0","0","41","0","1","0.0833333333333","116.505208333","16","22369","41","41","41","08/21/17 11:21:29","Default description","yes","<openexp._canvas.legacy.legacy object at 0x048527F0>","<openexp._canvas.legacy.legacy object at 0x0485E7B0>","<openexp._canvas.legacy.legacy object at 0x04847510>","<openexp._canvas.legacy.legacy object at 0x0493F9D0>","<openexp._canvas.legacy.legacy object at 0x049114B0>","<openexp._canvas.legacy.legacy object at 0x0493F4F0>","<openexp._canvas.legacy.legacy object at 0x04912BD0>","75","IndividualPriorityWithDis_v1.osexp","C:/Userdata/Michel/SpatialProb/IndividualPriorityMaps/Experiment2","no","mono","no","18","no","white","no","yes","0.09","98","1050","legacy","45","16","16","1","C:/Userdata/Michel/SpatialProb/IndividualPriorityMaps/Experiment2/data/subject-10.csv","legacy","9","192","25","Jazzy James","3.1.3","yes","598477b2b83f69022949e7e9","47","green","rectangular","green","circular","0","\","913","space","14285","14285","(80, 80, 80)","(0, 122, 0)","(179, 0, 0)","(155, 155, 155)","2","legacy","experiment","[1, 2, 3, 4, 5, 6, 7, 0]","\","2500","3000","0","8","252.758751519","1024","2","48000","-16","main","[(0, -252), (178, -178), (252, 0), (178, 178), (0, 252), (-178, 178), (-252, 0), (-178, -178)]","[]","10","even","1","306863","351882","351882","199872","198865","1580","227365","227365","1580","1580","214157","400396","1579","351882","399480","398664","398664","NA","810","study_X","0","14285","1","yes","1680"
"undefined","undefined","14285","14285","black","no","legacy","legacy","legacy","0","red","(179, 0, 0)","shape","absent","lowProb6","circular","swap","swap","swap","same","red","(179, 0, 0)","lowProb","lowProb6","circular","uniform","1","undefined","0.0885416666667","1","1","122.723958333","1","17","23563","0","0","0","0","0","0","0","0","42","0","1","0.0885416666667","122.723958333","17","23563","42","42","42","08/21/17 11:21:29","Default description","yes","<openexp._canvas.legacy.legacy object at 0x048527F0>","<openexp._canvas.legacy.legacy object at 0x0485E7B0>","<openexp._canvas.legacy.legacy object at 0x04847510>","<openexp._canvas.legacy.legacy object at 0x0493F9D0>","<openexp._canvas.legacy.legacy object at 0x049114B0>","<openexp._canvas.legacy.legacy object at 0x0485EFF0>","<openexp._canvas.legacy.legacy object at 0x04912BD0>","75","IndividualPriorityWithDis_v1.osexp","C:/Userdata/Michel/SpatialProb/IndividualPriorityMaps/Experiment2","no","mono","no","18","no","white","no","yes","0.09","98","1050","legacy","45","17","17","1","C:/Userdata/Michel/SpatialProb/IndividualPriorityMaps/Experiment2/data/subject-10.csv","legacy","9","192","25","Jazzy James","3.1.3","yes","598477b2b83f69022949e7e9","47","red","circular","red","circular","0","\","1194","space","14285","14285","(80, 80, 80)","(0, 122, 0)","(179, 0, 0)","(155, 155, 155)","2","legacy","experiment","[1, 2, 3, 4, 5, 6, 7, 0]","\","2500","3000","0","8","252.758751519","1024","2","48000","-16","main","[(0, -252), (178, -178), (252, 0), (178, 178), (0, 252), (-178, 178), (-252, 0), (-178, -178)]","[]","10","even","0","306863","351882","351882","199872","198865","1580","227365","227365","1580","1580","214157","402908","1579","351882","401711","400895","400895","NA","810","study_X","0","14285","1","yes","1680"
"undefined","undefined","14285","14285","black","no","legacy","legacy","legacy","0","green","(0, 122, 0)","color","present","highProb","rectangular","swap","swap","same","swap","red","(179, 0, 0)","lowProb","lowProb5","rectangular","uniform","1","undefined","0.09375","1","1","128.395833333","1","18","24652","0","0","0","0","0","0","0","0","43","0","1","0.09375","128.395833333","18","24652","43","43","43","08/21/17 11:21:29","Default description","yes","<openexp._canvas.legacy.legacy object at 0x048527F0>","<openexp._canvas.legacy.legacy object at 0x0485E7B0>","<openexp._canvas.legacy.legacy object at 0x04847510>","<openexp._canvas.legacy.legacy object at 0x0493F9D0>","<openexp._canvas.legacy.legacy object at 0x049114B0>","<openexp._canvas.legacy.legacy object at 0x0484F310>","<openexp._canvas.legacy.legacy object at 0x04912BD0>","75","IndividualPriorityWithDis_v1.osexp","C:/Userdata/Michel/SpatialProb/IndividualPriorityMaps/Experiment2","no","mono","no","18","no","white","no","yes","0.09","98","1050","legacy","45","18","18","1","C:/Userdata/Michel/SpatialProb/IndividualPriorityMaps/Experiment2/data/subject-10.csv","legacy","9","192","25","Jazzy James","3.1.3","yes","598477b2b83f69022949e7e9","47","green","rectangular","red","rectangular","0","\","1089","space","14285","14285","(80, 80, 80)","(0, 122, 0)","(179, 0, 0)","(155, 155, 155)","2","legacy","experiment","[1, 2, 3, 4, 5, 6, 7, 0]","\","2500","3000","0","8","252.758751519","1024","2","48000","-16","main","[(0, -252), (178, -178), (252, 0), (178, 178), (0, 252), (-178, 178), (-252, 0), (-178, -178)]","[]","10","even","7","306863","351882","351882","199872","198865","1580","227365","227365","1580","1580","214157","405252","1579","351882","404160","403344","403344","NA","810","study_X","0","14285","1","yes","1680"
"undefined","undefined","14285","14285","black","no","legacy","legacy","legacy","0","red","(179, 0, 0)","color","present","lowProb6","circular","swap","swap","swap","swap","green","(0, 122, 0)","lowProb","lowProb2","circular","uniform","0","undefined","0.09375","1","1","141.416666667","1","18","27152","0","0","0","0","0","0","0","0","44","0","1","0.09375","141.416666667","18","27152","44","44","44","08/21/17 11:21:29","Default description","yes","<openexp._canvas.legacy.legacy object at 0x048527F0>","<openexp._canvas.legacy.legacy object at 0x0485E7B0>","<openexp._canvas.legacy.legacy object at 0x04847510>","<openexp._canvas.legacy.legacy object at 0x0493F9D0>","<openexp._canvas.legacy.legacy object at 0x049114B0>","<openexp._canvas.legacy.legacy object at 0x0484E110>","<openexp._canvas.legacy.legacy object at 0x04912BD0>","75","IndividualPriorityWithDis_v1.osexp","C:/Userdata/Michel/SpatialProb/IndividualPriorityMaps/Experiment2","no","mono","no","18","no","white","no","yes","0.09","98","1050","legacy","45","19","19","1","C:/Userdata/Michel/SpatialProb/IndividualPriorityMaps/Experiment2/data/subject-10.csv","legacy","9","192","25","Jazzy James","3.1.3","yes","598477b2b83f69022949e7e9","47","red","circular","green","circular","0","None","2500","space","14285","14285","(80, 80, 80)","(0, 122, 0)","(179, 0, 0)","(155, 155, 155)","2","legacy","experiment","[1, 2, 3, 4, 5, 6, 7, 0]","\","2500","3000","0","8","252.758751519","1024","2","48000","-16","main","[(0, -252), (178, -178), (252, 0), (178, 178), (0, 252), (-178, 178), (-252, 0), (-178, -178)]","[]","10","even","3","306863","351882","351882","199872","198865","1580","227365","227365","1580","1580","214157","408996","1579","351882","406493","405677","405677","NA","810","study_X","0","14285","1","yes","1680"
"undefined","undefined","14285","14285","black","no","legacy","legacy","legacy","0","red","(179, 0, 0)","color","present","highProb","rectangular","same","swap","same","swap","green","(0, 122, 0)","lowProb","lowProb6","rectangular","uniform","1","undefined","0.0989583333333","1","1","147.369791667","1","19","28295","0","0","0","0","0","0","0","0","45","0","1","0.0989583333333","147.369791667","19","28295","45","45","45","08/21/17 11:21:29","Default description","yes","<openexp._canvas.legacy.legacy object at 0x048527F0>","<openexp._canvas.legacy.legacy object at 0x0485E7B0>","<openexp._canvas.legacy.legacy object at 0x04847510>","<openexp._canvas.legacy.legacy object at 0x0493F9D0>","<openexp._canvas.legacy.legacy object at 0x049114B0>","<openexp._canvas.legacy.legacy object at 0x0485ECB0>","<openexp._canvas.legacy.legacy object at 0x04912BD0>","75","IndividualPriorityWithDis_v1.osexp","C:/Userdata/Michel/SpatialProb/IndividualPriorityMaps/Experiment2","no","mono","no","18","no","white","no","yes","0.09","98","1050","legacy","45","20","20","1","C:/Userdata/Michel/SpatialProb/IndividualPriorityMaps/Experiment2/data/subject-10.csv","legacy","9","192","25","Jazzy James","3.1.3","yes","598477b2b83f69022949e7e9","47","red","rectangular","green","rectangular","0","\","1143","space","14285","14285","(80, 80, 80)","(0, 122, 0)","(179, 0, 0)","(155, 155, 155)","2","legacy","experiment","[1, 2, 3, 4, 5, 6, 7, 0]","\","2500","3000","0","8","252.758751519","1024","2","48000","-16","main","[(0, -252), (178, -178), (252, 0), (178, 178), (0, 252), (-178, 178), (-252, 0), (-178, -178)]","[]","10","even","0","306863","351882","351882","199872","198865","1580","227365","227365","1580","1580","214157","411396","1579","351882","410249","409433","409433","NA","810","study_X","0","14285","1","yes","1680"
"undefined","undefined","14285","14285","black","no","legacy","legacy","legacy","0","green","(0, 122, 0)","shape","present","highProb","circular","swap","swap","same","same","green","(0, 122, 0)","lowProb","lowProb2","rectangular","uniform","1","undefined","0.104166666667","1","1","159.078125","1","20","30543","0","0","0","0","0","0","0","0","46","0","1","0.104166666667","159.078125","20","30543","46","46","46","08/21/17 11:21:29","Default description","yes","<openexp._canvas.legacy.legacy object at 0x048527F0>","<openexp._canvas.legacy.legacy object at 0x0485E7B0>","<openexp._canvas.legacy.legacy object at 0x04847510>","<openexp._canvas.legacy.legacy object at 0x0493F9D0>","<openexp._canvas.legacy.legacy object at 0x049114B0>","<openexp._canvas.legacy.legacy object at 0x0493BD70>","<openexp._canvas.legacy.legacy object at 0x04912BD0>","75","IndividualPriorityWithDis_v1.osexp","C:/Userdata/Michel/SpatialProb/IndividualPriorityMaps/Experiment2","no","mono","no","18","no","white","no","yes","0.09","98","1050","legacy","315","21","21","1","C:/Userdata/Michel/SpatialProb/IndividualPriorityMaps/Experiment2/data/subject-10.csv","legacy","9","192","25","Jazzy James","3.1.3","yes","598477b2b83f69022949e7e9","47","green","circular","green","rectangular","0","/","2248","space","14285","14285","(80, 80, 80)","(0, 122, 0)","(179, 0, 0)","(155, 155, 155)","2","legacy","experiment","[1, 2, 3, 4, 5, 6, 7, 0]","/","2500","3000","0","8","252.758751519","1024","2","48000","-16","main","[(0, -252), (178, -178), (252, 0), (178, 178), (0, 252), (-178, 178), (-252, 0), (-178, -178)]","[]","10","even","3","306863","351882","351882","199872","198865","1580","227365","227365","1580","1580","214157","414884","1579","351882","412633","411817","411817","NA","810","study_X","0","14285","1","yes","1680"
"undefined","undefined","14285","14285","black","no","legacy","legacy","legacy","0","green","(0, 122, 0)","shape","present","highProb","circular","same","same","same","same","green","(0, 122, 0)","lowProb","lowProb5","rectangular","uniform","1","undefined","0.109375","1","1","163.734375","1","21","31437","0","0","0","0","0","0","0","0","47","0","1","0.109375","163.734375","21","31437","47","47","47","08/21/17 11:21:29","Default description","yes","<openexp._canvas.legacy.legacy object at 0x048527F0>","<openexp._canvas.legacy.legacy object at 0x0485E7B0>","<openexp._canvas.legacy.legacy object at 0x04847510>","<openexp._canvas.legacy.legacy object at 0x0493F9D0>","<openexp._canvas.legacy.legacy object at 0x049114B0>","<openexp._canvas.legacy.legacy object at 0x04945C70>","<openexp._canvas.legacy.legacy object at 0x04912BD0>","75","IndividualPriorityWithDis_v1.osexp","C:/Userdata/Michel/SpatialProb/IndividualPriorityMaps/Experiment2","no","mono","no","18","no","white","no","yes","0.09","98","1050","legacy","45","22","22","1","C:/Userdata/Michel/SpatialProb/IndividualPriorityMaps/Experiment2/data/subject-10.csv","legacy","9","192","25","Jazzy James","3.1.3","yes","598477b2b83f69022949e7e9","47","green","circular","green","rectangular","0","\","894","space","14285","14285","(80, 80, 80)","(0, 122, 0)","(179, 0, 0)","(155, 155, 155)","2","legacy","experiment","[1, 2, 3, 4, 5, 6, 7, 0]","\","2500","3000","0","8","252.758751519","1024","2","48000","-16","main","[(0, -252), (178, -178), (252, 0), (178, 178), (0, 252), (-178, 178), (-252, 0), (-178, -178)]","[]","10","even","7","306863","351882","351882","199872","198865","1580","227365","227365","1580","1580","214157","417028","1579","351882","416131","415315","415315","NA","810","study_X","0","14285","1","yes","1680"
"undefined","undefined","14285","14285","black","no","legacy","legacy","legacy","0","green","(0, 122, 0)","color","present","highProb","circular","same","same","swap","swap","red","(179, 0, 0)","lowProb","lowProb2","circular","uniform","1","undefined","0.114583333333","1","1","171.411458333","1","22","32911","0","0","0","0","0","0","0","0","48","0","1","0.114583333333","171.411458333","22","32911","48","48","48","08/21/17 11:21:29","Default description","yes","<openexp._canvas.legacy.legacy object at 0x048527F0>","<openexp._canvas.legacy.legacy object at 0x0485E7B0>","<openexp._canvas.legacy.legacy object at 0x04847510>","<openexp._canvas.legacy.legacy object at 0x0493F9D0>","<openexp._canvas.legacy.legacy object at 0x049114B0>","<openexp._canvas.legacy.legacy object at 0x0485EC50>","<openexp._canvas.legacy.legacy object at 0x04912BD0>","75","IndividualPriorityWithDis_v1.osexp","C:/Userdata/Michel/SpatialProb/IndividualPriorityMaps/Experiment2","no","mono","no","18","no","white","no","yes","0.09","98","1050","legacy","45","23","23","1","C:/Userdata/Michel/SpatialProb/IndividualPriorityMaps/Experiment2/data/subject-10.csv","legacy","9","192","25","Jazzy James","3.1.3","yes","598477b2b83f69022949e7e9","47","green","circular","red","circular","0","\","1474","space","14285","14285","(80, 80, 80)","(0, 122, 0)","(179, 0, 0)","(155, 155, 155)","2","legacy","experiment","[1, 2, 3, 4, 5, 6, 7, 0]","\","2500","3000","0","8","252.758751519","1024","2","48000","-16","main","[(0, -252), (178, -178), (252, 0), (178, 178), (0, 252), (-178, 178), (-252, 0), (-178, -178)]","[]","10","even","3","306863","351882","351882","199872","198865","1580","227365","227365","1580","1580","214157","419756","1579","351882","418279","417464","417464","NA","810","study_X","0","14285","1","yes","1680"
"undefined","undefined","14285","14285","black","no","legacy","legacy","legacy","0","green","(0, 122, 0)","shape","present","highProbOther","rectangular","same","swap","swap","same","green","(0, 122, 0)","lowProb","lowProb4","circular","uniform","1","undefined","0.119791666667","1","1","175.802083333","1","23","33754","0","0","0","0","0","0","0","0","49","0","1","0.119791666667","175.802083333","23","33754","49","49","49","08/21/17 11:21:29","Default description","yes","<openexp._canvas.legacy.legacy object at 0x048527F0>","<openexp._canvas.legacy.legacy object at 0x0485E7B0>","<openexp._canvas.legacy.legacy object at 0x04847510>","<openexp._canvas.legacy.legacy object at 0x0493F9D0>","<openexp._canvas.legacy.legacy object at 0x049114B0>","<openexp._canvas.legacy.legacy object at 0x04847910>","<openexp._canvas.legacy.legacy object at 0x04912BD0>","75","IndividualPriorityWithDis_v1.osexp","C:/Userdata/Michel/SpatialProb/IndividualPriorityMaps/Experiment2","no","mono","no","18","no","white","no","yes","0.09","98","1050","legacy","45","24","24","1","C:/Userdata/Michel/SpatialProb/IndividualPriorityMaps/Experiment2/data/subject-10.csv","legacy","9","192","25","Jazzy James","3.1.3","yes","598477b2b83f69022949e7e9","47","green","rectangular","green","circular","0","\","843","space","14285","14285","(80, 80, 80)","(0, 122, 0)","(179, 0, 0)","(155, 155, 155)","2","legacy","experiment","[1, 2, 3, 4, 5, 6, 7, 0]","\","2500","3000","0","8","252.758751519","1024","2","48000","-16","main","[(0, -252), (178, -178), (252, 0), (178, 178), (0, 252), (-178, 178), (-252, 0), (-178, -178)]","[]","10","even","6","306863","351882","351882","199872","198865","1580","227365","227365","1580","1580","214157","421844","1579","351882","420999","420183","420183","NA","810","study_X","0","14285","1","yes","1680"
"undefined","undefined","14285","14285","black","no","legacy","legacy","legacy","0","red","(179, 0, 0)","color","present","highProb","rectangular","swap","same","same","swap","green","(0, 122, 0)","lowProb","lowProb1","rectangular","uniform","1","undefined","0.125","1","1","185.880208333","1","24","35689","0","0","0","0","0","0","0","0","50","0","1","0.125","185.880208333","24","35689","50","50","50","08/21/17 11:21:29","Default description","yes","<openexp._canvas.legacy.legacy object at 0x048527F0>","<openexp._canvas.legacy.legacy object at 0x0485E7B0>","<openexp._canvas.legacy.legacy object at 0x04847510>","<openexp._canvas.legacy.legacy object at 0x0493F9D0>","<openexp._canvas.legacy.legacy object at 0x049114B0>","<openexp._canvas.legacy.legacy object at 0x0484E370>","<openexp._canvas.legacy.legacy object at 0x04912BD0>","75","IndividualPriorityWithDis_v1.osexp","C:/Userdata/Michel/SpatialProb/IndividualPriorityMaps/Experiment2","no","mono","no","18","no","white","no","yes","0.09","98","1050","legacy","45","25","25","1","C:/Userdata/Michel/SpatialProb/IndividualPriorityMaps/Experiment2/data/subject-10.csv","legacy","9","192","25","Jazzy James","3.1.3","yes","598477b2b83f69022949e7e9","47","red","rectangular","green","rectangular","0","\","1935","space","14285","14285","(80, 80, 80)","(0, 122, 0)","(179, 0, 0)","(155, 155, 155)","2","legacy","experiment","[1, 2, 3, 4, 5, 6, 7, 0]","\","2500","3000","0","8","252.758751519","1024","2","48000","-16","main","[(0, -252), (178, -178), (252, 0), (178, 178), (0, 252), (-178, 178), (-252, 0), (-178, -178)]","[]","10","even","2","306863","351882","351882","199872","198865","1580","227365","227365","1580","1580","214157","425012","1579","351882","423074","422258","422258","NA","810","study_X","0","14285","1","yes","1680"
"undefined","undefined","14285","14285","black","no","legacy","legacy","legacy","0","green","(0, 122, 0)","shape","present","highProb","circular","swap","swap","same","same","green","(0, 122, 0)","lowProb","lowProb2","rectangular","uniform","1","undefined","0.130208333333","1","1","196.5625","1","25","37740","0","0","0","0","0","0","0","0","51","0","1","0.130208333333","196.5625","25","37740","51","51","51","08/21/17 11:21:29","Default description","yes","<openexp._canvas.legacy.legacy object at 0x048527F0>","<openexp._canvas.legacy.legacy object at 0x0485E7B0>","<openexp._canvas.legacy.legacy object at 0x04847510>","<openexp._canvas.legacy.legacy object at 0x0493F9D0>","<openexp._canvas.legacy.legacy object at 0x049114B0>","<openexp._canvas.legacy.legacy object at 0x0493F130>","<openexp._canvas.legacy.legacy object at 0x04912BD0>","75","IndividualPriorityWithDis_v1.osexp","C:/Userdata/Michel/SpatialProb/IndividualPriorityMaps/Experiment2","no","mono","no","18","no","white","no","yes","0.09","98","1050","legacy","315","26","26","1","C:/Userdata/Michel/SpatialProb/IndividualPriorityMaps/Experiment2/data/subject-10.csv","legacy","9","192","25","Jazzy James","3.1.3","yes","598477b2b83f69022949e7e9","47","green","circular","green","rectangular","0","/","2051","space","14285","14285","(80, 80, 80)","(0, 122, 0)","(179, 0, 0)","(155, 155, 155)","2","legacy","experiment","[1, 2, 3, 4, 5, 6, 7, 0]","/","2500","3000","0","8","252.758751519","1024","2","48000","-16","main","[(0, -252), (178, -178), (252, 0), (178, 178), (0, 252), (-178, 178), (-252, 0), (-178, -178)]","[]","10","even","3","306863","351882","351882","199872","198865","1580","227365","227365","1580","1580","214157","428300","1579","351882","426245","425429","425429","NA","810","study_X","0","14285","1","yes","1680"
"undefined","undefined","14285","14285","black","no","legacy","legacy","legacy","0","green","(0, 122, 0)","shape","absent","lowProb3","circular","same","same","same","swap","green","(0, 122, 0)","highProbShape","highProbShape","circular","uniform","1","undefined","0.135416666667","1","1","201.947916667","1","26","38774","0","0","0","0","0","0","0","0","52","0","1","0.135416666667","201.947916667","26","38774","52","52","52","08/21/17 11:21:29","Default description","yes","<openexp._canvas.legacy.legacy object at 0x048527F0>","<openexp._canvas.legacy.legacy object at 0x0485E7B0>","<openexp._canvas.legacy.legacy object at 0x04847510>","<openexp._canvas.legacy.legacy object at 0x0493F9D0>","<openexp._canvas.legacy.legacy object at 0x049114B0>","<openexp._canvas.legacy.legacy object at 0x0484FE10>","<openexp._canvas.legacy.legacy object at 0x04912BD0>","75","IndividualPriorityWithDis_v1.osexp","C:/Userdata/Michel/SpatialProb/IndividualPriorityMaps/Experiment2","no","mono","no","18","no","white","no","yes","0.09","98","1050","legacy","45","27","27","1","C:/Userdata/Michel/SpatialProb/IndividualPriorityMaps/Experiment2/data/subject-10.csv","legacy","9","192","25","Jazzy James","3.1.3","yes","598477b2b83f69022949e7e9","47","green","circular","green","circular","0","\","1034","space","14285","14285","(80, 80, 80)","(0, 122, 0)","(179, 0, 0)","(155, 155, 155)","2","legacy","experiment","[1, 2, 3, 4, 5, 6, 7, 0]","\","2500","3000","0","8","252.758751519","1024","2","48000","-16","main","[(0, -252), (178, -178), (252, 0), (178, 178), (0, 252), (-178, 178), (-252, 0), (-178, -178)]","[]","10","even","5","306863","351882","351882","199872","198865","1580","227365","227365","1580","1580","214157","430572","1579","351882","429535","428719","428720","NA","810","study_X","0","14285","1","yes","1680"
"undefined","undefined","14285","14285","black","no","legacy","legacy","legacy","0","green","(0, 122, 0)","color","absent","lowProb4","rectangular","same","swap","same","swap","green","(0, 122, 0)","lowProb","lowProb5","rectangular","uniform","1","undefined","0.140625","1","1","206.802083333","1","27","39706","0","0","0","0","0","0","0","0","53","0","1","0.140625","206.802083333","27","39706","53","53","53","08/21/17 11:21:29","Default description","yes","<openexp._canvas.legacy.legacy object at 0x048527F0>","<openexp._canvas.legacy.legacy object at 0x0485E7B0>","<openexp._canvas.legacy.legacy object at 0x04847510>","<openexp._canvas.legacy.legacy object at 0x0493F9D0>","<openexp._canvas.legacy.legacy object at 0x049114B0>","<openexp._canvas.legacy.legacy object at 0x04847990>","<openexp._canvas.legacy.legacy object at 0x04912BD0>","75","IndividualPriorityWithDis_v1.osexp","C:/Userdata/Michel/SpatialProb/IndividualPriorityMaps/Experiment2","no","mono","no","18","no","white","no","yes","0.09","98","1050","legacy","315","28","28","1","C:/Userdata/Michel/SpatialProb/IndividualPriorityMaps/Experiment2/data/subject-10.csv","legacy","9","192","25","Jazzy James","3.1.3","yes","598477b2b83f69022949e7e9","47","green","rectangular","green","rectangular","0","/","932","space","14285","14285","(80, 80, 80)","(0, 122, 0)","(179, 0, 0)","(155, 155, 155)","2","legacy","experiment","[1, 2, 3, 4, 5, 6, 7, 0]","/","2500","3000","0","8","252.758751519","1024","2","48000","-16","main","[(0, -252), (178, -178), (252, 0), (178, 178), (0, 252), (-178, 178), (-252, 0), (-178, -178)]","[]","10","even","7","306863","351882","351882","199872","198865","1580","227365","227365","1580","1580","214157","432740","1579","351882","431805","430989","430989","NA","810","study_X","0","14285","1","yes","1680"
"undefined","undefined","14285","14285","black","no","legacy","legacy","legacy","0","red","(179, 0, 0)","shape","present","lowProb4","circular","swap","swap","swap","same","red","(179, 0, 0)","lowProb","lowProb6","rectangular","uniform","1","undefined","0.145833333333","1","1","213.109375","1","28","40917","0","0","0","0","0","0","0","0","54","0","1","0.145833333333","213.109375","28","40917","54","54","54","08/21/17 11:21:29","Default description","yes","<openexp._canvas.legacy.legacy object at 0x048527F0>","<openexp._canvas.legacy.legacy object at 0x0485E7B0>","<openexp._canvas.legacy.legacy object at 0x04847510>","<openexp._canvas.legacy.legacy object at 0x0493F9D0>","<openexp._canvas.legacy.legacy object at 0x049114B0>","<openexp._canvas.legacy.legacy object at 0x0485ED70>","<openexp._canvas.legacy.legacy object at 0x04912BD0>","75","IndividualPriorityWithDis_v1.osexp","C:/Userdata/Michel/SpatialProb/IndividualPriorityMaps/Experiment2","no","mono","no","18","no","white","no","yes","0.09","98","1050","legacy","45","29","29","1","C:/Userdata/Michel/SpatialProb/IndividualPriorityMaps/Experiment2/data/subject-10.csv","legacy","9","192","25","Jazzy James","3.1.3","yes","598477b2b83f69022949e7e9","47","red","circular","red","rectangular","0","\","1211","space","14285","14285","(80, 80, 80)","(0, 122, 0)","(179, 0, 0)","(155, 155, 155)","2","legacy","experiment","[1, 2, 3, 4, 5, 6, 7, 0]","\","2500","3000","0","8","252.758751519","1024","2","48000","-16","main","[(0, -252), (178, -178), (252, 0), (178, 178), (0, 252), (-178, 178), (-252, 0), (-178, -178)]","[]","10","even","0","306863","351882","351882","199872","198865","1580","227365","227365","1580","1580","214157","435196","1579","351882","433982","433166","433166","NA","810","study_X","0","14285","1","yes","1680"
"undefined","undefined","14285","14285","black","no","legacy","legacy","legacy","0","green","(0, 122, 0)","shape","present","highProb","rectangular","swap","swap","swap","swap","green","(0, 122, 0)","lowProb","lowProb3","circular","uniform","1","undefined","0.151041666667","1","1","218.067708333","1","29","41869","0","0","0","0","0","0","0","0","55","0","1","0.151041666667","218.067708333","29","41869","55","55","55","08/21/17 11:21:29","Default description","yes","<openexp._canvas.legacy.legacy object at 0x048527F0>","<openexp._canvas.legacy.legacy object at 0x0485E7B0>","<openexp._canvas.legacy.legacy object at 0x04847510>","<openexp._canvas.legacy.legacy object at 0x0493F9D0>","<openexp._canvas.legacy.legacy object at 0x049114B0>","<openexp._canvas.legacy.legacy object at 0x04945550>","<openexp._canvas.legacy.legacy object at 0x04912BD0>","75","IndividualPriorityWithDis_v1.osexp","C:/Userdata/Michel/SpatialProb/IndividualPriorityMaps/Experiment2","no","mono","no","18","no","white","no","yes","0.09","98","1050","legacy","45","30","30","1","C:/Userdata/Michel/SpatialProb/IndividualPriorityMaps/Experiment2/data/subject-10.csv","legacy","9","192","25","Jazzy James","3.1.3","yes","598477b2b83f69022949e7e9","47","green","rectangular","green","circular","0","\","952","space","14285","14285","(80, 80, 80)","(0, 122, 0)","(179, 0, 0)","(155, 155, 155)","2","legacy","experiment","[1, 2, 3, 4, 5, 6, 7, 0]","\","2500","3000","0","8","252.758751519","1024","2","48000","-16","main","[(0, -252), (178, -178), (252, 0), (178, 178), (0, 252), (-178, 178), (-252, 0), (-178, -178)]","[]","10","even","4","306863","351882","351882","199872","198865","1580","227365","227365","1580","1580","214157","437396","1579","351882","436441","435625","435625","NA","810","study_X","0","14285","1","yes","1680"
"undefined","undefined","14285","14285","black","no","legacy","legacy","legacy","0","green","(0, 122, 0)","shape","present","highProb","rectangular","same","same","same","same","green","(0, 122, 0)","lowProb","lowProb3","circular","uniform","1","undefined","0.15625","1","1","221.598958333","1","30","42547","0","0","0","0","0","0","0","0","56","0","1","0.15625","221.598958333","30","42547","56","56","56","08/21/17 11:21:29","Default description","yes","<openexp._canvas.legacy.legacy object at 0x048527F0>","<openexp._canvas.legacy.legacy object at 0x0485E7B0>","<openexp._canvas.legacy.legacy object at 0x04847510>","<openexp._canvas.legacy.legacy object at 0x0493F9D0>","<openexp._canvas.legacy.legacy object at 0x049114B0>","<openexp._canvas.legacy.legacy object at 0x04861EB0>","<openexp._canvas.legacy.legacy object at 0x04912BD0>","75","IndividualPriorityWithDis_v1.osexp","C:/Userdata/Michel/SpatialProb/IndividualPriorityMaps/Experiment2","no","mono","no","18","no","white","no","yes","0.09","98","1050","legacy","45","31","31","1","C:/Userdata/Michel/SpatialProb/IndividualPriorityMaps/Experiment2/data/subject-10.csv","legacy","9","192","25","Jazzy James","3.1.3","yes","598477b2b83f69022949e7e9","47","green","rectangular","green","circular","0","\","678","space","14285","14285","(80, 80, 80)","(0, 122, 0)","(179, 0, 0)","(155, 155, 155)","2","legacy","experiment","[1, 2, 3, 4, 5, 6, 7, 0]","\","2500","3000","0","8","252.758751519","1024","2","48000","-16","main","[(0, -252), (178, -178), (252, 0), (178, 178), (0, 252), (-178, 178), (-252, 0), (-178, -178)]","[]","10","even","4","306863","351882","351882","199872","198865","1580","227365","227365","1580","1580","214157","439316","1579","351882","438634","437819","437819","NA","810","study_X","0","14285","1","yes","1680"
"undefined","undefined","14285","14285","black","no","legacy","legacy","legacy","0","green","(0, 122, 0)","color","present","highProb","circular","same","swap","swap","same","red","(179, 0, 0)","lowProb","lowProb4","circular","uniform","1","undefined","0.161458333333","1","1","228.880208333","1","31","43945","0","0","0","0","0","0","0","0","57","0","1","0.161458333333","228.880208333","31","43945","57","57","57","08/21/17 11:21:29","Default description","yes","<openexp._canvas.legacy.legacy object at 0x048527F0>","<openexp._canvas.legacy.legacy object at 0x0485E7B0>","<openexp._canvas.legacy.legacy object at 0x04847510>","<openexp._canvas.legacy.legacy object at 0x0493F9D0>","<openexp._canvas.legacy.legacy object at 0x049114B0>","<openexp._canvas.legacy.legacy object at 0x0493F2F0>","<openexp._canvas.legacy.legacy object at 0x04912BD0>","75","IndividualPriorityWithDis_v1.osexp","C:/Userdata/Michel/SpatialProb/IndividualPriorityMaps/Experiment2","no","mono","no","18","no","white","no","yes","0.09","98","1050","legacy","315","32","32","1","C:/Userdata/Michel/SpatialProb/IndividualPriorityMaps/Experiment2/data/subject-10.csv","legacy","9","192","25","Jazzy James","3.1.3","yes","598477b2b83f69022949e7e9","47","green","circular","red","circular","0","/","1398","space","14285","14285","(80, 80, 80)","(0, 122, 0)","(179, 0, 0)","(155, 155, 155)","2","legacy","experiment","[1, 2, 3, 4, 5, 6, 7, 0]","/","2500","3000","0","8","252.758751519","1024","2","48000","-16","main","[(0, -252), (178, -178), (252, 0), (178, 178), (0, 252), (-178, 178), (-252, 0), (-178, -178)]","[]","10","even","6","306863","351882","351882","199872","198865","1580","227365","227365","1580","1580","214157","441956","1579","351882","440554","439738","439738","NA","810","study_X","0","14285","1","yes","1680"
"undefined","undefined","14285","14285","black","no","legacy","legacy","legacy","0","red","(179, 0, 0)","shape","absent","highProb","circular","swap","same","same","same","red","(179, 0, 0)","highProbShape","highProbShape","circular","uniform","1","undefined","0.166666666667","1","1","234.234375","1","32","44973","0","0","0","0","0","0","0","0","58","0","1","0.166666666667","234.234375","32","44973","58","58","58","08/21/17 11:21:29","Default description","yes","<openexp._canvas.legacy.legacy object at 0x048527F0>","<openexp._canvas.legacy.legacy object at 0x0485E7B0>","<openexp._canvas.legacy.legacy object at 0x04847510>","<openexp._canvas.legacy.legacy object at 0x0493F9D0>","<openexp._canvas.legacy.legacy object at 0x049114B0>","<openexp._canvas.legacy.legacy object at 0x0485E9D0>","<openexp._canvas.legacy.legacy object at 0x04912BD0>","75","IndividualPriorityWithDis_v1.osexp","C:/Userdata/Michel/SpatialProb/IndividualPriorityMaps/Experiment2","no","mono","no","18","no","white","no","yes","0.09","98","1050","legacy","315","33","33","1","C:/Userdata/Michel/SpatialProb/IndividualPriorityMaps/Experiment2/data/subject-10.csv","legacy","9","192","25","Jazzy James","3.1.3","yes","598477b2b83f69022949e7e9","47","red","circular","red","circular","0","/","1028","space","14285","14285","(80, 80, 80)","(0, 122, 0)","(179, 0, 0)","(155, 155, 155)","2","legacy","experiment","[1, 2, 3, 4, 5, 6, 7, 0]","/","2500","3000","0","8","252.758751519","1024","2","48000","-16","main","[(0, -252), (178, -178), (252, 0), (178, 178), (0, 252), (-178, 178), (-252, 0), (-178, -178)]","[]","10","even","5","306863","351882","351882","199872","198865","1580","227365","227365","1580","1580","214157","444227","1579","351882","443197","442381","442381","NA","810","study_X","0","14285","1","yes","1680"
"undefined","undefined","14285","14285","black","no","legacy","legacy","legacy","0","green","(0, 122, 0)","shape","present","highProb","circular","swap","same","swap","swap","green","(0, 122, 0)","lowProb","lowProb6","rectangular","uniform","1","undefined","0.171875","1","1","243.307291667","1","33","46715","0","0","0","0","0","0","0","0","59","0","1","0.171875","243.307291667","33","46715","59","59","59","08/21/17 11:21:29","Default description","yes","<openexp._canvas.legacy.legacy object at 0x048527F0>","<openexp._canvas.legacy.legacy object at 0x0485E7B0>","<openexp._canvas.legacy.legacy object at 0x04847510>","<openexp._canvas.legacy.legacy object at 0x0493F9D0>","<openexp._canvas.legacy.legacy object at 0x049114B0>","<openexp._canvas.legacy.legacy object at 0x04847930>","<openexp._canvas.legacy.legacy object at 0x04912BD0>","75","IndividualPriorityWithDis_v1.osexp","C:/Userdata/Michel/SpatialProb/IndividualPriorityMaps/Experiment2","no","mono","no","18","no","white","no","yes","0.09","98","1050","legacy","45","34","34","1","C:/Userdata/Michel/SpatialProb/IndividualPriorityMaps/Experiment2/data/subject-10.csv","legacy","9","192","25","Jazzy James","3.1.3","yes","598477b2b83f69022949e7e9","47","green","circular","green","rectangular","0","\","1742","space","14285","14285","(80, 80, 80)","(0, 122, 0)","(179, 0, 0)","(155, 155, 155)","2","legacy","experiment","[1, 2, 3, 4, 5, 6, 7, 0]","\","2500","3000","0","8","252.758751519","1024","2","48000","-16","main","[(0, -252), (178, -178), (252, 0), (178, 178), (0, 252), (-178, 178), (-252, 0), (-178, -178)]","[]","10","even","0","306863","351882","351882","199872","198865","1580","227365","227365","1580","1580","214157","447203","1579","351882","445458","444642","444642","NA","810","study_X","0","14285","1","yes","1680"
"undefined","undefined","14285","14285","black","no","legacy","legacy","legacy","0","green","(0, 122, 0)","shape","present","highProb","rectangular","same","swap","same","swap","green","(0, 122, 0)","lowProb","lowProb5","circular","uniform","1","undefined","0.177083333333","1","1","247.510416667","1","34","47522","0","0","0","0","0","0","0","0","60","0","1","0.177083333333","247.510416667","34","47522","60","60","60","08/21/17 11:21:29","Default description","yes","<openexp._canvas.legacy.legacy object at 0x048527F0>","<openexp._canvas.legacy.legacy object at 0x0485E7B0>","<openexp._canvas.legacy.legacy object at 0x04847510>","<openexp._canvas.legacy.legacy object at 0x0493F9D0>","<openexp._canvas.legacy.legacy object at 0x049114B0>","<openexp._canvas.legacy.legacy object at 0x048479B0>","<openexp._canvas.legacy.legacy object at 0x04912BD0>","75","IndividualPriorityWithDis_v1.osexp","C:/Userdata/Michel/SpatialProb/IndividualPriorityMaps/Experiment2","no","mono","no","18","no","white","no","yes","0.09","98","1050","legacy","45","35","35","1","C:/Userdata/Michel/SpatialProb/IndividualPriorityMaps/Experiment2/data/subject-10.csv","legacy","9","192","25","Jazzy James","3.1.3","yes","598477b2b83f69022949e7e9","47","green","rectangular","green","circular","0","\","807","space","14285","14285","(80, 80, 80)","(0, 122, 0)","(179, 0, 0)","(155, 155, 155)","2","legacy","experiment","[1, 2, 3, 4, 5, 6, 7, 0]","\","2500","3000","0","8","252.758751519","1024","2","48000","-16","main","[(0, -252), (178, -178), (252, 0), (178, 178), (0, 252), (-178, 178), (-252, 0), (-178, -178)]","[]","10","even","7","306863","351882","351882","199872","198865","1580","227365","227365","1580","1580","214157","449260","1579","351882","448451","447635","447635","NA","810","study_X","0","14285","1","yes","1680"
"undefined","undefined","14285","14285","black","no","legacy","legacy","legacy","0","red","(179, 0, 0)","color","absent","lowProb5","circular","swap","swap","swap","same","red","(179, 0, 0)","highProbShape","highProbShape","circular","uniform","1","undefined","0.182291666667","1","1","256.171875","1","35","49185","0","0","0","0","0","0","0","0","61","0","1","0.182291666667","256.171875","35","49185","61","61","61","08/21/17 11:21:29","Default description","yes","<openexp._canvas.legacy.legacy object at 0x048527F0>","<openexp._canvas.legacy.legacy object at 0x0485E7B0>","<openexp._canvas.legacy.legacy object at 0x04847510>","<openexp._canvas.legacy.legacy object at 0x0493F9D0>","<openexp._canvas.legacy.legacy object at 0x049114B0>","<openexp._canvas.legacy.legacy object at 0x0484F190>","<openexp._canvas.legacy.legacy object at 0x04912BD0>","75","IndividualPriorityWithDis_v1.osexp","C:/Userdata/Michel/SpatialProb/IndividualPriorityMaps/Experiment2","no","mono","no","18","no","white","no","yes","0.09","98","1050","legacy","45","36","36","1","C:/Userdata/Michel/SpatialProb/IndividualPriorityMaps/Experiment2/data/subject-10.csv","legacy","9","192","25","Jazzy James","3.1.3","yes","598477b2b83f69022949e7e9","47","red","circular","red","circular","0","\","1663","space","14285","14285","(80, 80, 80)","(0, 122, 0)","(179, 0, 0)","(155, 155, 155)","2","legacy","experiment","[1, 2, 3, 4, 5, 6, 7, 0]","\","2500","3000","0","8","252.758751519","1024","2","48000","-16","main","[(0, -252), (178, -178), (252, 0), (178, 178), (0, 252), (-178, 178), (-252, 0), (-178, -178)]","[]","10","even","5","306863","351882","351882","199872","198865","1580","227365","227365","1580","1580","214157","452236","1579","351882","450570","449754","449754","NA","810","study_X","0","14285","1","yes","1680"
"undefined","undefined","14285","14285","black","no","legacy","legacy","legacy","0","green","(0, 122, 0)","shape","present","highProb","rectangular","swap","swap","swap","same","green","(0, 122, 0)","lowProb","lowProb6","circular","uniform","1","undefined","0.1875","1","1","262.890625","1","36","50475","0","0","0","0","0","0","0","0","62","0","1","0.1875","262.890625","36","50475","62","62","62","08/21/17 11:21:29","Default description","yes","<openexp._canvas.legacy.legacy object at 0x048527F0>","<openexp._canvas.legacy.legacy object at 0x0485E7B0>","<openexp._canvas.legacy.legacy object at 0x04847510>","<openexp._canvas.legacy.legacy object at 0x0493F9D0>","<openexp._canvas.legacy.legacy object at 0x049114B0>","<openexp._canvas.legacy.legacy object at 0x04861310>","<openexp._canvas.legacy.legacy object at 0x04912BD0>","75","IndividualPriorityWithDis_v1.osexp","C:/Userdata/Michel/SpatialProb/IndividualPriorityMaps/Experiment2","no","mono","no","18","no","white","no","yes","0.09","98","1050","legacy","315","37","37","1","C:/Userdata/Michel/SpatialProb/IndividualPriorityMaps/Experiment2/data/subject-10.csv","legacy","9","192","25","Jazzy James","3.1.3","yes","598477b2b83f69022949e7e9","47","green","rectangular","green","circular","0","/","1290","space","14285","14285","(80, 80, 80)","(0, 122, 0)","(179, 0, 0)","(155, 155, 155)","2","legacy","experiment","[1, 2, 3, 4, 5, 6, 7, 0]","/","2500","3000","0","8","252.758751519","1024","2","48000","-16","main","[(0, -252), (178, -178), (252, 0), (178, 178), (0, 252), (-178, 178), (-252, 0), (-178, -178)]","[]","10","even","0","306863","351882","351882","199872","198865","1580","227365","227365","1580","1580","214157","454772","1579","351882","453478","452663","452663","NA","810","study_X","0","14285","1","yes","1680"
"undefined","undefined","14285","14285","black","no","legacy","legacy","legacy","0","green","(0, 122, 0)","shape","present","highProb","circular","same","swap","same","swap","green","(0, 122, 0)","lowProb","lowProb6","rectangular","uniform","1","undefined","0.192708333333","1","1","270.354166667","1","37","51908","0","0","0","0","0","0","0","0","63","0","1","0.192708333333","270.354166667","37","51908","63","63","63","08/21/17 11:21:29","Default description","yes","<openexp._canvas.legacy.legacy object at 0x048527F0>","<openexp._canvas.legacy.legacy object at 0x0485E7B0>","<openexp._canvas.legacy.legacy object at 0x04847510>","<openexp._canvas.legacy.legacy object at 0x0493F9D0>","<openexp._canvas.legacy.legacy object at 0x049114B0>","<openexp._canvas.legacy.legacy object at 0x0485E130>","<openexp._canvas.legacy.legacy object at 0x04912BD0>","75","IndividualPriorityWithDis_v1.osexp","C:/Userdata/Michel/SpatialProb/IndividualPriorityMaps/Experiment2","no","mono","no","18","no","white","no","yes","0.09","98","1050","legacy","315","38","38","1","C:/Userdata/Michel/SpatialProb/IndividualPriorityMaps/Experiment2/data/subject-10.csv","legacy","9","192","25","Jazzy James","3.1.3","yes","598477b2b83f69022949e7e9","47","green","circular","green","rectangular","0","/","1433","space","14285","14285","(80, 80, 80)","(0, 122, 0)","(179, 0, 0)","(155, 155, 155)","2","legacy","experiment","[1, 2, 3, 4, 5, 6, 7, 0]","/","2500","3000","0","8","252.758751519","1024","2","48000","-16","main","[(0, -252), (178, -178), (252, 0), (178, 178), (0, 252), (-178, 178), (-252, 0), (-178, -178)]","[]","10","even","0","306863","351882","351882","199872","198865","1580","227365","227365","1580","1580","214157","457444","1579","351882","456007","455191","455191","NA","810","study_X","0","14285","1","yes","1680"
"undefined","undefined","14285","14285","black","no","legacy","legacy","legacy","0","red","(179, 0, 0)","shape","present","lowProb2","rectangular","swap","swap","swap","swap","red","(179, 0, 0)","highProbColor","highProbColor","circular","uniform","1","undefined","0.197916666667","1","1","275.765625","1","38","52947","0","0","0","0","0","0","0","0","64","0","1","0.197916666667","275.765625","38","52947","64","64","64","08/21/17 11:21:29","Default description","yes","<openexp._canvas.legacy.legacy object at 0x048527F0>","<openexp._canvas.legacy.legacy object at 0x0485E7B0>","<openexp._canvas.legacy.legacy object at 0x04847510>","<openexp._canvas.legacy.legacy object at 0x0493F9D0>","<openexp._canvas.legacy.legacy object at 0x049114B0>","<openexp._canvas.legacy.legacy object at 0x04868DB0>","<openexp._canvas.legacy.legacy object at 0x04912BD0>","75","IndividualPriorityWithDis_v1.osexp","C:/Userdata/Michel/SpatialProb/IndividualPriorityMaps/Experiment2","no","mono","no","18","no","white","no","yes","0.09","98","1050","legacy","315","39","39","1","C:/Userdata/Michel/SpatialProb/IndividualPriorityMaps/Experiment2/data/subject-10.csv","legacy","9","192","25","Jazzy James","3.1.3","yes","598477b2b83f69022949e7e9","47","red","rectangular","red","circular","0","/","1039","space","14285","14285","(80, 80, 80)","(0, 122, 0)","(179, 0, 0)","(155, 155, 155)","2","legacy","experiment","[1, 2, 3, 4, 5, 6, 7, 0]","/","2500","3000","0","8","252.758751519","1024","2","48000","-16","main","[(0, -252), (178, -178), (252, 0), (178, 178), (0, 252), (-178, 178), (-252, 0), (-178, -178)]","[]","10","even","1","306863","351882","351882","199872","198865","1580","227365","227365","1580","1580","214157","459731","1579","351882","458689","457873","457873","NA","810","study_X","0","14285","1","yes","1680"
"undefined","undefined","14285","14285","black","no","legacy","legacy","legacy","0","red","(179, 0, 0)","shape","present","lowProb4","rectangular","same","same","same","same","red","(179, 0, 0)","lowProb","lowProb1","circular","uniform","0","undefined","0.197916666667","1","1","288.786458333","1","38","55447","0","0","0","0","0","0","0","0","65","0","1","0.197916666667","288.786458333","38","55447","65","65","65","08/21/17 11:21:29","Default description","yes","<openexp._canvas.legacy.legacy object at 0x048527F0>","<openexp._canvas.legacy.legacy object at 0x0485E7B0>","<openexp._canvas.legacy.legacy object at 0x04847510>","<openexp._canvas.legacy.legacy object at 0x0493F9D0>","<openexp._canvas.legacy.legacy object at 0x049114B0>","<openexp._canvas.legacy.legacy object at 0x0484EBD0>","<openexp._canvas.legacy.legacy object at 0x04912BD0>","75","IndividualPriorityWithDis_v1.osexp","C:/Userdata/Michel/SpatialProb/IndividualPriorityMaps/Experiment2","no","mono","no","18","no","white","no","yes","0.09","98","1050","legacy","315","40","40","1","C:/Userdata/Michel/SpatialProb/IndividualPriorityMaps/Experiment2/data/subject-10.csv","legacy","9","192","25","Jazzy James","3.1.3","yes","598477b2b83f69022949e7e9","47","red","rectangular","red","circular","0","None","2500","space","14285","14285","(80, 80, 80)","(0, 122, 0)","(179, 0, 0)","(155, 155, 155)","2","legacy","experiment","[1, 2, 3, 4, 5, 6, 7, 0]","/","2500","3000","0","8","252.758751519","1024","2","48000","-16","main","[(0, -252), (178, -178), (252, 0), (178, 178), (0, 252), (-178, 178), (-252, 0), (-178, -178)]","[]","10","even","2","306863","351882","351882","199872","198865","1580","227365","227365","1580","1580","214157","463470","1579","351882","460967","460151","460151","NA","810","study_X","0","14285","1","yes","1680"
"undefined","undefined","14285","14285","black","no","legacy","legacy","legacy","0","green","(0, 122, 0)","shape","present","highProb","circular","swap","swap","swap","swap","green","(0, 122, 0)","lowProb","lowProb4","rectangular","uniform","1","undefined","0.203125","1","1","296.5625","1","39","56940","0","0","0","0","0","0","0","0","66","0","1","0.203125","296.5625","39","56940","66","66","66","08/21/17 11:21:29","Default description","yes","<openexp._canvas.legacy.legacy object at 0x048527F0>","<openexp._canvas.legacy.legacy object at 0x0485E7B0>","<openexp._canvas.legacy.legacy object at 0x04847510>","<openexp._canvas.legacy.legacy object at 0x0493F9D0>","<openexp._canvas.legacy.legacy object at 0x049114B0>","<openexp._canvas.legacy.legacy object at 0x04868FD0>","<openexp._canvas.legacy.legacy object at 0x04912BD0>","75","IndividualPriorityWithDis_v1.osexp","C:/Userdata/Michel/SpatialProb/IndividualPriorityMaps/Experiment2","no","mono","no","18","no","white","no","yes","0.09","98","1050","legacy","315","41","41","1","C:/Userdata/Michel/SpatialProb/IndividualPriorityMaps/Experiment2/data/subject-10.csv","legacy","9","192","25","Jazzy James","3.1.3","yes","598477b2b83f69022949e7e9","47","green","circular","green","rectangular","0","/","1493","space","14285","14285","(80, 80, 80)","(0, 122, 0)","(179, 0, 0)","(155, 155, 155)","2","legacy","experiment","[1, 2, 3, 4, 5, 6, 7, 0]","/","2500","3000","0","8","252.758751519","1024","2","48000","-16","main","[(0, -252), (178, -178), (252, 0), (178, 178), (0, 252), (-178, 178), (-252, 0), (-178, -178)]","[]","10","even","6","306863","351882","351882","199872","198865","1580","227365","227365","1580","1580","214157","466204","1579","351882","464709","463894","463894","NA","810","study_X","0","14285","1","yes","1680"
"undefined","undefined","14285","14285","black","no","legacy","legacy","legacy","0","green","(0, 122, 0)","color","present","lowProb2","rectangular","same","swap","swap","same","red","(179, 0, 0)","lowProb","lowProb4","rectangular","uniform","1","undefined","0.208333333333","1","1","304.421875","1","40","58449","0","0","0","0","0","0","0","0","67","0","1","0.208333333333","304.421875","40","58449","67","67","67","08/21/17 11:21:29","Default description","yes","<openexp._canvas.legacy.legacy object at 0x048527F0>","<openexp._canvas.legacy.legacy object at 0x0485E7B0>","<openexp._canvas.legacy.legacy object at 0x04847510>","<openexp._canvas.legacy.legacy object at 0x0493F9D0>","<openexp._canvas.legacy.legacy object at 0x049114B0>","<openexp._canvas.legacy.legacy object at 0x04847390>","<openexp._canvas.legacy.legacy object at 0x04912BD0>","75","IndividualPriorityWithDis_v1.osexp","C:/Userdata/Michel/SpatialProb/IndividualPriorityMaps/Experiment2","no","mono","no","18","no","white","no","yes","0.09","98","1050","legacy","315","42","42","1","C:/Userdata/Michel/SpatialProb/IndividualPriorityMaps/Experiment2/data/subject-10.csv","legacy","9","192","25","Jazzy James","3.1.3","yes","598477b2b83f69022949e7e9","47","green","rectangular","red","rectangular","0","/","1509","space","14285","14285","(80, 80, 80)","(0, 122, 0)","(179, 0, 0)","(155, 155, 155)","2","legacy","experiment","[1, 2, 3, 4, 5, 6, 7, 0]","/","2500","3000","0","8","252.758751519","1024","2","48000","-16","main","[(0, -252), (178, -178), (252, 0), (178, 178), (0, 252), (-178, 178), (-252, 0), (-178, -178)]","[]","10","even","6","306863","351882","351882","199872","198865","1580","227365","227365","1580","1580","214157","468948","1579","351882","467437","466621","466621","NA","810","study_X","0","14285","1","yes","1680"
"undefined","undefined","14285","14285","black","no","legacy","legacy","legacy","0","red","(179, 0, 0)","shape","absent","lowProb1","rectangular","swap","same","same","same","red","(179, 0, 0)","lowProb","lowProb4","rectangular","uniform","1","undefined","0.213541666667","1","1","308.296875","1","41","59193","0","0","0","0","0","0","0","0","68","0","1","0.213541666667","308.296875","41","59193","68","68","68","08/21/17 11:21:29","Default description","yes","<openexp._canvas.legacy.legacy object at 0x048527F0>","<openexp._canvas.legacy.legacy object at 0x0485E7B0>","<openexp._canvas.legacy.legacy object at 0x04847510>","<openexp._canvas.legacy.legacy object at 0x0493F9D0>","<openexp._canvas.legacy.legacy object at 0x049114B0>","<openexp._canvas.legacy.legacy object at 0x04945E30>","<openexp._canvas.legacy.legacy object at 0x04912BD0>","75","IndividualPriorityWithDis_v1.osexp","C:/Userdata/Michel/SpatialProb/IndividualPriorityMaps/Experiment2","no","mono","no","18","no","white","no","yes","0.09","98","1050","legacy","315","43","43","1","C:/Userdata/Michel/SpatialProb/IndividualPriorityMaps/Experiment2/data/subject-10.csv","legacy","9","192","25","Jazzy James","3.1.3","yes","598477b2b83f69022949e7e9","47","red","rectangular","red","rectangular","0","/","744","space","14285","14285","(80, 80, 80)","(0, 122, 0)","(179, 0, 0)","(155, 155, 155)","2","legacy","experiment","[1, 2, 3, 4, 5, 6, 7, 0]","/","2500","3000","0","8","252.758751519","1024","2","48000","-16","main","[(0, -252), (178, -178), (252, 0), (178, 178), (0, 252), (-178, 178), (-252, 0), (-178, -178)]","[]","10","even","6","306863","351882","351882","199872","198865","1580","227365","227365","1580","1580","214157","470924","1579","351882","470176","469360","469361","NA","810","study_X","0","14285","1","yes","1680"
"undefined","undefined","14285","14285","black","no","legacy","legacy","legacy","0","green","(0, 122, 0)","color","present","highProb","circular","swap","swap","same","swap","red","(179, 0, 0)","lowProb","lowProb2","circular","uniform","0","undefined","0.213541666667","1","1","318.729166667","1","41","61196","0","0","0","0","0","0","0","0","69","0","1","0.213541666667","318.729166667","41","61196","69","69","69","08/21/17 11:21:29","Default description","yes","<openexp._canvas.legacy.legacy object at 0x048527F0>","<openexp._canvas.legacy.legacy object at 0x0485E7B0>","<openexp._canvas.legacy.legacy object at 0x04847510>","<openexp._canvas.legacy.legacy object at 0x0493F9D0>","<openexp._canvas.legacy.legacy object at 0x049114B0>","<openexp._canvas.legacy.legacy object at 0x04859630>","<openexp._canvas.legacy.legacy object at 0x04912BD0>","75","IndividualPriorityWithDis_v1.osexp","C:/Userdata/Michel/SpatialProb/IndividualPriorityMaps/Experiment2","no","mono","no","18","no","white","no","yes","0.09","98","1050","legacy","45","44","44","1","C:/Userdata/Michel/SpatialProb/IndividualPriorityMaps/Experiment2/data/subject-10.csv","legacy","9","192","25","Jazzy James","3.1.3","yes","598477b2b83f69022949e7e9","47","green","circular","red","circular","0","/","2003","space","14285","14285","(80, 80, 80)","(0, 122, 0)","(179, 0, 0)","(155, 155, 155)","2","legacy","experiment","[1, 2, 3, 4, 5, 6, 7, 0]","\","2500","3000","0","8","252.758751519","1024","2","48000","-16","main","[(0, -252), (178, -178), (252, 0), (178, 178), (0, 252), (-178, 178), (-252, 0), (-178, -178)]","[]","10","even","3","306863","351882","351882","199872","198865","1580","227365","227365","1580","1580","214157","474172","1579","351882","472165","471349","471349","NA","810","study_X","0","14285","1","yes","1680"
"undefined","undefined","14285","14285","black","no","legacy","legacy","legacy","0","green","(0, 122, 0)","color","present","highProb","circular","same","same","same","same","red","(179, 0, 0)","lowProb","lowProb4","circular","uniform","1","undefined","0.21875","1","1","323.40625","1","42","62094","0","0","0","0","0","0","0","0","70","0","1","0.21875","323.40625","42","62094","70","70","70","08/21/17 11:21:29","Default description","yes","<openexp._canvas.legacy.legacy object at 0x048527F0>","<openexp._canvas.legacy.legacy object at 0x0485E7B0>","<openexp._canvas.legacy.legacy object at 0x04847510>","<openexp._canvas.legacy.legacy object at 0x0493F9D0>","<openexp._canvas.legacy.legacy object at 0x049114B0>","<openexp._canvas.legacy.legacy object at 0x049452D0>","<openexp._canvas.legacy.legacy object at 0x04912BD0>","75","IndividualPriorityWithDis_v1.osexp","C:/Userdata/Michel/SpatialProb/IndividualPriorityMaps/Experiment2","no","mono","no","18","no","white","no","yes","0.09","98","1050","legacy","315","45","45","1","C:/Userdata/Michel/SpatialProb/IndividualPriorityMaps/Experiment2/data/subject-10.csv","legacy","9","192","25","Jazzy James","3.1.3","yes","598477b2b83f69022949e7e9","47","green","circular","red","circular","0","/","898","space","14285","14285","(80, 80, 80)","(0, 122, 0)","(179, 0, 0)","(155, 155, 155)","2","legacy","experiment","[1, 2, 3, 4, 5, 6, 7, 0]","/","2500","3000","0","8","252.758751519","1024","2","48000","-16","main","[(0, -252), (178, -178), (252, 0), (178, 178), (0, 252), (-178, 178), (-252, 0), (-178, -178)]","[]","10","even","6","306863","351882","351882","199872","198865","1580","227365","227365","1580","1580","214157","476315","1579","351882","475414","474598","474598","NA","810","study_X","0","14285","1","yes","1680"
"undefined","undefined","14285","14285","black","no","legacy","legacy","legacy","0","red","(179, 0, 0)","shape","present","highProb","circular","swap","same","same","swap","red","(179, 0, 0)","lowProb","lowProb3","rectangular","uniform","1","undefined","0.223958333333","1","1","333.59375","1","43","64050","0","0","0","0","0","0","0","0","71","0","1","0.223958333333","333.59375","43","64050","71","71","71","08/21/17 11:21:29","Default description","yes","<openexp._canvas.legacy.legacy object at 0x048527F0>","<openexp._canvas.legacy.legacy object at 0x0485E7B0>","<openexp._canvas.legacy.legacy object at 0x04847510>","<openexp._canvas.legacy.legacy object at 0x0493F9D0>","<openexp._canvas.legacy.legacy object at 0x049114B0>","<openexp._canvas.legacy.legacy object at 0x0484F910>","<openexp._canvas.legacy.legacy object at 0x04912BD0>","75","IndividualPriorityWithDis_v1.osexp","C:/Userdata/Michel/SpatialProb/IndividualPriorityMaps/Experiment2","no","mono","no","18","no","white","no","yes","0.09","98","1050","legacy","45","46","46","1","C:/Userdata/Michel/SpatialProb/IndividualPriorityMaps/Experiment2/data/subject-10.csv","legacy","9","192","25","Jazzy James","3.1.3","yes","598477b2b83f69022949e7e9","47","red","circular","red","rectangular","0","\","1956","space","14285","14285","(80, 80, 80)","(0, 122, 0)","(179, 0, 0)","(155, 155, 155)","2","legacy","experiment","[1, 2, 3, 4, 5, 6, 7, 0]","\","2500","3000","0","8","252.758751519","1024","2","48000","-16","main","[(0, -252), (178, -178), (252, 0), (178, 178), (0, 252), (-178, 178), (-252, 0), (-178, -178)]","[]","10","even","4","306863","351882","351882","199872","198865","1580","227365","227365","1580","1580","214157","479507","1579","351882","477549","476734","476734","NA","810","study_X","0","14285","1","yes","1680"
"undefined","undefined","14285","14285","black","no","legacy","legacy","legacy","0","green","(0, 122, 0)","shape","present","lowProb1","circular","swap","same","swap","same","green","(0, 122, 0)","lowProb","lowProb2","rectangular","uniform","1","undefined","0.229166666667","1","1","345.192708333","1","44","66277","0","0","0","0","0","0","0","0","72","0","1","0.229166666667","345.192708333","44","66277","72","72","72","08/21/17 11:21:29","Default description","yes","<openexp._canvas.legacy.legacy object at 0x048527F0>","<openexp._canvas.legacy.legacy object at 0x0485E7B0>","<openexp._canvas.legacy.legacy object at 0x04847510>","<openexp._canvas.legacy.legacy object at 0x0493F9D0>","<openexp._canvas.legacy.legacy object at 0x049114B0>","<openexp._canvas.legacy.legacy object at 0x0484E090>","<openexp._canvas.legacy.legacy object at 0x04912BD0>","75","IndividualPriorityWithDis_v1.osexp","C:/Userdata/Michel/SpatialProb/IndividualPriorityMaps/Experiment2","no","mono","no","18","no","white","no","yes","0.09","98","1050","legacy","45","47","47","1","C:/Userdata/Michel/SpatialProb/IndividualPriorityMaps/Experiment2/data/subject-10.csv","legacy","9","192","25","Jazzy James","3.1.3","yes","598477b2b83f69022949e7e9","47","green","circular","green","rectangular","0","\","2227","space","14285","14285","(80, 80, 80)","(0, 122, 0)","(179, 0, 0)","(155, 155, 155)","2","legacy","experiment","[1, 2, 3, 4, 5, 6, 7, 0]","\","2500","3000","0","8","252.758751519","1024","2","48000","-16","main","[(0, -252), (178, -178), (252, 0), (178, 178), (0, 252), (-178, 178), (-252, 0), (-178, -178)]","[]","10","even","3","306863","351882","351882","199872","198865","1580","227365","227365","1580","1580","214157","482972","1579","351882","480742","479927","479927","NA","810","study_X","0","14285","1","yes","1680"
"undefined","undefined","14285","14285","black","no","legacy","legacy","legacy","0","red","(179, 0, 0)","color","present","highProb","rectangular","swap","swap","same","same","green","(0, 122, 0)","lowProb","lowProb3","rectangular","uniform","1","undefined","0.234375","1","1","349.770833333","1","45","67156","0","0","0","0","0","0","0","0","73","0","1","0.234375","349.770833333","45","67156","73","73","73","08/21/17 11:21:29","Default description","yes","<openexp._canvas.legacy.legacy object at 0x048527F0>","<openexp._canvas.legacy.legacy object at 0x0485E7B0>","<openexp._canvas.legacy.legacy object at 0x04847510>","<openexp._canvas.legacy.legacy object at 0x0493F9D0>","<openexp._canvas.legacy.legacy object at 0x049114B0>","<openexp._canvas.legacy.legacy object at 0x0484E5B0>","<openexp._canvas.legacy.legacy object at 0x04912BD0>","75","IndividualPriorityWithDis_v1.osexp","C:/Userdata/Michel/SpatialProb/IndividualPriorityMaps/Experiment2","no","mono","no","18","no","white","no","yes","0.09","98","1050","legacy","315","48","48","1","C:/Userdata/Michel/SpatialProb/IndividualPriorityMaps/Experiment2/data/subject-10.csv","legacy","9","192","25","Jazzy James","3.1.3","yes","598477b2b83f69022949e7e9","47","red","rectangular","green","rectangular","0","/","879","space","14285","14285","(80, 80, 80)","(0, 122, 0)","(179, 0, 0)","(155, 155, 155)","2","legacy","experiment","[1, 2, 3, 4, 5, 6, 7, 0]","/","2500","3000","0","8","252.758751519","1024","2","48000","-16","main","[(0, -252), (178, -178), (252, 0), (178, 178), (0, 252), (-178, 178), (-252, 0), (-178, -178)]","[]","10","even","4","306863","351882","351882","199872","198865","1580","227365","227365","1580","1580","214157","485084","1579","351882","484202","483386","483386","NA","810","study_X","0","14285","1","yes","1680"
"undefined","undefined","14285","14285","black","no","legacy","legacy","legacy","0","green","(0, 122, 0)","color","present","lowProb1","circular","swap","swap","swap","swap","red","(179, 0, 0)","highProbShape","highProbShape","circular","uniform","1","undefined","0.239583333333","1","1","355.640625","1","46","68283","0","0","0","0","0","0","0","0","74","0","1","0.239583333333","355.640625","46","68283","74","74","74","08/21/17 11:21:29","Default description","yes","<openexp._canvas.legacy.legacy object at 0x048527F0>","<openexp._canvas.legacy.legacy object at 0x0485E7B0>","<openexp._canvas.legacy.legacy object at 0x04847510>","<openexp._canvas.legacy.legacy object at 0x0493F9D0>","<openexp._canvas.legacy.legacy object at 0x049114B0>","<openexp._canvas.legacy.legacy object at 0x04863130>","<openexp._canvas.legacy.legacy object at 0x04912BD0>","75","IndividualPriorityWithDis_v1.osexp","C:/Userdata/Michel/SpatialProb/IndividualPriorityMaps/Experiment2","no","mono","no","18","no","white","no","yes","0.09","98","1050","legacy","315","49","49","1","C:/Userdata/Michel/SpatialProb/IndividualPriorityMaps/Experiment2/data/subject-10.csv","legacy","9","192","25","Jazzy James","3.1.3","yes","598477b2b83f69022949e7e9","47","green","circular","red","circular","0","/","1127","space","14285","14285","(80, 80, 80)","(0, 122, 0)","(179, 0, 0)","(155, 155, 155)","2","legacy","experiment","[1, 2, 3, 4, 5, 6, 7, 0]","/","2500","3000","0","8","252.758751519","1024","2","48000","-16","main","[(0, -252), (178, -178), (252, 0), (178, 178), (0, 252), (-178, 178), (-252, 0), (-178, -178)]","[]","10","even","5","306863","351882","351882","199872","198865","1580","227365","227365","1580","1580","214157","487476","1579","351882","486345","485529","485530","NA","810","study_X","0","14285","1","yes","1680"
"undefined","undefined","14285","14285","black","no","legacy","legacy","legacy","0","red","(179, 0, 0)","color","present","highProb","rectangular","swap","swap","swap","swap","green","(0, 122, 0)","lowProb","lowProb6","rectangular","uniform","1","undefined","0.244791666667","1","1","362.697916667","1","47","69638","0","0","0","0","0","0","0","0","75","0","1","0.244791666667","362.697916667","47","69638","75","75","75","08/21/17 11:21:29","Default description","yes","<openexp._canvas.legacy.legacy object at 0x048527F0>","<openexp._canvas.legacy.legacy object at 0x0485E7B0>","<openexp._canvas.legacy.legacy object at 0x04847510>","<openexp._canvas.legacy.legacy object at 0x0493F9D0>","<openexp._canvas.legacy.legacy object at 0x049114B0>","<openexp._canvas.legacy.legacy object at 0x04854F90>","<openexp._canvas.legacy.legacy object at 0x04912BD0>","75","IndividualPriorityWithDis_v1.osexp","C:/Userdata/Michel/SpatialProb/IndividualPriorityMaps/Experiment2","no","mono","no","18","no","white","no","yes","0.09","98","1050","legacy","315","50","50","1","C:/Userdata/Michel/SpatialProb/IndividualPriorityMaps/Experiment2/data/subject-10.csv","legacy","9","192","25","Jazzy James","3.1.3","yes","598477b2b83f69022949e7e9","47","red","rectangular","green","rectangular","0","/","1355","space","14285","14285","(80, 80, 80)","(0, 122, 0)","(179, 0, 0)","(155, 155, 155)","2","legacy","experiment","[1, 2, 3, 4, 5, 6, 7, 0]","/","2500","3000","0","8","252.758751519","1024","2","48000","-16","main","[(0, -252), (178, -178), (252, 0), (178, 178), (0, 252), (-178, 178), (-252, 0), (-178, -178)]","[]","10","even","0","306863","351882","351882","199872","198865","1580","227365","227365","1580","1580","214157","490092","1579","351882","488733","487917","487917","NA","810","study_X","0","14285","1","yes","1680"
"undefined","undefined","14285","14285","black","no","legacy","legacy","legacy","0","green","(0, 122, 0)","shape","present","highProb","rectangular","swap","same","same","swap","green","(0, 122, 0)","lowProb","lowProb1","circular","uniform","1","undefined","0.25","1","1","373.390625","1","48","71691","0","0","0","0","0","0","0","0","76","0","1","0.25","373.390625","48","71691","76","76","76","08/21/17 11:21:29","Default description","yes","<openexp._canvas.legacy.legacy object at 0x048527F0>","<openexp._canvas.legacy.legacy object at 0x0485E7B0>","<openexp._canvas.legacy.legacy object at 0x04847510>","<openexp._canvas.legacy.legacy object at 0x0493F9D0>","<openexp._canvas.legacy.legacy object at 0x049114B0>","<openexp._canvas.legacy.legacy object at 0x0484E850>","<openexp._canvas.legacy.legacy object at 0x04912BD0>","75","IndividualPriorityWithDis_v1.osexp","C:/Userdata/Michel/SpatialProb/IndividualPriorityMaps/Experiment2","no","mono","no","18","no","white","no","yes","0.09","98","1050","legacy","45","51","51","1","C:/Userdata/Michel/SpatialProb/IndividualPriorityMaps/Experiment2/data/subject-10.csv","legacy","9","192","25","Jazzy James","3.1.3","yes","598477b2b83f69022949e7e9","47","green","rectangular","green","circular","0","\","2053","space","14285","14285","(80, 80, 80)","(0, 122, 0)","(179, 0, 0)","(155, 155, 155)","2","legacy","experiment","[1, 2, 3, 4, 5, 6, 7, 0]","\","2500","3000","0","8","252.758751519","1024","2","48000","-16","main","[(0, -252), (178, -178), (252, 0), (178, 178), (0, 252), (-178, 178), (-252, 0), (-178, -178)]","[]","10","even","2","306863","351882","351882","199872","198865","1580","227365","227365","1580","1580","214157","493387","1579","351882","491331","490515","490515","NA","810","study_X","0","14285","1","yes","1680"
"undefined","undefined","14285","14285","black","no","legacy","legacy","legacy","0","green","(0, 122, 0)","color","present","highProb","rectangular","same","same","swap","swap","red","(179, 0, 0)","lowProb","lowProb5","rectangular","uniform","1","undefined","0.255208333333","1","1","379.4375","1","49","72852","0","0","0","0","0","0","0","0","77","0","1","0.255208333333","379.4375","49","72852","77","77","77","08/21/17 11:21:29","Default description","yes","<openexp._canvas.legacy.legacy object at 0x048527F0>","<openexp._canvas.legacy.legacy object at 0x0485E7B0>","<openexp._canvas.legacy.legacy object at 0x04847510>","<openexp._canvas.legacy.legacy object at 0x0493F9D0>","<openexp._canvas.legacy.legacy object at 0x049114B0>","<openexp._canvas.legacy.legacy object at 0x048684B0>","<openexp._canvas.legacy.legacy object at 0x04912BD0>","75","IndividualPriorityWithDis_v1.osexp","C:/Userdata/Michel/SpatialProb/IndividualPriorityMaps/Experiment2","no","mono","no","18","no","white","no","yes","0.09","98","1050","legacy","45","52","52","1","C:/Userdata/Michel/SpatialProb/IndividualPriorityMaps/Experiment2/data/subject-10.csv","legacy","9","192","25","Jazzy James","3.1.3","yes","598477b2b83f69022949e7e9","47","green","rectangular","red","rectangular","0","\","1161","space","14285","14285","(80, 80, 80)","(0, 122, 0)","(179, 0, 0)","(155, 155, 155)","2","legacy","experiment","[1, 2, 3, 4, 5, 6, 7, 0]","\","2500","3000","0","8","252.758751519","1024","2","48000","-16","main","[(0, -252), (178, -178), (252, 0), (178, 178), (0, 252), (-178, 178), (-252, 0), (-178, -178)]","[]","10","even","7","306863","351882","351882","199872","198865","1580","227365","227365","1580","1580","214157","495787","1579","351882","494623","493807","493807","NA","810","study_X","0","14285","1","yes","1680"
"undefined","undefined","14285","14285","black","no","legacy","legacy","legacy","0","green","(0, 122, 0)","color","present","highProb","rectangular","same","same","same","same","red","(179, 0, 0)","lowProb","lowProb2","rectangular","uniform","1","undefined","0.260416666667","1","1","390.317708333","1","50","74941","0","0","0","0","0","0","0","0","78","0","1","0.260416666667","390.317708333","50","74941","78","78","78","08/21/17 11:21:29","Default description","yes","<openexp._canvas.legacy.legacy object at 0x048527F0>","<openexp._canvas.legacy.legacy object at 0x0485E7B0>","<openexp._canvas.legacy.legacy object at 0x04847510>","<openexp._canvas.legacy.legacy object at 0x0493F9D0>","<openexp._canvas.legacy.legacy object at 0x049114B0>","<openexp._canvas.legacy.legacy object at 0x0485E930>","<openexp._canvas.legacy.legacy object at 0x04912BD0>","75","IndividualPriorityWithDis_v1.osexp","C:/Userdata/Michel/SpatialProb/IndividualPriorityMaps/Experiment2","no","mono","no","18","no","white","no","yes","0.09","98","1050","legacy","315","53","53","1","C:/Userdata/Michel/SpatialProb/IndividualPriorityMaps/Experiment2/data/subject-10.csv","legacy","9","192","25","Jazzy James","3.1.3","yes","598477b2b83f69022949e7e9","47","green","rectangular","red","rectangular","0","/","2089","space","14285","14285","(80, 80, 80)","(0, 122, 0)","(179, 0, 0)","(155, 155, 155)","2","legacy","experiment","[1, 2, 3, 4, 5, 6, 7, 0]","/","2500","3000","0","8","252.758751519","1024","2","48000","-16","main","[(0, -252), (178, -178), (252, 0), (178, 178), (0, 252), (-178, 178), (-252, 0), (-178, -178)]","[]","10","even","3","306863","351882","351882","199872","198865","1580","227365","227365","1580","1580","214157","499107","1579","351882","497016","496200","496201","NA","810","study_X","0","14285","1","yes","1680"
