acc,accuracy,answerQ1,answerQ2,answerQ3,average_response_time,avg_rt,background,bidi,canvas_backend,clock_backend,color_backend,compensation,cond_disColor,cond_disColorRGB,cond_disFeature,cond_disPresent,cond_disProbability,cond_disShape,cond_primingDisColor,cond_primingDisShape,cond_primingTarColor,cond_primingTarShape,cond_tarColor,cond_tarColorRGB,cond_tarLocation,cond_tarLocationLong,cond_tarShape,coordinates,correct,correct_continuePress,count_Questions,count_blockAcc,count_blockFeed,count_blockLoop,count_blockRT,count_blockSeq,count_blockSumCorrect,count_blockSumRT,count_continuePress,count_example,count_expSettings,count_exp_mainLoop,count_experiment,count_instructions,count_instructions1,count_instructions2,count_log,count_main,count_prepCanvas,count_totalAcc,count_totalRT,count_totalSumCorrect,count_totalSumRT,count_trialResp,count_trialSeq,count_trialTask,datetime,description,disable_garbage_collection,dispBlank,dispBlockStart,dispFeedBlock,dispFix,dispInstructions,dispQuestions,dispSearch,dispStartScreen,distance2screen,experiment_file,experiment_path,font_bold,font_family,font_italic,font_size,font_underline,foreground,form_clicks,fullscreen,gaborFreq,gaborSize,height,keyboard_backend,lineOriTar,live_row,live_row_blockLoop,live_row_exp_mainLoop,logfile,mouse_backend,noExpBlocks,noExpTrials,noPracTrials,opensesame_codename,opensesame_version,osf_always_upload_experiment,osf_id,physical_screensize,previousDisColor,previousDisShape,previousTarColor,previousTarShape,repeat_cycle,response,responseTime,response_continuePress,response_time,response_time_continuePress,rgb_gray,rgb_green,rgb_red,rgb_white,round_decimals,sampler_backend,set_blockType,set_counterPositions,set_respCorrect,set_respTimeoutExp,set_respTimeoutPrac,set_rotation,set_setSize,sizeImaginary,sound_buf_size,sound_channels,sound_freq,sound_sample_size,start,stimPositions,stimuli,subject_nr,subject_parity,tarIdx,time_Questions,time_blockFeed,time_blockLoop,time_blockSeq,time_continuePress,time_example,time_expSettings,time_exp_mainLoop,time_experiment,time_instructions,time_instructions1,time_instructions2,time_log,time_main,time_prepCanvas,time_trialResp,time_trialSeq,time_trialTask,timing_EEGwait,timing_fix,title,total_correct,total_response_time,total_responses,uniform_coordinates,width
undefined,undefined,NA,NA,NA,4701,4701,black,no,legacy,legacy,legacy,0,green,"(0, 123, 0)",shape,present,highProbOther,rectangular,same,swap,same,swap,green,"(0, 123, 0)",highProbShape,highProbShape,circular,uniform,0,undefined,0,0,1,1,6.625,1,0,1272,0,0,0,0,0,0,0,0,26,0,1,0,6.625,0,1272,25,25,25,11/22/2018 14:25,Default description,yes,<openexp._canvas.legacy.Legacy object at 0x0527C7F0>,<openexp._canvas.legacy.Legacy object at 0x052EF6D0>,<openexp._canvas.legacy.Legacy object at 0x0531DB70>,<openexp._canvas.legacy.Legacy object at 0x0510A930>,<openexp._canvas.legacy.Legacy object at 0x050FA190>,<openexp._canvas.legacy.Legacy object at 0x05270290>,<openexp._canvas.legacy.Legacy object at 0x052EF670>,<openexp._canvas.legacy.Legacy object at 0x050FA3B0>,75,SpatProbMultiple3.osexp,C:/Userdata/Michel/SpatProbMultiple3,no,mono,no,18,no,white,no,yes,0.09,98,1050,legacy,45,0,0,1,C:/Userdata/Michel/SpatProbMultiple3/beh/subject-4.csv,legacy,9,192,25,Kafkaesque Koffka,3.2.5,yes,598477b2b83f69022949e7e9,47,green,rectangular,green,circular,0,/,1272,space,4701,4701,"(80, 80, 80)","(0, 123, 0)","(177, 0, 0)","(155, 155, 155)",2,legacy,experiment,"[3, 4, 5, 6, 7, 0, 1, 2]",\,2500,3000,0,8,252.7587515,1024,2,48000,-16,main,"[(0, -252), (178, -178), (252, 0), (178, 178), (0, 252), (-178, 178), (-252, 0), (-178, -178)]",[],28,even,7,NA,112297,224198,224198,20834,19825,1974,26634,26634,1974,1975,25536,231983,1972,224198,230706,224617,224617,NA,921,study_X,0,4701,1,yes,1680
undefined,undefined,NA,NA,NA,4701,4701,black,no,legacy,legacy,legacy,0,green,"(0, 123, 0)",color,present,lowProb6,rectangular,same,same,swap,swap,red,"(177, 0, 0)",highProbShape,highProbShape,rectangular,uniform,0,undefined,0,0,1,1,16.13541667,1,0,3098,0,0,0,0,0,0,0,0,27,0,1,0,16.13541667,0,3098,26,26,26,11/22/2018 14:25,Default description,yes,<openexp._canvas.legacy.Legacy object at 0x0527C7F0>,<openexp._canvas.legacy.Legacy object at 0x052EF6D0>,<openexp._canvas.legacy.Legacy object at 0x0531DB70>,<openexp._canvas.legacy.Legacy object at 0x0510A930>,<openexp._canvas.legacy.Legacy object at 0x050FA190>,<openexp._canvas.legacy.Legacy object at 0x05270290>,<openexp._canvas.legacy.Legacy object at 0x05287D10>,<openexp._canvas.legacy.Legacy object at 0x050FA3B0>,75,SpatProbMultiple3.osexp,C:/Userdata/Michel/SpatProbMultiple3,no,mono,no,18,no,white,no,yes,0.09,98,1050,legacy,315,1,1,1,C:/Userdata/Michel/SpatProbMultiple3/beh/subject-4.csv,legacy,9,192,25,Kafkaesque Koffka,3.2.5,yes,598477b2b83f69022949e7e9,47,green,rectangular,red,rectangular,0,\,1826,space,4701,4701,"(80, 80, 80)","(0, 123, 0)","(177, 0, 0)","(155, 155, 155)",2,legacy,experiment,"[3, 4, 5, 6, 7, 0, 1, 2]",/,2500,3000,0,8,252.7587515,1024,2,48000,-16,main,"[(0, -252), (178, -178), (252, 0), (178, 178), (0, 252), (-178, 178), (-252, 0), (-178, -178)]",[],28,even,7,NA,112297,224198,224198,20834,19825,1974,26634,26634,1974,1975,25536,235230,1972,224198,233401,232470,232470,NA,921,study_X,0,4701,1,yes,1680
undefined,undefined,NA,NA,NA,4701,4701,black,no,legacy,legacy,legacy,0,green,"(0, 123, 0)",shape,present,highProb,rectangular,same,same,swap,swap,green,"(0, 123, 0)",lowProb,lowProb5,circular,uniform,1,undefined,0,0.005208333,1,1,26.640625,1,1,5115,0,0,0,0,0,0,0,0,28,0,1,0.005208333,26.640625,1,5115,27,27,27,11/22/2018 14:25,Default description,yes,<openexp._canvas.legacy.Legacy object at 0x0527C7F0>,<openexp._canvas.legacy.Legacy object at 0x052EF6D0>,<openexp._canvas.legacy.Legacy object at 0x0531DB70>,<openexp._canvas.legacy.Legacy object at 0x0510A930>,<openexp._canvas.legacy.Legacy object at 0x050FA190>,<openexp._canvas.legacy.Legacy object at 0x05270290>,<openexp._canvas.legacy.Legacy object at 0x052877D0>,<openexp._canvas.legacy.Legacy object at 0x050FA3B0>,75,SpatProbMultiple3.osexp,C:/Userdata/Michel/SpatProbMultiple3,no,mono,no,18,no,white,no,yes,0.09,98,1050,legacy,45,2,2,1,C:/Userdata/Michel/SpatProbMultiple3/beh/subject-4.csv,legacy,9,192,25,Kafkaesque Koffka,3.2.5,yes,598477b2b83f69022949e7e9,47,green,rectangular,green,circular,0,\,2017,space,4701,4701,"(80, 80, 80)","(0, 123, 0)","(177, 0, 0)","(155, 155, 155)",2,legacy,experiment,"[3, 4, 5, 6, 7, 0, 1, 2]",\,2500,3000,0,8,252.7587515,1024,2,48000,-16,main,"[(0, -252), (178, -178), (252, 0), (178, 178), (0, 252), (-178, 178), (-252, 0), (-178, -178)]",[],28,even,1,NA,112297,224198,224198,20834,19825,1974,26634,26634,1974,1975,25536,238630,1972,224198,236610,235679,235679,NA,921,study_X,0,4701,1,yes,1680
undefined,undefined,NA,NA,NA,4701,4701,black,no,legacy,legacy,legacy,0,red,"(177, 0, 0)",color,present,highProb,rectangular,swap,same,same,swap,green,"(0, 123, 0)",lowProb,lowProb2,rectangular,uniform,1,undefined,0,0.010416667,1,1,39.1875,1,2,7524,0,0,0,0,0,0,0,0,29,0,1,0.010416667,39.1875,2,7524,28,28,28,11/22/2018 14:25,Default description,yes,<openexp._canvas.legacy.Legacy object at 0x0527C7F0>,<openexp._canvas.legacy.Legacy object at 0x052EF6D0>,<openexp._canvas.legacy.Legacy object at 0x0531DB70>,<openexp._canvas.legacy.Legacy object at 0x0510A930>,<openexp._canvas.legacy.Legacy object at 0x050FA190>,<openexp._canvas.legacy.Legacy object at 0x05270290>,<openexp._canvas.legacy.Legacy object at 0x0527CEB0>,<openexp._canvas.legacy.Legacy object at 0x050FA3B0>,75,SpatProbMultiple3.osexp,C:/Userdata/Michel/SpatProbMultiple3,no,mono,no,18,no,white,no,yes,0.09,98,1050,legacy,315,3,3,1,C:/Userdata/Michel/SpatProbMultiple3/beh/subject-4.csv,legacy,9,192,25,Kafkaesque Koffka,3.2.5,yes,598477b2b83f69022949e7e9,47,red,rectangular,green,rectangular,0,/,2409,space,4701,4701,"(80, 80, 80)","(0, 123, 0)","(177, 0, 0)","(155, 155, 155)",2,legacy,experiment,"[3, 4, 5, 6, 7, 0, 1, 2]",/,2500,3000,0,8,252.7587515,1024,2,48000,-16,main,"[(0, -252), (178, -178), (252, 0), (178, 178), (0, 252), (-178, 178), (-252, 0), (-178, -178)]",[],28,even,5,NA,112297,224198,224198,20834,19825,1974,26634,26634,1974,1975,25536,242414,1972,224198,240002,239071,239071,NA,921,study_X,0,4701,1,yes,1680
undefined,undefined,NA,NA,NA,4701,4701,black,no,legacy,legacy,legacy,0,red,"(177, 0, 0)",color,absent,lowProb2,circular,same,swap,swap,swap,red,"(177, 0, 0)",lowProb,lowProb4,circular,uniform,0,undefined,0,0.010416667,1,1,45.76041667,1,2,8786,0,0,0,0,0,0,0,0,30,0,1,0.010416667,45.76041667,2,8786,29,29,29,11/22/2018 14:25,Default description,yes,<openexp._canvas.legacy.Legacy object at 0x0527C7F0>,<openexp._canvas.legacy.Legacy object at 0x052EF6D0>,<openexp._canvas.legacy.Legacy object at 0x0531DB70>,<openexp._canvas.legacy.Legacy object at 0x0510A930>,<openexp._canvas.legacy.Legacy object at 0x050FA190>,<openexp._canvas.legacy.Legacy object at 0x05270290>,<openexp._canvas.legacy.Legacy object at 0x0510AAB0>,<openexp._canvas.legacy.Legacy object at 0x050FA3B0>,75,SpatProbMultiple3.osexp,C:/Userdata/Michel/SpatProbMultiple3,no,mono,no,18,no,white,no,yes,0.09,98,1050,legacy,315,4,4,1,C:/Userdata/Michel/SpatProbMultiple3/beh/subject-4.csv,legacy,9,192,25,Kafkaesque Koffka,3.2.5,yes,598477b2b83f69022949e7e9,47,red,circular,red,circular,0,\,1262,space,4701,4701,"(80, 80, 80)","(0, 123, 0)","(177, 0, 0)","(155, 155, 155)",2,legacy,experiment,"[3, 4, 5, 6, 7, 0, 1, 2]",/,2500,3000,0,8,252.7587515,1024,2,48000,-16,main,"[(0, -252), (178, -178), (252, 0), (178, 178), (0, 252), (-178, 178), (-252, 0), (-178, -178)]",[],28,even,0,NA,112297,224198,224198,20834,19825,1974,26634,26634,1974,1975,25536,245079,1972,224198,243813,242882,242882,NA,921,study_X,0,4701,1,yes,1680
undefined,undefined,NA,NA,NA,4701,4701,black,no,legacy,legacy,legacy,0,green,"(0, 123, 0)",shape,present,highProb,circular,swap,same,swap,swap,green,"(0, 123, 0)",lowProb,lowProb5,rectangular,uniform,1,undefined,0,0.015625,1,1,54.97395833,1,3,10555,0,0,0,0,0,0,0,0,31,0,1,0.015625,54.97395833,3,10555,30,30,30,11/22/2018 14:25,Default description,yes,<openexp._canvas.legacy.Legacy object at 0x0527C7F0>,<openexp._canvas.legacy.Legacy object at 0x052EF6D0>,<openexp._canvas.legacy.Legacy object at 0x0531DB70>,<openexp._canvas.legacy.Legacy object at 0x0510A930>,<openexp._canvas.legacy.Legacy object at 0x050FA190>,<openexp._canvas.legacy.Legacy object at 0x05270290>,<openexp._canvas.legacy.Legacy object at 0x0531D750>,<openexp._canvas.legacy.Legacy object at 0x050FA3B0>,75,SpatProbMultiple3.osexp,C:/Userdata/Michel/SpatProbMultiple3,no,mono,no,18,no,white,no,yes,0.09,98,1050,legacy,315,5,5,1,C:/Userdata/Michel/SpatProbMultiple3/beh/subject-4.csv,legacy,9,192,25,Kafkaesque Koffka,3.2.5,yes,598477b2b83f69022949e7e9,47,green,circular,green,rectangular,0,/,1769,space,4701,4701,"(80, 80, 80)","(0, 123, 0)","(177, 0, 0)","(155, 155, 155)",2,legacy,experiment,"[3, 4, 5, 6, 7, 0, 1, 2]",/,2500,3000,0,8,252.7587515,1024,2,48000,-16,main,"[(0, -252), (178, -178), (252, 0), (178, 178), (0, 252), (-178, 178), (-252, 0), (-178, -178)]",[],28,even,1,NA,112297,224198,224198,20834,19825,1974,26634,26634,1974,1975,25536,248215,1972,224198,246442,245511,245511,NA,921,study_X,0,4701,1,yes,1680
undefined,undefined,NA,NA,NA,4701,4701,black,no,legacy,legacy,legacy,0,red,"(177, 0, 0)",shape,present,lowProb5,rectangular,swap,swap,swap,swap,red,"(177, 0, 0)",highProbColor,highProbColor,circular,uniform,1,undefined,0,0.020833333,1,1,65.375,1,4,12552,0,0,0,0,0,0,0,0,32,0,1,0.020833333,65.375,4,12552,31,31,31,11/22/2018 14:25,Default description,yes,<openexp._canvas.legacy.Legacy object at 0x0527C7F0>,<openexp._canvas.legacy.Legacy object at 0x052EF6D0>,<openexp._canvas.legacy.Legacy object at 0x0531DB70>,<openexp._canvas.legacy.Legacy object at 0x0510A930>,<openexp._canvas.legacy.Legacy object at 0x050FA190>,<openexp._canvas.legacy.Legacy object at 0x05270290>,<openexp._canvas.legacy.Legacy object at 0x0527CF90>,<openexp._canvas.legacy.Legacy object at 0x050FA3B0>,75,SpatProbMultiple3.osexp,C:/Userdata/Michel/SpatProbMultiple3,no,mono,no,18,no,white,no,yes,0.09,98,1050,legacy,315,6,6,1,C:/Userdata/Michel/SpatProbMultiple3/beh/subject-4.csv,legacy,9,192,25,Kafkaesque Koffka,3.2.5,yes,598477b2b83f69022949e7e9,47,red,rectangular,red,circular,0,/,1997,space,4701,4701,"(80, 80, 80)","(0, 123, 0)","(177, 0, 0)","(155, 155, 155)",2,legacy,experiment,"[3, 4, 5, 6, 7, 0, 1, 2]",/,2500,3000,0,8,252.7587515,1024,2,48000,-16,main,"[(0, -252), (178, -178), (252, 0), (178, 178), (0, 252), (-178, 178), (-252, 0), (-178, -178)]",[],28,even,3,NA,112297,224198,224198,20834,19825,1974,26634,26634,1974,1975,25536,251590,1972,224198,249590,248659,248659,NA,921,study_X,0,4701,1,yes,1680
undefined,undefined,NA,NA,NA,4701,4701,black,no,legacy,legacy,legacy,0,green,"(0, 123, 0)",shape,present,highProb,circular,swap,swap,swap,swap,green,"(0, 123, 0)",lowProb,lowProb6,rectangular,uniform,0,undefined,0,0.020833333,1,1,78.02604167,1,4,14981,0,0,0,0,0,0,0,0,33,0,1,0.020833333,78.02604167,4,14981,32,32,32,11/22/2018 14:25,Default description,yes,<openexp._canvas.legacy.Legacy object at 0x0527C7F0>,<openexp._canvas.legacy.Legacy object at 0x052EF6D0>,<openexp._canvas.legacy.Legacy object at 0x0531DB70>,<openexp._canvas.legacy.Legacy object at 0x0510A930>,<openexp._canvas.legacy.Legacy object at 0x050FA190>,<openexp._canvas.legacy.Legacy object at 0x05270290>,<openexp._canvas.legacy.Legacy object at 0x05287AD0>,<openexp._canvas.legacy.Legacy object at 0x050FA3B0>,75,SpatProbMultiple3.osexp,C:/Userdata/Michel/SpatProbMultiple3,no,mono,no,18,no,white,no,yes,0.09,98,1050,legacy,315,7,7,1,C:/Userdata/Michel/SpatProbMultiple3/beh/subject-4.csv,legacy,9,192,25,Kafkaesque Koffka,3.2.5,yes,598477b2b83f69022949e7e9,47,green,circular,green,rectangular,0,\,2429,space,4701,4701,"(80, 80, 80)","(0, 123, 0)","(177, 0, 0)","(155, 155, 155)",2,legacy,experiment,"[3, 4, 5, 6, 7, 0, 1, 2]",/,2500,3000,0,8,252.7587515,1024,2,48000,-16,main,"[(0, -252), (178, -178), (252, 0), (178, 178), (0, 252), (-178, 178), (-252, 0), (-178, -178)]",[],28,even,2,NA,112297,224198,224198,20834,19825,1974,26634,26634,1974,1975,25536,255398,1972,224198,252966,252034,252034,NA,921,study_X,0,4701,1,yes,1680
undefined,undefined,NA,NA,NA,4701,4701,black,no,legacy,legacy,legacy,0,green,"(0, 123, 0)",shape,present,highProb,circular,same,same,same,same,green,"(0, 123, 0)",lowProb,lowProb3,rectangular,uniform,1,undefined,0,0.026041667,1,1,89.33333333,1,5,17152,0,0,0,0,0,0,0,0,34,0,1,0.026041667,89.33333333,5,17152,33,33,33,11/22/2018 14:25,Default description,yes,<openexp._canvas.legacy.Legacy object at 0x0527C7F0>,<openexp._canvas.legacy.Legacy object at 0x052EF6D0>,<openexp._canvas.legacy.Legacy object at 0x0531DB70>,<openexp._canvas.legacy.Legacy object at 0x0510A930>,<openexp._canvas.legacy.Legacy object at 0x050FA190>,<openexp._canvas.legacy.Legacy object at 0x05270290>,<openexp._canvas.legacy.Legacy object at 0x0531D7F0>,<openexp._canvas.legacy.Legacy object at 0x050FA3B0>,75,SpatProbMultiple3.osexp,C:/Userdata/Michel/SpatProbMultiple3,no,mono,no,18,no,white,no,yes,0.09,98,1050,legacy,315,8,8,1,C:/Userdata/Michel/SpatProbMultiple3/beh/subject-4.csv,legacy,9,192,25,Kafkaesque Koffka,3.2.5,yes,598477b2b83f69022949e7e9,47,green,circular,green,rectangular,0,/,2171,space,4701,4701,"(80, 80, 80)","(0, 123, 0)","(177, 0, 0)","(155, 155, 155)",2,legacy,experiment,"[3, 4, 5, 6, 7, 0, 1, 2]",/,2500,3000,0,8,252.7587515,1024,2,48000,-16,main,"[(0, -252), (178, -178), (252, 0), (178, 178), (0, 252), (-178, 178), (-252, 0), (-178, -178)]",[],28,even,6,NA,112297,224198,224198,20834,19825,1974,26634,26634,1974,1975,25536,258942,1972,224198,256768,255837,255837,NA,921,study_X,0,4701,1,yes,1680
undefined,undefined,NA,NA,NA,4701,4701,black,no,legacy,legacy,legacy,0,red,"(177, 0, 0)",color,absent,lowProb5,circular,swap,same,swap,swap,red,"(177, 0, 0)",highProbColor,highProbColor,circular,uniform,1,undefined,0,0.03125,1,1,96.84375,1,6,18594,0,0,0,0,0,0,0,0,35,0,1,0.03125,96.84375,6,18594,34,34,34,11/22/2018 14:25,Default description,yes,<openexp._canvas.legacy.Legacy object at 0x0527C7F0>,<openexp._canvas.legacy.Legacy object at 0x052EF6D0>,<openexp._canvas.legacy.Legacy object at 0x0531DB70>,<openexp._canvas.legacy.Legacy object at 0x0510A930>,<openexp._canvas.legacy.Legacy object at 0x050FA190>,<openexp._canvas.legacy.Legacy object at 0x05270290>,<openexp._canvas.legacy.Legacy object at 0x0527CFF0>,<openexp._canvas.legacy.Legacy object at 0x050FA3B0>,75,SpatProbMultiple3.osexp,C:/Userdata/Michel/SpatProbMultiple3,no,mono,no,18,no,white,no,yes,0.09,98,1050,legacy,315,9,9,1,C:/Userdata/Michel/SpatProbMultiple3/beh/subject-4.csv,legacy,9,192,25,Kafkaesque Koffka,3.2.5,yes,598477b2b83f69022949e7e9,47,red,circular,red,circular,0,/,1442,space,4701,4701,"(80, 80, 80)","(0, 123, 0)","(177, 0, 0)","(155, 155, 155)",2,legacy,experiment,"[3, 4, 5, 6, 7, 0, 1, 2]",/,2500,3000,0,8,252.7587515,1024,2,48000,-16,main,"[(0, -252), (178, -178), (252, 0), (178, 178), (0, 252), (-178, 178), (-252, 0), (-178, -178)]",[],28,even,3,NA,112297,224198,224198,20834,19825,1974,26634,26634,1974,1975,25536,261790,1972,224198,260344,259413,259413,NA,921,study_X,0,4701,1,yes,1680
undefined,undefined,NA,NA,NA,4701,4701,black,no,legacy,legacy,legacy,0,red,"(177, 0, 0)",shape,present,highProb,circular,same,same,same,swap,red,"(177, 0, 0)",lowProb,lowProb4,rectangular,uniform,0,undefined,0,0.03125,1,1,109.8645833,1,6,21094,0,0,0,0,0,0,0,0,36,0,1,0.03125,109.8645833,6,21094,35,35,35,11/22/2018 14:25,Default description,yes,<openexp._canvas.legacy.Legacy object at 0x0527C7F0>,<openexp._canvas.legacy.Legacy object at 0x052EF6D0>,<openexp._canvas.legacy.Legacy object at 0x0531DB70>,<openexp._canvas.legacy.Legacy object at 0x0510A930>,<openexp._canvas.legacy.Legacy object at 0x050FA190>,<openexp._canvas.legacy.Legacy object at 0x05270290>,<openexp._canvas.legacy.Legacy object at 0x052F38F0>,<openexp._canvas.legacy.Legacy object at 0x050FA3B0>,75,SpatProbMultiple3.osexp,C:/Userdata/Michel/SpatProbMultiple3,no,mono,no,18,no,white,no,yes,0.09,98,1050,legacy,315,10,10,1,C:/Userdata/Michel/SpatProbMultiple3/beh/subject-4.csv,legacy,9,192,25,Kafkaesque Koffka,3.2.5,yes,598477b2b83f69022949e7e9,47,red,circular,red,rectangular,0,None,2500,space,4701,4701,"(80, 80, 80)","(0, 123, 0)","(177, 0, 0)","(155, 155, 155)",2,legacy,experiment,"[3, 4, 5, 6, 7, 0, 1, 2]",/,2500,3000,0,8,252.7587515,1024,2,48000,-16,main,"[(0, -252), (178, -178), (252, 0), (178, 178), (0, 252), (-178, 178), (-252, 0), (-178, -178)]",[],28,even,0,NA,112297,224198,224198,20834,19825,1974,26634,26634,1974,1975,25536,265686,1972,224198,263184,262255,262255,NA,921,study_X,0,4701,1,yes,1680
undefined,undefined,NA,NA,NA,4701,4701,black,no,legacy,legacy,legacy,0,red,"(177, 0, 0)",color,absent,lowProb6,circular,same,same,same,swap,red,"(177, 0, 0)",lowProb,lowProb2,circular,uniform,1,undefined,0,0.036458333,1,1,115.9375,1,7,22260,0,0,0,0,0,0,0,0,37,0,1,0.036458333,115.9375,7,22260,36,36,36,11/22/2018 14:25,Default description,yes,<openexp._canvas.legacy.Legacy object at 0x0527C7F0>,<openexp._canvas.legacy.Legacy object at 0x052EF6D0>,<openexp._canvas.legacy.Legacy object at 0x0531DB70>,<openexp._canvas.legacy.Legacy object at 0x0510A930>,<openexp._canvas.legacy.Legacy object at 0x050FA190>,<openexp._canvas.legacy.Legacy object at 0x05270290>,<openexp._canvas.legacy.Legacy object at 0x0531D990>,<openexp._canvas.legacy.Legacy object at 0x050FA3B0>,75,SpatProbMultiple3.osexp,C:/Userdata/Michel/SpatProbMultiple3,no,mono,no,18,no,white,no,yes,0.09,98,1050,legacy,315,11,11,1,C:/Userdata/Michel/SpatProbMultiple3/beh/subject-4.csv,legacy,9,192,25,Kafkaesque Koffka,3.2.5,yes,598477b2b83f69022949e7e9,47,red,circular,red,circular,0,/,1166,space,4701,4701,"(80, 80, 80)","(0, 123, 0)","(177, 0, 0)","(155, 155, 155)",2,legacy,experiment,"[3, 4, 5, 6, 7, 0, 1, 2]",/,2500,3000,0,8,252.7587515,1024,2,48000,-16,main,"[(0, -252), (178, -178), (252, 0), (178, 178), (0, 252), (-178, 178), (-252, 0), (-178, -178)]",[],28,even,5,NA,112297,224198,224198,20834,19825,1974,26634,26634,1974,1975,25536,268230,1972,224198,267061,266130,266130,NA,921,study_X,0,4701,1,yes,1680
undefined,undefined,NA,NA,NA,4701,4701,black,no,legacy,legacy,legacy,0,green,"(0, 123, 0)",shape,present,lowProb4,rectangular,swap,swap,swap,same,green,"(0, 123, 0)",lowProb,lowProb1,circular,uniform,1,undefined,0,0.041666667,1,1,125.3177083,1,8,24061,0,0,0,0,0,0,0,0,38,0,1,0.041666667,125.3177083,8,24061,37,37,37,11/22/2018 14:25,Default description,yes,<openexp._canvas.legacy.Legacy object at 0x0527C7F0>,<openexp._canvas.legacy.Legacy object at 0x052EF6D0>,<openexp._canvas.legacy.Legacy object at 0x0531DB70>,<openexp._canvas.legacy.Legacy object at 0x0510A930>,<openexp._canvas.legacy.Legacy object at 0x050FA190>,<openexp._canvas.legacy.Legacy object at 0x05270290>,<openexp._canvas.legacy.Legacy object at 0x052931F0>,<openexp._canvas.legacy.Legacy object at 0x050FA3B0>,75,SpatProbMultiple3.osexp,C:/Userdata/Michel/SpatProbMultiple3,no,mono,no,18,no,white,no,yes,0.09,98,1050,legacy,315,12,12,1,C:/Userdata/Michel/SpatProbMultiple3/beh/subject-4.csv,legacy,9,192,25,Kafkaesque Koffka,3.2.5,yes,598477b2b83f69022949e7e9,47,green,rectangular,green,circular,0,/,1801,space,4701,4701,"(80, 80, 80)","(0, 123, 0)","(177, 0, 0)","(155, 155, 155)",2,legacy,experiment,"[3, 4, 5, 6, 7, 0, 1, 2]",/,2500,3000,0,8,252.7587515,1024,2,48000,-16,main,"[(0, -252), (178, -178), (252, 0), (178, 178), (0, 252), (-178, 178), (-252, 0), (-178, -178)]",[],28,even,4,NA,112297,224198,224198,20834,19825,1974,26634,26634,1974,1975,25536,271406,1972,224198,269603,268673,268673,NA,921,study_X,0,4701,1,yes,1680
undefined,undefined,NA,NA,NA,4701,4701,black,no,legacy,legacy,legacy,0,red,"(177, 0, 0)",color,present,highProb,rectangular,swap,same,same,swap,green,"(0, 123, 0)",lowProb,lowProb1,rectangular,uniform,1,undefined,0,0.046875,1,1,130.5104167,1,9,25058,0,0,0,0,0,0,0,0,39,0,1,0.046875,130.5104167,9,25058,38,38,38,11/22/2018 14:25,Default description,yes,<openexp._canvas.legacy.Legacy object at 0x0527C7F0>,<openexp._canvas.legacy.Legacy object at 0x052EF6D0>,<openexp._canvas.legacy.Legacy object at 0x0531DB70>,<openexp._canvas.legacy.Legacy object at 0x0510A930>,<openexp._canvas.legacy.Legacy object at 0x050FA190>,<openexp._canvas.legacy.Legacy object at 0x05270290>,<openexp._canvas.legacy.Legacy object at 0x05287050>,<openexp._canvas.legacy.Legacy object at 0x050FA3B0>,75,SpatProbMultiple3.osexp,C:/Userdata/Michel/SpatProbMultiple3,no,mono,no,18,no,white,no,yes,0.09,98,1050,legacy,45,13,13,1,C:/Userdata/Michel/SpatProbMultiple3/beh/subject-4.csv,legacy,9,192,25,Kafkaesque Koffka,3.2.5,yes,598477b2b83f69022949e7e9,47,red,rectangular,green,rectangular,0,\,997,space,4701,4701,"(80, 80, 80)","(0, 123, 0)","(177, 0, 0)","(155, 155, 155)",2,legacy,experiment,"[3, 4, 5, 6, 7, 0, 1, 2]",\,2500,3000,0,8,252.7587515,1024,2,48000,-16,main,"[(0, -252), (178, -178), (252, 0), (178, 178), (0, 252), (-178, 178), (-252, 0), (-178, -178)]",[],28,even,4,NA,112297,224198,224198,20834,19825,1974,26634,26634,1974,1975,25536,273790,1972,224198,272789,271858,271858,NA,921,study_X,0,4701,1,yes,1680
undefined,undefined,NA,NA,NA,4701,4701,black,no,legacy,legacy,legacy,0,green,"(0, 123, 0)",color,present,highProb,circular,swap,swap,swap,swap,red,"(177, 0, 0)",highProbShape,highProbShape,circular,uniform,1,undefined,0,0.052083333,1,1,137.0885417,1,10,26321,0,0,0,0,0,0,0,0,40,0,1,0.052083333,137.0885417,10,26321,39,39,39,11/22/2018 14:25,Default description,yes,<openexp._canvas.legacy.Legacy object at 0x0527C7F0>,<openexp._canvas.legacy.Legacy object at 0x052EF6D0>,<openexp._canvas.legacy.Legacy object at 0x0531DB70>,<openexp._canvas.legacy.Legacy object at 0x0510A930>,<openexp._canvas.legacy.Legacy object at 0x050FA190>,<openexp._canvas.legacy.Legacy object at 0x05270290>,<openexp._canvas.legacy.Legacy object at 0x0531D250>,<openexp._canvas.legacy.Legacy object at 0x050FA3B0>,75,SpatProbMultiple3.osexp,C:/Userdata/Michel/SpatProbMultiple3,no,mono,no,18,no,white,no,yes,0.09,98,1050,legacy,45,14,14,1,C:/Userdata/Michel/SpatProbMultiple3/beh/subject-4.csv,legacy,9,192,25,Kafkaesque Koffka,3.2.5,yes,598477b2b83f69022949e7e9,47,green,circular,red,circular,0,\,1263,space,4701,4701,"(80, 80, 80)","(0, 123, 0)","(177, 0, 0)","(155, 155, 155)",2,legacy,experiment,"[3, 4, 5, 6, 7, 0, 1, 2]",\,2500,3000,0,8,252.7587515,1024,2,48000,-16,main,"[(0, -252), (178, -178), (252, 0), (178, 178), (0, 252), (-178, 178), (-252, 0), (-178, -178)]",[],28,even,7,NA,112297,224198,224198,20834,19825,1974,26634,26634,1974,1975,25536,276438,1972,224198,275171,274240,274240,NA,921,study_X,0,4701,1,yes,1680
undefined,undefined,NA,NA,NA,4701,4701,black,no,legacy,legacy,legacy,0,green,"(0, 123, 0)",shape,present,highProb,rectangular,same,swap,swap,same,green,"(0, 123, 0)",lowProb,lowProb6,circular,uniform,1,undefined,0,0.057291667,1,1,143.6302083,1,11,27577,0,0,0,0,0,0,0,0,41,0,1,0.057291667,143.6302083,11,27577,40,40,40,11/22/2018 14:25,Default description,yes,<openexp._canvas.legacy.Legacy object at 0x0527C7F0>,<openexp._canvas.legacy.Legacy object at 0x052EF6D0>,<openexp._canvas.legacy.Legacy object at 0x0531DB70>,<openexp._canvas.legacy.Legacy object at 0x0510A930>,<openexp._canvas.legacy.Legacy object at 0x050FA190>,<openexp._canvas.legacy.Legacy object at 0x05270290>,<openexp._canvas.legacy.Legacy object at 0x0510AF90>,<openexp._canvas.legacy.Legacy object at 0x050FA3B0>,75,SpatProbMultiple3.osexp,C:/Userdata/Michel/SpatProbMultiple3,no,mono,no,18,no,white,no,yes,0.09,98,1050,legacy,315,15,15,1,C:/Userdata/Michel/SpatProbMultiple3/beh/subject-4.csv,legacy,9,192,25,Kafkaesque Koffka,3.2.5,yes,598477b2b83f69022949e7e9,47,green,rectangular,green,circular,0,/,1256,space,4701,4701,"(80, 80, 80)","(0, 123, 0)","(177, 0, 0)","(155, 155, 155)",2,legacy,experiment,"[3, 4, 5, 6, 7, 0, 1, 2]",/,2500,3000,0,8,252.7587515,1024,2,48000,-16,main,"[(0, -252), (178, -178), (252, 0), (178, 178), (0, 252), (-178, 178), (-252, 0), (-178, -178)]",[],28,even,2,NA,112297,224198,224198,20834,19825,1974,26634,26634,1974,1975,25536,279102,1972,224198,277842,276911,276911,NA,921,study_X,0,4701,1,yes,1680
undefined,undefined,NA,NA,NA,4701,4701,black,no,legacy,legacy,legacy,0,red,"(177, 0, 0)",color,present,lowProb6,circular,swap,swap,same,same,green,"(0, 123, 0)",highProbShape,highProbShape,circular,uniform,1,undefined,0,0.0625,1,1,149.109375,1,12,28629,0,0,0,0,0,0,0,0,42,0,1,0.0625,149.109375,12,28629,41,41,41,11/22/2018 14:25,Default description,yes,<openexp._canvas.legacy.Legacy object at 0x0527C7F0>,<openexp._canvas.legacy.Legacy object at 0x052EF6D0>,<openexp._canvas.legacy.Legacy object at 0x0531DB70>,<openexp._canvas.legacy.Legacy object at 0x0510A930>,<openexp._canvas.legacy.Legacy object at 0x050FA190>,<openexp._canvas.legacy.Legacy object at 0x05270290>,<openexp._canvas.legacy.Legacy object at 0x0527C9F0>,<openexp._canvas.legacy.Legacy object at 0x050FA3B0>,75,SpatProbMultiple3.osexp,C:/Userdata/Michel/SpatProbMultiple3,no,mono,no,18,no,white,no,yes,0.09,98,1050,legacy,315,16,16,1,C:/Userdata/Michel/SpatProbMultiple3/beh/subject-4.csv,legacy,9,192,25,Kafkaesque Koffka,3.2.5,yes,598477b2b83f69022949e7e9,47,red,circular,green,circular,0,/,1052,space,4701,4701,"(80, 80, 80)","(0, 123, 0)","(177, 0, 0)","(155, 155, 155)",2,legacy,experiment,"[3, 4, 5, 6, 7, 0, 1, 2]",/,2500,3000,0,8,252.7587515,1024,2,48000,-16,main,"[(0, -252), (178, -178), (252, 0), (178, 178), (0, 252), (-178, 178), (-252, 0), (-178, -178)]",[],28,even,7,NA,112297,224198,224198,20834,19825,1974,26634,26634,1974,1975,25536,281534,1972,224198,280479,279548,279548,NA,921,study_X,0,4701,1,yes,1680
undefined,undefined,NA,NA,NA,4701,4701,black,no,legacy,legacy,legacy,0,green,"(0, 123, 0)",shape,present,highProb,rectangular,swap,swap,same,same,green,"(0, 123, 0)",lowProb,lowProb4,circular,uniform,1,undefined,0,0.067708333,1,1,161.46875,1,13,31002,0,0,0,0,0,0,0,0,43,0,1,0.067708333,161.46875,13,31002,42,42,42,11/22/2018 14:25,Default description,yes,<openexp._canvas.legacy.Legacy object at 0x0527C7F0>,<openexp._canvas.legacy.Legacy object at 0x052EF6D0>,<openexp._canvas.legacy.Legacy object at 0x0531DB70>,<openexp._canvas.legacy.Legacy object at 0x0510A930>,<openexp._canvas.legacy.Legacy object at 0x050FA190>,<openexp._canvas.legacy.Legacy object at 0x05270290>,<openexp._canvas.legacy.Legacy object at 0x052F35B0>,<openexp._canvas.legacy.Legacy object at 0x050FA3B0>,75,SpatProbMultiple3.osexp,C:/Userdata/Michel/SpatProbMultiple3,no,mono,no,18,no,white,no,yes,0.09,98,1050,legacy,315,17,17,1,C:/Userdata/Michel/SpatProbMultiple3/beh/subject-4.csv,legacy,9,192,25,Kafkaesque Koffka,3.2.5,yes,598477b2b83f69022949e7e9,47,green,rectangular,green,circular,0,/,2373,space,4701,4701,"(80, 80, 80)","(0, 123, 0)","(177, 0, 0)","(155, 155, 155)",2,legacy,experiment,"[3, 4, 5, 6, 7, 0, 1, 2]",/,2500,3000,0,8,252.7587515,1024,2,48000,-16,main,"[(0, -252), (178, -178), (252, 0), (178, 178), (0, 252), (-178, 178), (-252, 0), (-178, -178)]",[],28,even,0,NA,112297,224198,224198,20834,19825,1974,26634,26634,1974,1975,25536,285326,1972,224198,282950,282019,282019,NA,921,study_X,0,4701,1,yes,1680
undefined,undefined,NA,NA,NA,4701,4701,black,no,legacy,legacy,legacy,0,red,"(177, 0, 0)",color,present,highProb,rectangular,swap,same,same,swap,green,"(0, 123, 0)",lowProb,lowProb2,rectangular,uniform,1,undefined,0,0.072916667,1,1,169.1510417,1,14,32477,0,0,0,0,0,0,0,0,44,0,1,0.072916667,169.1510417,14,32477,43,43,43,11/22/2018 14:25,Default description,yes,<openexp._canvas.legacy.Legacy object at 0x0527C7F0>,<openexp._canvas.legacy.Legacy object at 0x052EF6D0>,<openexp._canvas.legacy.Legacy object at 0x0531DB70>,<openexp._canvas.legacy.Legacy object at 0x0510A930>,<openexp._canvas.legacy.Legacy object at 0x050FA190>,<openexp._canvas.legacy.Legacy object at 0x05270290>,<openexp._canvas.legacy.Legacy object at 0x0531D830>,<openexp._canvas.legacy.Legacy object at 0x050FA3B0>,75,SpatProbMultiple3.osexp,C:/Userdata/Michel/SpatProbMultiple3,no,mono,no,18,no,white,no,yes,0.09,98,1050,legacy,45,18,18,1,C:/Userdata/Michel/SpatProbMultiple3/beh/subject-4.csv,legacy,9,192,25,Kafkaesque Koffka,3.2.5,yes,598477b2b83f69022949e7e9,47,red,rectangular,green,rectangular,0,\,1475,space,4701,4701,"(80, 80, 80)","(0, 123, 0)","(177, 0, 0)","(155, 155, 155)",2,legacy,experiment,"[3, 4, 5, 6, 7, 0, 1, 2]",\,2500,3000,0,8,252.7587515,1024,2,48000,-16,main,"[(0, -252), (178, -178), (252, 0), (178, 178), (0, 252), (-178, 178), (-252, 0), (-178, -178)]",[],28,even,5,NA,112297,224198,224198,20834,19825,1974,26634,26634,1974,1975,25536,288174,1972,224198,286696,285765,285765,NA,921,study_X,0,4701,1,yes,1680
undefined,undefined,NA,NA,NA,4701,4701,black,no,legacy,legacy,legacy,0,red,"(177, 0, 0)",shape,absent,highProbOther,rectangular,same,same,swap,same,red,"(177, 0, 0)",highProbShape,highProbShape,rectangular,uniform,1,undefined,0,0.078125,1,1,175.5625,1,15,33708,0,0,0,0,0,0,0,0,45,0,1,0.078125,175.5625,15,33708,44,44,44,11/22/2018 14:25,Default description,yes,<openexp._canvas.legacy.Legacy object at 0x0527C7F0>,<openexp._canvas.legacy.Legacy object at 0x052EF6D0>,<openexp._canvas.legacy.Legacy object at 0x0531DB70>,<openexp._canvas.legacy.Legacy object at 0x0510A930>,<openexp._canvas.legacy.Legacy object at 0x050FA190>,<openexp._canvas.legacy.Legacy object at 0x05270290>,<openexp._canvas.legacy.Legacy object at 0x052F4570>,<openexp._canvas.legacy.Legacy object at 0x050FA3B0>,75,SpatProbMultiple3.osexp,C:/Userdata/Michel/SpatProbMultiple3,no,mono,no,18,no,white,no,yes,0.09,98,1050,legacy,315,19,19,1,C:/Userdata/Michel/SpatProbMultiple3/beh/subject-4.csv,legacy,9,192,25,Kafkaesque Koffka,3.2.5,yes,598477b2b83f69022949e7e9,47,red,rectangular,red,rectangular,0,/,1231,space,4701,4701,"(80, 80, 80)","(0, 123, 0)","(177, 0, 0)","(155, 155, 155)",2,legacy,experiment,"[3, 4, 5, 6, 7, 0, 1, 2]",/,2500,3000,0,8,252.7587515,1024,2,48000,-16,main,"[(0, -252), (178, -178), (252, 0), (178, 178), (0, 252), (-178, 178), (-252, 0), (-178, -178)]",[],28,even,7,NA,112297,224198,224198,20834,19825,1974,26634,26634,1974,1975,25536,290782,1972,224198,289547,288616,288616,NA,921,study_X,0,4701,1,yes,1680
undefined,undefined,NA,NA,NA,4701,4701,black,no,legacy,legacy,legacy,0,green,"(0, 123, 0)",color,present,highProb,rectangular,swap,same,same,same,red,"(177, 0, 0)",lowProb,lowProb6,rectangular,uniform,1,undefined,0,0.083333333,1,1,182.0677083,1,16,34957,0,0,0,0,0,0,0,0,46,0,1,0.083333333,182.0677083,16,34957,45,45,45,11/22/2018 14:25,Default description,yes,<openexp._canvas.legacy.Legacy object at 0x0527C7F0>,<openexp._canvas.legacy.Legacy object at 0x052EF6D0>,<openexp._canvas.legacy.Legacy object at 0x0531DB70>,<openexp._canvas.legacy.Legacy object at 0x0510A930>,<openexp._canvas.legacy.Legacy object at 0x050FA190>,<openexp._canvas.legacy.Legacy object at 0x05270290>,<openexp._canvas.legacy.Legacy object at 0x0527C570>,<openexp._canvas.legacy.Legacy object at 0x050FA3B0>,75,SpatProbMultiple3.osexp,C:/Userdata/Michel/SpatProbMultiple3,no,mono,no,18,no,white,no,yes,0.09,98,1050,legacy,315,20,20,1,C:/Userdata/Michel/SpatProbMultiple3/beh/subject-4.csv,legacy,9,192,25,Kafkaesque Koffka,3.2.5,yes,598477b2b83f69022949e7e9,47,green,rectangular,red,rectangular,0,/,1249,space,4701,4701,"(80, 80, 80)","(0, 123, 0)","(177, 0, 0)","(155, 155, 155)",2,legacy,experiment,"[3, 4, 5, 6, 7, 0, 1, 2]",/,2500,3000,0,8,252.7587515,1024,2,48000,-16,main,"[(0, -252), (178, -178), (252, 0), (178, 178), (0, 252), (-178, 178), (-252, 0), (-178, -178)]",[],28,even,2,NA,112297,224198,224198,20834,19825,1974,26634,26634,1974,1975,25536,293414,1972,224198,292161,291232,291232,NA,921,study_X,0,4701,1,yes,1680
undefined,undefined,NA,NA,NA,4701,4701,black,no,legacy,legacy,legacy,0,green,"(0, 123, 0)",color,present,lowProb3,circular,same,swap,same,swap,red,"(177, 0, 0)",lowProb,lowProb2,circular,uniform,1,undefined,0,0.088541667,1,1,194.3697917,1,17,37319,0,0,0,0,0,0,0,0,47,0,1,0.088541667,194.3697917,17,37319,46,46,46,11/22/2018 14:25,Default description,yes,<openexp._canvas.legacy.Legacy object at 0x0527C7F0>,<openexp._canvas.legacy.Legacy object at 0x052EF6D0>,<openexp._canvas.legacy.Legacy object at 0x0531DB70>,<openexp._canvas.legacy.Legacy object at 0x0510A930>,<openexp._canvas.legacy.Legacy object at 0x050FA190>,<openexp._canvas.legacy.Legacy object at 0x05270290>,<openexp._canvas.legacy.Legacy object at 0x052EF690>,<openexp._canvas.legacy.Legacy object at 0x050FA3B0>,75,SpatProbMultiple3.osexp,C:/Userdata/Michel/SpatProbMultiple3,no,mono,no,18,no,white,no,yes,0.09,98,1050,legacy,315,21,21,1,C:/Userdata/Michel/SpatProbMultiple3/beh/subject-4.csv,legacy,9,192,25,Kafkaesque Koffka,3.2.5,yes,598477b2b83f69022949e7e9,47,green,circular,red,circular,0,/,2362,space,4701,4701,"(80, 80, 80)","(0, 123, 0)","(177, 0, 0)","(155, 155, 155)",2,legacy,experiment,"[3, 4, 5, 6, 7, 0, 1, 2]",/,2500,3000,0,8,252.7587515,1024,2,48000,-16,main,"[(0, -252), (178, -178), (252, 0), (178, 178), (0, 252), (-178, 178), (-252, 0), (-178, -178)]",[],28,even,5,NA,112297,224198,224198,20834,19825,1974,26634,26634,1974,1975,25536,297181,1972,224198,294816,293884,293884,NA,921,study_X,0,4701,1,yes,1680
undefined,undefined,NA,NA,NA,4701,4701,black,no,legacy,legacy,legacy,0,green,"(0, 123, 0)",color,present,highProb,circular,same,same,same,same,red,"(177, 0, 0)",lowProb,lowProb5,circular,uniform,1,undefined,0,0.09375,1,1,201.2083333,1,18,38632,0,0,0,0,0,0,0,0,48,0,1,0.09375,201.2083333,18,38632,47,47,47,11/22/2018 14:25,Default description,yes,<openexp._canvas.legacy.Legacy object at 0x0527C7F0>,<openexp._canvas.legacy.Legacy object at 0x052EF6D0>,<openexp._canvas.legacy.Legacy object at 0x0531DB70>,<openexp._canvas.legacy.Legacy object at 0x0510A930>,<openexp._canvas.legacy.Legacy object at 0x050FA190>,<openexp._canvas.legacy.Legacy object at 0x05270290>,<openexp._canvas.legacy.Legacy object at 0x0510A330>,<openexp._canvas.legacy.Legacy object at 0x050FA3B0>,75,SpatProbMultiple3.osexp,C:/Userdata/Michel/SpatProbMultiple3,no,mono,no,18,no,white,no,yes,0.09,98,1050,legacy,45,22,22,1,C:/Userdata/Michel/SpatProbMultiple3/beh/subject-4.csv,legacy,9,192,25,Kafkaesque Koffka,3.2.5,yes,598477b2b83f69022949e7e9,47,green,circular,red,circular,0,\,1313,space,4701,4701,"(80, 80, 80)","(0, 123, 0)","(177, 0, 0)","(155, 155, 155)",2,legacy,experiment,"[3, 4, 5, 6, 7, 0, 1, 2]",\,2500,3000,0,8,252.7587515,1024,2,48000,-16,main,"[(0, -252), (178, -178), (252, 0), (178, 178), (0, 252), (-178, 178), (-252, 0), (-178, -178)]",[],28,even,1,NA,112297,224198,224198,20834,19825,1974,26634,26634,1974,1975,25536,299886,1972,224198,298570,297639,297639,NA,921,study_X,0,4701,1,yes,1680
undefined,undefined,NA,NA,NA,4701,4701,black,no,legacy,legacy,legacy,0,red,"(177, 0, 0)",shape,present,highProbOther,circular,swap,same,same,swap,red,"(177, 0, 0)",lowProb,lowProb2,rectangular,uniform,0,undefined,0,0.09375,1,1,206.8229167,1,18,39710,0,0,0,0,0,0,0,0,49,0,1,0.09375,206.8229167,18,39710,48,48,48,11/22/2018 14:25,Default description,yes,<openexp._canvas.legacy.Legacy object at 0x0527C7F0>,<openexp._canvas.legacy.Legacy object at 0x052EF6D0>,<openexp._canvas.legacy.Legacy object at 0x0531DB70>,<openexp._canvas.legacy.Legacy object at 0x0510A930>,<openexp._canvas.legacy.Legacy object at 0x050FA190>,<openexp._canvas.legacy.Legacy object at 0x05270290>,<openexp._canvas.legacy.Legacy object at 0x05293D10>,<openexp._canvas.legacy.Legacy object at 0x050FA3B0>,75,SpatProbMultiple3.osexp,C:/Userdata/Michel/SpatProbMultiple3,no,mono,no,18,no,white,no,yes,0.09,98,1050,legacy,45,23,23,1,C:/Userdata/Michel/SpatProbMultiple3/beh/subject-4.csv,legacy,9,192,25,Kafkaesque Koffka,3.2.5,yes,598477b2b83f69022949e7e9,47,red,circular,red,rectangular,0,/,1078,space,4701,4701,"(80, 80, 80)","(0, 123, 0)","(177, 0, 0)","(155, 155, 155)",2,legacy,experiment,"[3, 4, 5, 6, 7, 0, 1, 2]",\,2500,3000,0,8,252.7587515,1024,2,48000,-16,main,"[(0, -252), (178, -178), (252, 0), (178, 178), (0, 252), (-178, 178), (-252, 0), (-178, -178)]",[],28,even,5,NA,112297,224198,224198,20834,19825,1974,26634,26634,1974,1975,25536,302342,1972,224198,301261,300329,300329,NA,921,study_X,0,4701,1,yes,1680
undefined,undefined,NA,NA,NA,4701,4701,black,no,legacy,legacy,legacy,0,red,"(177, 0, 0)",color,present,highProb,circular,same,same,swap,swap,green,"(0, 123, 0)",lowProb,lowProb3,circular,uniform,1,undefined,0,0.098958333,1,1,214.5520833,1,19,41194,0,0,0,0,0,0,0,0,50,0,1,0.098958333,214.5520833,19,41194,49,49,49,11/22/2018 14:25,Default description,yes,<openexp._canvas.legacy.Legacy object at 0x0527C7F0>,<openexp._canvas.legacy.Legacy object at 0x052EF6D0>,<openexp._canvas.legacy.Legacy object at 0x0531DB70>,<openexp._canvas.legacy.Legacy object at 0x0510A930>,<openexp._canvas.legacy.Legacy object at 0x050FA190>,<openexp._canvas.legacy.Legacy object at 0x05270290>,<openexp._canvas.legacy.Legacy object at 0x0531D390>,<openexp._canvas.legacy.Legacy object at 0x050FA3B0>,75,SpatProbMultiple3.osexp,C:/Userdata/Michel/SpatProbMultiple3,no,mono,no,18,no,white,no,yes,0.09,98,1050,legacy,45,24,24,1,C:/Userdata/Michel/SpatProbMultiple3/beh/subject-4.csv,legacy,9,192,25,Kafkaesque Koffka,3.2.5,yes,598477b2b83f69022949e7e9,47,red,circular,green,circular,0,\,1484,space,4701,4701,"(80, 80, 80)","(0, 123, 0)","(177, 0, 0)","(155, 155, 155)",2,legacy,experiment,"[3, 4, 5, 6, 7, 0, 1, 2]",\,2500,3000,0,8,252.7587515,1024,2,48000,-16,main,"[(0, -252), (178, -178), (252, 0), (178, 178), (0, 252), (-178, 178), (-252, 0), (-178, -178)]",[],28,even,6,NA,112297,224198,224198,20834,19825,1974,26634,26634,1974,1975,25536,305214,1972,224198,303726,302795,302795,NA,921,study_X,0,4701,1,yes,1680
undefined,undefined,NA,NA,NA,4701,4701,black,no,legacy,legacy,legacy,0,green,"(0, 123, 0)",shape,present,lowProb5,circular,swap,same,same,swap,green,"(0, 123, 0)",lowProb,lowProb4,rectangular,uniform,0,undefined,0,0.098958333,1,1,224.2291667,1,19,43052,0,0,0,0,0,0,0,0,51,0,1,0.098958333,224.2291667,19,43052,50,50,50,11/22/2018 14:25,Default description,yes,<openexp._canvas.legacy.Legacy object at 0x0527C7F0>,<openexp._canvas.legacy.Legacy object at 0x052EF6D0>,<openexp._canvas.legacy.Legacy object at 0x0531DB70>,<openexp._canvas.legacy.Legacy object at 0x0510A930>,<openexp._canvas.legacy.Legacy object at 0x050FA190>,<openexp._canvas.legacy.Legacy object at 0x05270290>,<openexp._canvas.legacy.Legacy object at 0x052872B0>,<openexp._canvas.legacy.Legacy object at 0x050FA3B0>,75,SpatProbMultiple3.osexp,C:/Userdata/Michel/SpatProbMultiple3,no,mono,no,18,no,white,no,yes,0.09,98,1050,legacy,45,25,25,1,C:/Userdata/Michel/SpatProbMultiple3/beh/subject-4.csv,legacy,9,192,25,Kafkaesque Koffka,3.2.5,yes,598477b2b83f69022949e7e9,47,green,circular,green,rectangular,0,/,1858,space,4701,4701,"(80, 80, 80)","(0, 123, 0)","(177, 0, 0)","(155, 155, 155)",2,legacy,experiment,"[3, 4, 5, 6, 7, 0, 1, 2]",\,2500,3000,0,8,252.7587515,1024,2,48000,-16,main,"[(0, -252), (178, -178), (252, 0), (178, 178), (0, 252), (-178, 178), (-252, 0), (-178, -178)]",[],28,even,0,NA,112297,224198,224198,20834,19825,1974,26634,26634,1974,1975,25536,308446,1972,224198,306584,305653,305653,NA,921,study_X,0,4701,1,yes,1680
undefined,undefined,NA,NA,NA,4701,4701,black,no,legacy,legacy,legacy,0,green,"(0, 123, 0)",color,present,lowProb5,circular,same,same,swap,swap,red,"(177, 0, 0)",lowProb,lowProb1,circular,uniform,1,undefined,0,0.104166667,1,1,229.828125,1,20,44127,0,0,0,0,0,0,0,0,52,0,1,0.104166667,229.828125,20,44127,51,51,51,11/22/2018 14:25,Default description,yes,<openexp._canvas.legacy.Legacy object at 0x0527C7F0>,<openexp._canvas.legacy.Legacy object at 0x052EF6D0>,<openexp._canvas.legacy.Legacy object at 0x0531DB70>,<openexp._canvas.legacy.Legacy object at 0x0510A930>,<openexp._canvas.legacy.Legacy object at 0x050FA190>,<openexp._canvas.legacy.Legacy object at 0x05270290>,<openexp._canvas.legacy.Legacy object at 0x0510FD90>,<openexp._canvas.legacy.Legacy object at 0x050FA3B0>,75,SpatProbMultiple3.osexp,C:/Userdata/Michel/SpatProbMultiple3,no,mono,no,18,no,white,no,yes,0.09,98,1050,legacy,45,26,26,1,C:/Userdata/Michel/SpatProbMultiple3/beh/subject-4.csv,legacy,9,192,25,Kafkaesque Koffka,3.2.5,yes,598477b2b83f69022949e7e9,47,green,circular,red,circular,0,\,1075,space,4701,4701,"(80, 80, 80)","(0, 123, 0)","(177, 0, 0)","(155, 155, 155)",2,legacy,experiment,"[3, 4, 5, 6, 7, 0, 1, 2]",\,2500,3000,0,8,252.7587515,1024,2,48000,-16,main,"[(0, -252), (178, -178), (252, 0), (178, 178), (0, 252), (-178, 178), (-252, 0), (-178, -178)]",[],28,even,4,NA,112297,224198,224198,20834,19825,1974,26634,26634,1974,1975,25536,310926,1972,224198,309847,308916,308916,NA,921,study_X,0,4701,1,yes,1680
undefined,undefined,NA,NA,NA,4701,4701,black,no,legacy,legacy,legacy,0,red,"(177, 0, 0)",shape,present,highProb,rectangular,swap,swap,same,same,red,"(177, 0, 0)",lowProb,lowProb3,circular,uniform,1,undefined,0,0.109375,1,1,234.7395833,1,21,45070,0,0,0,0,0,0,0,0,53,0,1,0.109375,234.7395833,21,45070,52,52,52,11/22/2018 14:25,Default description,yes,<openexp._canvas.legacy.Legacy object at 0x0527C7F0>,<openexp._canvas.legacy.Legacy object at 0x052EF6D0>,<openexp._canvas.legacy.Legacy object at 0x0531DB70>,<openexp._canvas.legacy.Legacy object at 0x0510A930>,<openexp._canvas.legacy.Legacy object at 0x050FA190>,<openexp._canvas.legacy.Legacy object at 0x05270290>,<openexp._canvas.legacy.Legacy object at 0x05293810>,<openexp._canvas.legacy.Legacy object at 0x050FA3B0>,75,SpatProbMultiple3.osexp,C:/Userdata/Michel/SpatProbMultiple3,no,mono,no,18,no,white,no,yes,0.09,98,1050,legacy,45,27,27,1,C:/Userdata/Michel/SpatProbMultiple3/beh/subject-4.csv,legacy,9,192,25,Kafkaesque Koffka,3.2.5,yes,598477b2b83f69022949e7e9,47,red,rectangular,red,circular,0,\,943,space,4701,4701,"(80, 80, 80)","(0, 123, 0)","(177, 0, 0)","(155, 155, 155)",2,legacy,experiment,"[3, 4, 5, 6, 7, 0, 1, 2]",\,2500,3000,0,8,252.7587515,1024,2,48000,-16,main,"[(0, -252), (178, -178), (252, 0), (178, 178), (0, 252), (-178, 178), (-252, 0), (-178, -178)]",[],28,even,6,NA,112297,224198,224198,20834,19825,1974,26634,26634,1974,1975,25536,313245,1972,224198,312299,311368,311368,NA,921,study_X,0,4701,1,yes,1680
undefined,undefined,NA,NA,NA,4701,4701,black,no,legacy,legacy,legacy,0,green,"(0, 123, 0)",color,present,highProb,rectangular,swap,same,same,swap,red,"(177, 0, 0)",highProbShape,highProbShape,rectangular,uniform,1,undefined,0,0.114583333,1,1,242.0364583,1,22,46471,0,0,0,0,0,0,0,0,54,0,1,0.114583333,242.0364583,22,46471,53,53,53,11/22/2018 14:25,Default description,yes,<openexp._canvas.legacy.Legacy object at 0x0527C7F0>,<openexp._canvas.legacy.Legacy object at 0x052EF6D0>,<openexp._canvas.legacy.Legacy object at 0x0531DB70>,<openexp._canvas.legacy.Legacy object at 0x0510A930>,<openexp._canvas.legacy.Legacy object at 0x050FA190>,<openexp._canvas.legacy.Legacy object at 0x05270290>,<openexp._canvas.legacy.Legacy object at 0x0510F9F0>,<openexp._canvas.legacy.Legacy object at 0x050FA3B0>,75,SpatProbMultiple3.osexp,C:/Userdata/Michel/SpatProbMultiple3,no,mono,no,18,no,white,no,yes,0.09,98,1050,legacy,45,28,28,1,C:/Userdata/Michel/SpatProbMultiple3/beh/subject-4.csv,legacy,9,192,25,Kafkaesque Koffka,3.2.5,yes,598477b2b83f69022949e7e9,47,green,rectangular,red,rectangular,0,\,1401,space,4701,4701,"(80, 80, 80)","(0, 123, 0)","(177, 0, 0)","(155, 155, 155)",2,legacy,experiment,"[3, 4, 5, 6, 7, 0, 1, 2]",\,2500,3000,0,8,252.7587515,1024,2,48000,-16,main,"[(0, -252), (178, -178), (252, 0), (178, 178), (0, 252), (-178, 178), (-252, 0), (-178, -178)]",[],28,even,7,NA,112297,224198,224198,20834,19825,1974,26634,26634,1974,1975,25536,316022,1972,224198,314618,313687,313687,NA,921,study_X,0,4701,1,yes,1680
undefined,undefined,NA,NA,NA,4701,4701,black,no,legacy,legacy,legacy,0,red,"(177, 0, 0)",shape,absent,lowProb5,rectangular,swap,same,same,same,red,"(177, 0, 0)",highProbShape,highProbShape,rectangular,uniform,1,undefined,0,0.119791667,1,1,247.7083333,1,23,47560,0,0,0,0,0,0,0,0,55,0,1,0.119791667,247.7083333,23,47560,54,54,54,11/22/2018 14:25,Default description,yes,<openexp._canvas.legacy.Legacy object at 0x0527C7F0>,<openexp._canvas.legacy.Legacy object at 0x052EF6D0>,<openexp._canvas.legacy.Legacy object at 0x0531DB70>,<openexp._canvas.legacy.Legacy object at 0x0510A930>,<openexp._canvas.legacy.Legacy object at 0x050FA190>,<openexp._canvas.legacy.Legacy object at 0x05270290>,<openexp._canvas.legacy.Legacy object at 0x0527CBD0>,<openexp._canvas.legacy.Legacy object at 0x050FA3B0>,75,SpatProbMultiple3.osexp,C:/Userdata/Michel/SpatProbMultiple3,no,mono,no,18,no,white,no,yes,0.09,98,1050,legacy,45,29,29,1,C:/Userdata/Michel/SpatProbMultiple3/beh/subject-4.csv,legacy,9,192,25,Kafkaesque Koffka,3.2.5,yes,598477b2b83f69022949e7e9,47,red,rectangular,red,rectangular,0,\,1089,space,4701,4701,"(80, 80, 80)","(0, 123, 0)","(177, 0, 0)","(155, 155, 155)",2,legacy,experiment,"[3, 4, 5, 6, 7, 0, 1, 2]",\,2500,3000,0,8,252.7587515,1024,2,48000,-16,main,"[(0, -252), (178, -178), (252, 0), (178, 178), (0, 252), (-178, 178), (-252, 0), (-178, -178)]",[],28,even,7,NA,112297,224198,224198,20834,19825,1974,26634,26634,1974,1975,25536,318486,1972,224198,317395,316465,316465,NA,921,study_X,0,4701,1,yes,1680
undefined,undefined,NA,NA,NA,4701,4701,black,no,legacy,legacy,legacy,0,red,"(177, 0, 0)",color,present,lowProb2,rectangular,same,same,swap,same,green,"(0, 123, 0)",highProbShape,highProbShape,rectangular,uniform,0,undefined,0,0.119791667,1,1,260.7291667,1,23,50060,0,0,0,0,0,0,0,0,56,0,1,0.119791667,260.7291667,23,50060,55,55,55,11/22/2018 14:25,Default description,yes,<openexp._canvas.legacy.Legacy object at 0x0527C7F0>,<openexp._canvas.legacy.Legacy object at 0x052EF6D0>,<openexp._canvas.legacy.Legacy object at 0x0531DB70>,<openexp._canvas.legacy.Legacy object at 0x0510A930>,<openexp._canvas.legacy.Legacy object at 0x050FA190>,<openexp._canvas.legacy.Legacy object at 0x05270290>,<openexp._canvas.legacy.Legacy object at 0x05287D10>,<openexp._canvas.legacy.Legacy object at 0x050FA3B0>,75,SpatProbMultiple3.osexp,C:/Userdata/Michel/SpatProbMultiple3,no,mono,no,18,no,white,no,yes,0.09,98,1050,legacy,315,30,30,1,C:/Userdata/Michel/SpatProbMultiple3/beh/subject-4.csv,legacy,9,192,25,Kafkaesque Koffka,3.2.5,yes,598477b2b83f69022949e7e9,47,red,rectangular,green,rectangular,0,None,2500,space,4701,4701,"(80, 80, 80)","(0, 123, 0)","(177, 0, 0)","(155, 155, 155)",2,legacy,experiment,"[3, 4, 5, 6, 7, 0, 1, 2]",/,2500,3000,0,8,252.7587515,1024,2,48000,-16,main,"[(0, -252), (178, -178), (252, 0), (178, 178), (0, 252), (-178, 178), (-252, 0), (-178, -178)]",[],28,even,7,NA,112297,224198,224198,20834,19825,1974,26634,26634,1974,1975,25536,322371,1972,224198,319868,318937,318937,NA,921,study_X,0,4701,1,yes,1680
undefined,undefined,NA,NA,NA,4701,4701,black,no,legacy,legacy,legacy,0,red,"(177, 0, 0)",color,present,highProb,circular,same,swap,same,swap,green,"(0, 123, 0)",highProbShape,highProbShape,circular,uniform,1,undefined,0,0.125,1,1,267.4635417,1,24,51353,0,0,0,0,0,0,0,0,57,0,1,0.125,267.4635417,24,51353,56,56,56,11/22/2018 14:25,Default description,yes,<openexp._canvas.legacy.Legacy object at 0x0527C7F0>,<openexp._canvas.legacy.Legacy object at 0x052EF6D0>,<openexp._canvas.legacy.Legacy object at 0x0531DB70>,<openexp._canvas.legacy.Legacy object at 0x0510A930>,<openexp._canvas.legacy.Legacy object at 0x050FA190>,<openexp._canvas.legacy.Legacy object at 0x05270290>,<openexp._canvas.legacy.Legacy object at 0x0531DF90>,<openexp._canvas.legacy.Legacy object at 0x050FA3B0>,75,SpatProbMultiple3.osexp,C:/Userdata/Michel/SpatProbMultiple3,no,mono,no,18,no,white,no,yes,0.09,98,1050,legacy,315,31,31,1,C:/Userdata/Michel/SpatProbMultiple3/beh/subject-4.csv,legacy,9,192,25,Kafkaesque Koffka,3.2.5,yes,598477b2b83f69022949e7e9,47,red,circular,green,circular,0,/,1293,space,4701,4701,"(80, 80, 80)","(0, 123, 0)","(177, 0, 0)","(155, 155, 155)",2,legacy,experiment,"[3, 4, 5, 6, 7, 0, 1, 2]",/,2500,3000,0,8,252.7587515,1024,2,48000,-16,main,"[(0, -252), (178, -178), (252, 0), (178, 178), (0, 252), (-178, 178), (-252, 0), (-178, -178)]",[],28,even,7,NA,112297,224198,224198,20834,19825,1974,26634,26634,1974,1975,25536,325054,1972,224198,323757,322827,322827,NA,921,study_X,0,4701,1,yes,1680
undefined,undefined,NA,NA,NA,4701,4701,black,no,legacy,legacy,legacy,0,red,"(177, 0, 0)",shape,present,highProb,circular,same,same,swap,swap,red,"(177, 0, 0)",lowProb,lowProb1,rectangular,uniform,1,undefined,0,0.130208333,1,1,279.59375,1,25,53682,0,0,0,0,0,0,0,0,58,0,1,0.130208333,279.59375,25,53682,57,57,57,11/22/2018 14:25,Default description,yes,<openexp._canvas.legacy.Legacy object at 0x0527C7F0>,<openexp._canvas.legacy.Legacy object at 0x052EF6D0>,<openexp._canvas.legacy.Legacy object at 0x0531DB70>,<openexp._canvas.legacy.Legacy object at 0x0510A930>,<openexp._canvas.legacy.Legacy object at 0x050FA190>,<openexp._canvas.legacy.Legacy object at 0x05270290>,<openexp._canvas.legacy.Legacy object at 0x052F6FD0>,<openexp._canvas.legacy.Legacy object at 0x050FA3B0>,75,SpatProbMultiple3.osexp,C:/Userdata/Michel/SpatProbMultiple3,no,mono,no,18,no,white,no,yes,0.09,98,1050,legacy,315,32,32,1,C:/Userdata/Michel/SpatProbMultiple3/beh/subject-4.csv,legacy,9,192,25,Kafkaesque Koffka,3.2.5,yes,598477b2b83f69022949e7e9,47,red,circular,red,rectangular,0,/,2329,space,4701,4701,"(80, 80, 80)","(0, 123, 0)","(177, 0, 0)","(155, 155, 155)",2,legacy,experiment,"[3, 4, 5, 6, 7, 0, 1, 2]",/,2500,3000,0,8,252.7587515,1024,2,48000,-16,main,"[(0, -252), (178, -178), (252, 0), (178, 178), (0, 252), (-178, 178), (-252, 0), (-178, -178)]",[],28,even,4,NA,112297,224198,224198,20834,19825,1974,26634,26634,1974,1975,25536,328749,1972,224198,326418,325487,325487,NA,921,study_X,0,4701,1,yes,1680
undefined,undefined,NA,NA,NA,4701,4701,black,no,legacy,legacy,legacy,0,green,"(0, 123, 0)",color,present,highProb,circular,swap,same,same,swap,red,"(177, 0, 0)",lowProb,lowProb2,circular,uniform,1,undefined,0,0.135416667,1,1,284.015625,1,26,54531,0,0,0,0,0,0,0,0,59,0,1,0.135416667,284.015625,26,54531,58,58,58,11/22/2018 14:25,Default description,yes,<openexp._canvas.legacy.Legacy object at 0x0527C7F0>,<openexp._canvas.legacy.Legacy object at 0x052EF6D0>,<openexp._canvas.legacy.Legacy object at 0x0531DB70>,<openexp._canvas.legacy.Legacy object at 0x0510A930>,<openexp._canvas.legacy.Legacy object at 0x050FA190>,<openexp._canvas.legacy.Legacy object at 0x05270290>,<openexp._canvas.legacy.Legacy object at 0x0527CE50>,<openexp._canvas.legacy.Legacy object at 0x050FA3B0>,75,SpatProbMultiple3.osexp,C:/Userdata/Michel/SpatProbMultiple3,no,mono,no,18,no,white,no,yes,0.09,98,1050,legacy,315,33,33,1,C:/Userdata/Michel/SpatProbMultiple3/beh/subject-4.csv,legacy,9,192,25,Kafkaesque Koffka,3.2.5,yes,598477b2b83f69022949e7e9,47,green,circular,red,circular,0,/,849,space,4701,4701,"(80, 80, 80)","(0, 123, 0)","(177, 0, 0)","(155, 155, 155)",2,legacy,experiment,"[3, 4, 5, 6, 7, 0, 1, 2]",/,2500,3000,0,8,252.7587515,1024,2,48000,-16,main,"[(0, -252), (178, -178), (252, 0), (178, 178), (0, 252), (-178, 178), (-252, 0), (-178, -178)]",[],28,even,5,NA,112297,224198,224198,20834,19825,1974,26634,26634,1974,1975,25536,331005,1972,224198,330153,329222,329222,NA,921,study_X,0,4701,1,yes,1680
undefined,undefined,NA,NA,NA,4701,4701,black,no,legacy,legacy,legacy,0,red,"(177, 0, 0)",shape,present,highProb,circular,swap,same,same,swap,red,"(177, 0, 0)",lowProb,lowProb2,rectangular,uniform,1,undefined,0,0.140625,1,1,292.9583333,1,27,56248,0,0,0,0,0,0,0,0,60,0,1,0.140625,292.9583333,27,56248,59,59,59,11/22/2018 14:25,Default description,yes,<openexp._canvas.legacy.Legacy object at 0x0527C7F0>,<openexp._canvas.legacy.Legacy object at 0x052EF6D0>,<openexp._canvas.legacy.Legacy object at 0x0531DB70>,<openexp._canvas.legacy.Legacy object at 0x0510A930>,<openexp._canvas.legacy.Legacy object at 0x050FA190>,<openexp._canvas.legacy.Legacy object at 0x05270290>,<openexp._canvas.legacy.Legacy object at 0x052F65D0>,<openexp._canvas.legacy.Legacy object at 0x050FA3B0>,75,SpatProbMultiple3.osexp,C:/Userdata/Michel/SpatProbMultiple3,no,mono,no,18,no,white,no,yes,0.09,98,1050,legacy,45,34,34,1,C:/Userdata/Michel/SpatProbMultiple3/beh/subject-4.csv,legacy,9,192,25,Kafkaesque Koffka,3.2.5,yes,598477b2b83f69022949e7e9,47,red,circular,red,rectangular,0,\,1717,space,4701,4701,"(80, 80, 80)","(0, 123, 0)","(177, 0, 0)","(155, 155, 155)",2,legacy,experiment,"[3, 4, 5, 6, 7, 0, 1, 2]",\,2500,3000,0,8,252.7587515,1024,2,48000,-16,main,"[(0, -252), (178, -178), (252, 0), (178, 178), (0, 252), (-178, 178), (-252, 0), (-178, -178)]",[],28,even,5,NA,112297,224198,224198,20834,19825,1974,26634,26634,1974,1975,25536,334094,1972,224198,332374,331443,331443,NA,921,study_X,0,4701,1,yes,1680
undefined,undefined,NA,NA,NA,4701,4701,black,no,legacy,legacy,legacy,0,red,"(177, 0, 0)",color,present,highProb,circular,same,same,swap,swap,green,"(0, 123, 0)",lowProb,lowProb6,circular,uniform,0,undefined,0,0.140625,1,1,305.3020833,1,27,58618,0,0,0,0,0,0,0,0,61,0,1,0.140625,305.3020833,27,58618,60,60,60,11/22/2018 14:25,Default description,yes,<openexp._canvas.legacy.Legacy object at 0x0527C7F0>,<openexp._canvas.legacy.Legacy object at 0x052EF6D0>,<openexp._canvas.legacy.Legacy object at 0x0531DB70>,<openexp._canvas.legacy.Legacy object at 0x0510A930>,<openexp._canvas.legacy.Legacy object at 0x050FA190>,<openexp._canvas.legacy.Legacy object at 0x05270290>,<openexp._canvas.legacy.Legacy object at 0x052F4F30>,<openexp._canvas.legacy.Legacy object at 0x050FA3B0>,75,SpatProbMultiple3.osexp,C:/Userdata/Michel/SpatProbMultiple3,no,mono,no,18,no,white,no,yes,0.09,98,1050,legacy,45,35,35,1,C:/Userdata/Michel/SpatProbMultiple3/beh/subject-4.csv,legacy,9,192,25,Kafkaesque Koffka,3.2.5,yes,598477b2b83f69022949e7e9,47,red,circular,green,circular,0,/,2370,space,4701,4701,"(80, 80, 80)","(0, 123, 0)","(177, 0, 0)","(155, 155, 155)",2,legacy,experiment,"[3, 4, 5, 6, 7, 0, 1, 2]",\,2500,3000,0,8,252.7587515,1024,2,48000,-16,main,"[(0, -252), (178, -178), (252, 0), (178, 178), (0, 252), (-178, 178), (-252, 0), (-178, -178)]",[],28,even,2,NA,112297,224198,224198,20834,19825,1974,26634,26634,1974,1975,25536,337878,1972,224198,335504,334573,334573,NA,921,study_X,0,4701,1,yes,1680
undefined,undefined,NA,NA,NA,4701,4701,black,no,legacy,legacy,legacy,0,green,"(0, 123, 0)",shape,present,highProb,rectangular,swap,swap,same,same,green,"(0, 123, 0)",lowProb,lowProb5,circular,uniform,0,undefined,0,0.140625,1,1,318.3229167,1,27,61118,0,0,0,0,0,0,0,0,62,0,1,0.140625,318.3229167,27,61118,61,61,61,11/22/2018 14:25,Default description,yes,<openexp._canvas.legacy.Legacy object at 0x0527C7F0>,<openexp._canvas.legacy.Legacy object at 0x052EF6D0>,<openexp._canvas.legacy.Legacy object at 0x0531DB70>,<openexp._canvas.legacy.Legacy object at 0x0510A930>,<openexp._canvas.legacy.Legacy object at 0x050FA190>,<openexp._canvas.legacy.Legacy object at 0x05270290>,<openexp._canvas.legacy.Legacy object at 0x05287E90>,<openexp._canvas.legacy.Legacy object at 0x050FA3B0>,75,SpatProbMultiple3.osexp,C:/Userdata/Michel/SpatProbMultiple3,no,mono,no,18,no,white,no,yes,0.09,98,1050,legacy,315,36,36,1,C:/Userdata/Michel/SpatProbMultiple3/beh/subject-4.csv,legacy,9,192,25,Kafkaesque Koffka,3.2.5,yes,598477b2b83f69022949e7e9,47,green,rectangular,green,circular,0,None,2500,space,4701,4701,"(80, 80, 80)","(0, 123, 0)","(177, 0, 0)","(155, 155, 155)",2,legacy,experiment,"[3, 4, 5, 6, 7, 0, 1, 2]",/,2500,3000,0,8,252.7587515,1024,2,48000,-16,main,"[(0, -252), (178, -178), (252, 0), (178, 178), (0, 252), (-178, 178), (-252, 0), (-178, -178)]",[],28,even,1,NA,112297,224198,224198,20834,19825,1974,26634,26634,1974,1975,25536,341760,1972,224198,339257,338325,338325,NA,921,study_X,0,4701,1,yes,1680
undefined,undefined,NA,NA,NA,4701,4701,black,no,legacy,legacy,legacy,0,green,"(0, 123, 0)",color,absent,lowProb5,rectangular,same,same,same,swap,green,"(0, 123, 0)",lowProb,lowProb6,rectangular,uniform,1,undefined,0,0.145833333,1,1,324.4375,1,28,62292,0,0,0,0,0,0,0,0,63,0,1,0.145833333,324.4375,28,62292,62,62,62,11/22/2018 14:25,Default description,yes,<openexp._canvas.legacy.Legacy object at 0x0527C7F0>,<openexp._canvas.legacy.Legacy object at 0x052EF6D0>,<openexp._canvas.legacy.Legacy object at 0x0531DB70>,<openexp._canvas.legacy.Legacy object at 0x0510A930>,<openexp._canvas.legacy.Legacy object at 0x050FA190>,<openexp._canvas.legacy.Legacy object at 0x05270290>,<openexp._canvas.legacy.Legacy object at 0x052F3B30>,<openexp._canvas.legacy.Legacy object at 0x050FA3B0>,75,SpatProbMultiple3.osexp,C:/Userdata/Michel/SpatProbMultiple3,no,mono,no,18,no,white,no,yes,0.09,98,1050,legacy,315,37,37,1,C:/Userdata/Michel/SpatProbMultiple3/beh/subject-4.csv,legacy,9,192,25,Kafkaesque Koffka,3.2.5,yes,598477b2b83f69022949e7e9,47,green,rectangular,green,rectangular,0,/,1174,space,4701,4701,"(80, 80, 80)","(0, 123, 0)","(177, 0, 0)","(155, 155, 155)",2,legacy,experiment,"[3, 4, 5, 6, 7, 0, 1, 2]",/,2500,3000,0,8,252.7587515,1024,2,48000,-16,main,"[(0, -252), (178, -178), (252, 0), (178, 178), (0, 252), (-178, 178), (-252, 0), (-178, -178)]",[],28,even,2,NA,112297,224198,224198,20834,19825,1974,26634,26634,1974,1975,25536,344309,1972,224198,343133,342202,342203,NA,921,study_X,0,4701,1,yes,1680
undefined,undefined,NA,NA,NA,4701,4701,black,no,legacy,legacy,legacy,0,green,"(0, 123, 0)",color,present,highProbOther,circular,same,swap,swap,swap,red,"(177, 0, 0)",lowProb,lowProb3,circular,uniform,1,undefined,0,0.151041667,1,1,333.1666667,1,29,63968,0,0,0,0,0,0,0,0,64,0,1,0.151041667,333.1666667,29,63968,63,63,63,11/22/2018 14:25,Default description,yes,<openexp._canvas.legacy.Legacy object at 0x0527C7F0>,<openexp._canvas.legacy.Legacy object at 0x052EF6D0>,<openexp._canvas.legacy.Legacy object at 0x0531DB70>,<openexp._canvas.legacy.Legacy object at 0x0510A930>,<openexp._canvas.legacy.Legacy object at 0x050FA190>,<openexp._canvas.legacy.Legacy object at 0x05270290>,<openexp._canvas.legacy.Legacy object at 0x0531D410>,<openexp._canvas.legacy.Legacy object at 0x050FA3B0>,75,SpatProbMultiple3.osexp,C:/Userdata/Michel/SpatProbMultiple3,no,mono,no,18,no,white,no,yes,0.09,98,1050,legacy,45,38,38,1,C:/Userdata/Michel/SpatProbMultiple3/beh/subject-4.csv,legacy,9,192,25,Kafkaesque Koffka,3.2.5,yes,598477b2b83f69022949e7e9,47,green,circular,red,circular,0,\,1676,space,4701,4701,"(80, 80, 80)","(0, 123, 0)","(177, 0, 0)","(155, 155, 155)",2,legacy,experiment,"[3, 4, 5, 6, 7, 0, 1, 2]",\,2500,3000,0,8,252.7587515,1024,2,48000,-16,main,"[(0, -252), (178, -178), (252, 0), (178, 178), (0, 252), (-178, 178), (-252, 0), (-178, -178)]",[],28,even,6,NA,112297,224198,224198,20834,19825,1974,26634,26634,1974,1975,25536,347365,1972,224198,345687,344757,344757,NA,921,study_X,0,4701,1,yes,1680
undefined,undefined,NA,NA,NA,4701,4701,black,no,legacy,legacy,legacy,0,red,"(177, 0, 0)",color,absent,lowProb1,rectangular,swap,swap,same,swap,red,"(177, 0, 0)",lowProb,lowProb3,rectangular,uniform,1,undefined,0,0.15625,1,1,344.9427083,1,30,66229,0,0,0,0,0,0,0,0,65,0,1,0.15625,344.9427083,30,66229,64,64,64,11/22/2018 14:25,Default description,yes,<openexp._canvas.legacy.Legacy object at 0x0527C7F0>,<openexp._canvas.legacy.Legacy object at 0x052EF6D0>,<openexp._canvas.legacy.Legacy object at 0x0531DB70>,<openexp._canvas.legacy.Legacy object at 0x0510A930>,<openexp._canvas.legacy.Legacy object at 0x050FA190>,<openexp._canvas.legacy.Legacy object at 0x05270290>,<openexp._canvas.legacy.Legacy object at 0x0510F9F0>,<openexp._canvas.legacy.Legacy object at 0x050FA3B0>,75,SpatProbMultiple3.osexp,C:/Userdata/Michel/SpatProbMultiple3,no,mono,no,18,no,white,no,yes,0.09,98,1050,legacy,315,39,39,1,C:/Userdata/Michel/SpatProbMultiple3/beh/subject-4.csv,legacy,9,192,25,Kafkaesque Koffka,3.2.5,yes,598477b2b83f69022949e7e9,47,red,rectangular,red,rectangular,0,/,2261,space,4701,4701,"(80, 80, 80)","(0, 123, 0)","(177, 0, 0)","(155, 155, 155)",2,legacy,experiment,"[3, 4, 5, 6, 7, 0, 1, 2]",/,2500,3000,0,8,252.7587515,1024,2,48000,-16,main,"[(0, -252), (178, -178), (252, 0), (178, 178), (0, 252), (-178, 178), (-252, 0), (-178, -178)]",[],28,even,6,NA,112297,224198,224198,20834,19825,1974,26634,26634,1974,1975,25536,351006,1972,224198,348742,347811,347811,NA,921,study_X,0,4701,1,yes,1680
undefined,undefined,NA,NA,NA,4701,4701,black,no,legacy,legacy,legacy,0,red,"(177, 0, 0)",color,present,lowProb4,rectangular,same,same,swap,same,green,"(0, 123, 0)",highProbShape,highProbShape,rectangular,uniform,0,undefined,0,0.15625,1,1,357.9635417,1,30,68729,0,0,0,0,0,0,0,0,66,0,1,0.15625,357.9635417,30,68729,65,65,65,11/22/2018 14:25,Default description,yes,<openexp._canvas.legacy.Legacy object at 0x0527C7F0>,<openexp._canvas.legacy.Legacy object at 0x052EF6D0>,<openexp._canvas.legacy.Legacy object at 0x0531DB70>,<openexp._canvas.legacy.Legacy object at 0x0510A930>,<openexp._canvas.legacy.Legacy object at 0x050FA190>,<openexp._canvas.legacy.Legacy object at 0x05270290>,<openexp._canvas.legacy.Legacy object at 0x0510F4B0>,<openexp._canvas.legacy.Legacy object at 0x050FA3B0>,75,SpatProbMultiple3.osexp,C:/Userdata/Michel/SpatProbMultiple3,no,mono,no,18,no,white,no,yes,0.09,98,1050,legacy,45,40,40,1,C:/Userdata/Michel/SpatProbMultiple3/beh/subject-4.csv,legacy,9,192,25,Kafkaesque Koffka,3.2.5,yes,598477b2b83f69022949e7e9,47,red,rectangular,green,rectangular,0,None,2500,space,4701,4701,"(80, 80, 80)","(0, 123, 0)","(177, 0, 0)","(155, 155, 155)",2,legacy,experiment,"[3, 4, 5, 6, 7, 0, 1, 2]",\,2500,3000,0,8,252.7587515,1024,2,48000,-16,main,"[(0, -252), (178, -178), (252, 0), (178, 178), (0, 252), (-178, 178), (-252, 0), (-178, -178)]",[],28,even,7,NA,112297,224198,224198,20834,19825,1974,26634,26634,1974,1975,25536,354885,1972,224198,352382,351451,351451,NA,921,study_X,0,4701,1,yes,1680
undefined,undefined,NA,NA,NA,4701,4701,black,no,legacy,legacy,legacy,0,green,"(0, 123, 0)",shape,absent,lowProb4,rectangular,swap,same,same,same,green,"(0, 123, 0)",highProbShape,highProbShape,rectangular,uniform,0,undefined,0,0.15625,1,1,370.984375,1,30,71229,0,0,0,0,0,0,0,0,67,0,1,0.15625,370.984375,30,71229,66,66,66,11/22/2018 14:25,Default description,yes,<openexp._canvas.legacy.Legacy object at 0x0527C7F0>,<openexp._canvas.legacy.Legacy object at 0x052EF6D0>,<openexp._canvas.legacy.Legacy object at 0x0531DB70>,<openexp._canvas.legacy.Legacy object at 0x0510A930>,<openexp._canvas.legacy.Legacy object at 0x050FA190>,<openexp._canvas.legacy.Legacy object at 0x05270290>,<openexp._canvas.legacy.Legacy object at 0x0527CBD0>,<openexp._canvas.legacy.Legacy object at 0x050FA3B0>,75,SpatProbMultiple3.osexp,C:/Userdata/Michel/SpatProbMultiple3,no,mono,no,18,no,white,no,yes,0.09,98,1050,legacy,315,41,41,1,C:/Userdata/Michel/SpatProbMultiple3/beh/subject-4.csv,legacy,9,192,25,Kafkaesque Koffka,3.2.5,yes,598477b2b83f69022949e7e9,47,green,rectangular,green,rectangular,0,None,2500,space,4701,4701,"(80, 80, 80)","(0, 123, 0)","(177, 0, 0)","(155, 155, 155)",2,legacy,experiment,"[3, 4, 5, 6, 7, 0, 1, 2]",/,2500,3000,0,8,252.7587515,1024,2,48000,-16,main,"[(0, -252), (178, -178), (252, 0), (178, 178), (0, 252), (-178, 178), (-252, 0), (-178, -178)]",[],28,even,7,NA,112297,224198,224198,20834,19825,1974,26634,26634,1974,1975,25536,358761,1972,224198,356258,355327,355327,NA,921,study_X,0,4701,1,yes,1680
undefined,undefined,NA,NA,NA,4701,4701,black,no,legacy,legacy,legacy,0,green,"(0, 123, 0)",shape,present,highProb,rectangular,same,same,same,swap,green,"(0, 123, 0)",lowProb,lowProb6,circular,uniform,1,undefined,0,0.161458333,1,1,375.6927083,1,31,72133,0,0,0,0,0,0,0,0,68,0,1,0.161458333,375.6927083,31,72133,67,67,67,11/22/2018 14:25,Default description,yes,<openexp._canvas.legacy.Legacy object at 0x0527C7F0>,<openexp._canvas.legacy.Legacy object at 0x052EF6D0>,<openexp._canvas.legacy.Legacy object at 0x0531DB70>,<openexp._canvas.legacy.Legacy object at 0x0510A930>,<openexp._canvas.legacy.Legacy object at 0x050FA190>,<openexp._canvas.legacy.Legacy object at 0x05270290>,<openexp._canvas.legacy.Legacy object at 0x052F2750>,<openexp._canvas.legacy.Legacy object at 0x050FA3B0>,75,SpatProbMultiple3.osexp,C:/Userdata/Michel/SpatProbMultiple3,no,mono,no,18,no,white,no,yes,0.09,98,1050,legacy,315,42,42,1,C:/Userdata/Michel/SpatProbMultiple3/beh/subject-4.csv,legacy,9,192,25,Kafkaesque Koffka,3.2.5,yes,598477b2b83f69022949e7e9,47,green,rectangular,green,circular,0,/,904,space,4701,4701,"(80, 80, 80)","(0, 123, 0)","(177, 0, 0)","(155, 155, 155)",2,legacy,experiment,"[3, 4, 5, 6, 7, 0, 1, 2]",/,2500,3000,0,8,252.7587515,1024,2,48000,-16,main,"[(0, -252), (178, -178), (252, 0), (178, 178), (0, 252), (-178, 178), (-252, 0), (-178, -178)]",[],28,even,2,NA,112297,224198,224198,20834,19825,1974,26634,26634,1974,1975,25536,361053,1972,224198,360147,359216,359216,NA,921,study_X,0,4701,1,yes,1680
undefined,undefined,NA,NA,NA,4701,4701,black,no,legacy,legacy,legacy,0,red,"(177, 0, 0)",shape,present,lowProb4,rectangular,swap,same,swap,same,red,"(177, 0, 0)",lowProb,lowProb1,circular,uniform,1,undefined,0,0.166666667,1,1,388.6770833,1,32,74626,0,0,0,0,0,0,0,0,69,0,1,0.166666667,388.6770833,32,74626,68,68,68,11/22/2018 14:25,Default description,yes,<openexp._canvas.legacy.Legacy object at 0x0527C7F0>,<openexp._canvas.legacy.Legacy object at 0x052EF6D0>,<openexp._canvas.legacy.Legacy object at 0x0531DB70>,<openexp._canvas.legacy.Legacy object at 0x0510A930>,<openexp._canvas.legacy.Legacy object at 0x050FA190>,<openexp._canvas.legacy.Legacy object at 0x05270290>,<openexp._canvas.legacy.Legacy object at 0x0510F190>,<openexp._canvas.legacy.Legacy object at 0x050FA3B0>,75,SpatProbMultiple3.osexp,C:/Userdata/Michel/SpatProbMultiple3,no,mono,no,18,no,white,no,yes,0.09,98,1050,legacy,315,43,43,1,C:/Userdata/Michel/SpatProbMultiple3/beh/subject-4.csv,legacy,9,192,25,Kafkaesque Koffka,3.2.5,yes,598477b2b83f69022949e7e9,47,red,rectangular,red,circular,0,/,2493,space,4701,4701,"(80, 80, 80)","(0, 123, 0)","(177, 0, 0)","(155, 155, 155)",2,legacy,experiment,"[3, 4, 5, 6, 7, 0, 1, 2]",/,2500,3000,0,8,252.7587515,1024,2,48000,-16,main,"[(0, -252), (178, -178), (252, 0), (178, 178), (0, 252), (-178, 178), (-252, 0), (-178, -178)]",[],28,even,4,NA,112297,224198,224198,20834,19825,1974,26634,26634,1974,1975,25536,364925,1972,224198,362429,361498,361498,NA,921,study_X,0,4701,1,yes,1680
undefined,undefined,NA,NA,NA,4701,4701,black,no,legacy,legacy,legacy,0,red,"(177, 0, 0)",shape,present,highProb,rectangular,same,same,same,same,red,"(177, 0, 0)",highProbColor,highProbColor,circular,uniform,1,undefined,0,0.171875,1,1,395.6510417,1,33,75965,0,0,0,0,0,0,0,0,70,0,1,0.171875,395.6510417,33,75965,69,69,69,11/22/2018 14:25,Default description,yes,<openexp._canvas.legacy.Legacy object at 0x0527C7F0>,<openexp._canvas.legacy.Legacy object at 0x052EF6D0>,<openexp._canvas.legacy.Legacy object at 0x0531DB70>,<openexp._canvas.legacy.Legacy object at 0x0510A930>,<openexp._canvas.legacy.Legacy object at 0x050FA190>,<openexp._canvas.legacy.Legacy object at 0x05270290>,<openexp._canvas.legacy.Legacy object at 0x052EF7B0>,<openexp._canvas.legacy.Legacy object at 0x050FA3B0>,75,SpatProbMultiple3.osexp,C:/Userdata/Michel/SpatProbMultiple3,no,mono,no,18,no,white,no,yes,0.09,98,1050,legacy,315,44,44,1,C:/Userdata/Michel/SpatProbMultiple3/beh/subject-4.csv,legacy,9,192,25,Kafkaesque Koffka,3.2.5,yes,598477b2b83f69022949e7e9,47,red,rectangular,red,circular,0,/,1339,space,4701,4701,"(80, 80, 80)","(0, 123, 0)","(177, 0, 0)","(155, 155, 155)",2,legacy,experiment,"[3, 4, 5, 6, 7, 0, 1, 2]",/,2500,3000,0,8,252.7587515,1024,2,48000,-16,main,"[(0, -252), (178, -178), (252, 0), (178, 178), (0, 252), (-178, 178), (-252, 0), (-178, -178)]",[],28,even,3,NA,112297,224198,224198,20834,19825,1974,26634,26634,1974,1975,25536,367646,1972,224198,366303,365372,365372,NA,921,study_X,0,4701,1,yes,1680
undefined,undefined,NA,NA,NA,4701,4701,black,no,legacy,legacy,legacy,0,green,"(0, 123, 0)",color,present,highProb,rectangular,swap,same,same,swap,red,"(177, 0, 0)",lowProb,lowProb6,rectangular,uniform,1,undefined,0,0.177083333,1,1,402.3177083,1,34,77245,0,0,0,0,0,0,0,0,71,0,1,0.177083333,402.3177083,34,77245,70,70,70,11/22/2018 14:25,Default description,yes,<openexp._canvas.legacy.Legacy object at 0x0527C7F0>,<openexp._canvas.legacy.Legacy object at 0x052EF6D0>,<openexp._canvas.legacy.Legacy object at 0x0531DB70>,<openexp._canvas.legacy.Legacy object at 0x0510A930>,<openexp._canvas.legacy.Legacy object at 0x050FA190>,<openexp._canvas.legacy.Legacy object at 0x05270290>,<openexp._canvas.legacy.Legacy object at 0x05301090>,<openexp._canvas.legacy.Legacy object at 0x050FA3B0>,75,SpatProbMultiple3.osexp,C:/Userdata/Michel/SpatProbMultiple3,no,mono,no,18,no,white,no,yes,0.09,98,1050,legacy,315,45,45,1,C:/Userdata/Michel/SpatProbMultiple3/beh/subject-4.csv,legacy,9,192,25,Kafkaesque Koffka,3.2.5,yes,598477b2b83f69022949e7e9,47,green,rectangular,red,rectangular,0,/,1280,space,4701,4701,"(80, 80, 80)","(0, 123, 0)","(177, 0, 0)","(155, 155, 155)",2,legacy,experiment,"[3, 4, 5, 6, 7, 0, 1, 2]",/,2500,3000,0,8,252.7587515,1024,2,48000,-16,main,"[(0, -252), (178, -178), (252, 0), (178, 178), (0, 252), (-178, 178), (-252, 0), (-178, -178)]",[],28,even,2,NA,112297,224198,224198,20834,19825,1974,26634,26634,1974,1975,25536,370310,1972,224198,369026,368095,368095,NA,921,study_X,0,4701,1,yes,1680
undefined,undefined,NA,NA,NA,4701,4701,black,no,legacy,legacy,legacy,0,red,"(177, 0, 0)",shape,present,lowProb4,rectangular,swap,same,same,swap,red,"(177, 0, 0)",lowProb,lowProb3,circular,uniform,1,undefined,0,0.182291667,1,1,407.765625,1,35,78291,0,0,0,0,0,0,0,0,72,0,1,0.182291667,407.765625,35,78291,71,71,71,11/22/2018 14:25,Default description,yes,<openexp._canvas.legacy.Legacy object at 0x0527C7F0>,<openexp._canvas.legacy.Legacy object at 0x052EF6D0>,<openexp._canvas.legacy.Legacy object at 0x0531DB70>,<openexp._canvas.legacy.Legacy object at 0x0510A930>,<openexp._canvas.legacy.Legacy object at 0x050FA190>,<openexp._canvas.legacy.Legacy object at 0x05270290>,<openexp._canvas.legacy.Legacy object at 0x052F6AF0>,<openexp._canvas.legacy.Legacy object at 0x050FA3B0>,75,SpatProbMultiple3.osexp,C:/Userdata/Michel/SpatProbMultiple3,no,mono,no,18,no,white,no,yes,0.09,98,1050,legacy,45,46,46,1,C:/Userdata/Michel/SpatProbMultiple3/beh/subject-4.csv,legacy,9,192,25,Kafkaesque Koffka,3.2.5,yes,598477b2b83f69022949e7e9,47,red,rectangular,red,circular,0,\,1046,space,4701,4701,"(80, 80, 80)","(0, 123, 0)","(177, 0, 0)","(155, 155, 155)",2,legacy,experiment,"[3, 4, 5, 6, 7, 0, 1, 2]",\,2500,3000,0,8,252.7587515,1024,2,48000,-16,main,"[(0, -252), (178, -178), (252, 0), (178, 178), (0, 252), (-178, 178), (-252, 0), (-178, -178)]",[],28,even,6,NA,112297,224198,224198,20834,19825,1974,26634,26634,1974,1975,25536,372742,1972,224198,371692,370763,370763,NA,921,study_X,0,4701,1,yes,1680
undefined,undefined,NA,NA,NA,4701,4701,black,no,legacy,legacy,legacy,0,green,"(0, 123, 0)",color,present,highProb,rectangular,swap,same,same,swap,red,"(177, 0, 0)",lowProb,lowProb1,rectangular,uniform,1,undefined,0,0.1875,1,1,412.2552083,1,36,79153,0,0,0,0,0,0,0,0,73,0,1,0.1875,412.2552083,36,79153,72,72,72,11/22/2018 14:25,Default description,yes,<openexp._canvas.legacy.Legacy object at 0x0527C7F0>,<openexp._canvas.legacy.Legacy object at 0x052EF6D0>,<openexp._canvas.legacy.Legacy object at 0x0531DB70>,<openexp._canvas.legacy.Legacy object at 0x0510A930>,<openexp._canvas.legacy.Legacy object at 0x050FA190>,<openexp._canvas.legacy.Legacy object at 0x05270290>,<openexp._canvas.legacy.Legacy object at 0x052EF370>,<openexp._canvas.legacy.Legacy object at 0x050FA3B0>,75,SpatProbMultiple3.osexp,C:/Userdata/Michel/SpatProbMultiple3,no,mono,no,18,no,white,no,yes,0.09,98,1050,legacy,315,47,47,1,C:/Userdata/Michel/SpatProbMultiple3/beh/subject-4.csv,legacy,9,192,25,Kafkaesque Koffka,3.2.5,yes,598477b2b83f69022949e7e9,47,green,rectangular,red,rectangular,0,/,862,space,4701,4701,"(80, 80, 80)","(0, 123, 0)","(177, 0, 0)","(155, 155, 155)",2,legacy,experiment,"[3, 4, 5, 6, 7, 0, 1, 2]",/,2500,3000,0,8,252.7587515,1024,2,48000,-16,main,"[(0, -252), (178, -178), (252, 0), (178, 178), (0, 252), (-178, 178), (-252, 0), (-178, -178)]",[],28,even,4,NA,112297,224198,224198,20834,19825,1974,26634,26634,1974,1975,25536,374997,1972,224198,374132,373201,373201,NA,921,study_X,0,4701,1,yes,1680
undefined,undefined,NA,NA,NA,4701,4701,black,no,legacy,legacy,legacy,0,red,"(177, 0, 0)",shape,present,highProb,rectangular,swap,same,same,swap,red,"(177, 0, 0)",lowProb,lowProb4,circular,uniform,1,undefined,0,0.192708333,1,1,424.8020833,1,37,81562,0,0,0,0,0,0,0,0,74,0,1,0.192708333,424.8020833,37,81562,73,73,73,11/22/2018 14:25,Default description,yes,<openexp._canvas.legacy.Legacy object at 0x0527C7F0>,<openexp._canvas.legacy.Legacy object at 0x052EF6D0>,<openexp._canvas.legacy.Legacy object at 0x0531DB70>,<openexp._canvas.legacy.Legacy object at 0x0510A930>,<openexp._canvas.legacy.Legacy object at 0x050FA190>,<openexp._canvas.legacy.Legacy object at 0x05270290>,<openexp._canvas.legacy.Legacy object at 0x05287BB0>,<openexp._canvas.legacy.Legacy object at 0x050FA3B0>,75,SpatProbMultiple3.osexp,C:/Userdata/Michel/SpatProbMultiple3,no,mono,no,18,no,white,no,yes,0.09,98,1050,legacy,315,48,48,1,C:/Userdata/Michel/SpatProbMultiple3/beh/subject-4.csv,legacy,9,192,25,Kafkaesque Koffka,3.2.5,yes,598477b2b83f69022949e7e9,47,red,rectangular,red,circular,0,/,2409,space,4701,4701,"(80, 80, 80)","(0, 123, 0)","(177, 0, 0)","(155, 155, 155)",2,legacy,experiment,"[3, 4, 5, 6, 7, 0, 1, 2]",/,2500,3000,0,8,252.7587515,1024,2,48000,-16,main,"[(0, -252), (178, -178), (252, 0), (178, 178), (0, 252), (-178, 178), (-252, 0), (-178, -178)]",[],28,even,0,NA,112297,224198,224198,20834,19825,1974,26634,26634,1974,1975,25536,378789,1972,224198,376378,375447,375447,NA,921,study_X,0,4701,1,yes,1680
undefined,undefined,NA,NA,NA,4701,4701,black,no,legacy,legacy,legacy,0,green,"(0, 123, 0)",shape,present,highProbOther,circular,swap,swap,swap,swap,green,"(0, 123, 0)",lowProb,lowProb6,rectangular,uniform,1,undefined,0,0.197916667,1,1,430.8333333,1,38,82720,0,0,0,0,0,0,0,0,75,0,1,0.197916667,430.8333333,38,82720,74,74,74,11/22/2018 14:25,Default description,yes,<openexp._canvas.legacy.Legacy object at 0x0527C7F0>,<openexp._canvas.legacy.Legacy object at 0x052EF6D0>,<openexp._canvas.legacy.Legacy object at 0x0531DB70>,<openexp._canvas.legacy.Legacy object at 0x0510A930>,<openexp._canvas.legacy.Legacy object at 0x050FA190>,<openexp._canvas.legacy.Legacy object at 0x05270290>,<openexp._canvas.legacy.Legacy object at 0x052F2730>,<openexp._canvas.legacy.Legacy object at 0x050FA3B0>,75,SpatProbMultiple3.osexp,C:/Userdata/Michel/SpatProbMultiple3,no,mono,no,18,no,white,no,yes,0.09,98,1050,legacy,315,49,49,1,C:/Userdata/Michel/SpatProbMultiple3/beh/subject-4.csv,legacy,9,192,25,Kafkaesque Koffka,3.2.5,yes,598477b2b83f69022949e7e9,47,green,circular,green,rectangular,0,/,1158,space,4701,4701,"(80, 80, 80)","(0, 123, 0)","(177, 0, 0)","(155, 155, 155)",2,legacy,experiment,"[3, 4, 5, 6, 7, 0, 1, 2]",/,2500,3000,0,8,252.7587515,1024,2,48000,-16,main,"[(0, -252), (178, -178), (252, 0), (178, 178), (0, 252), (-178, 178), (-252, 0), (-178, -178)]",[],28,even,2,NA,112297,224198,224198,20834,19825,1974,26634,26634,1974,1975,25536,381333,1972,224198,380172,379240,379240,NA,921,study_X,0,4701,1,yes,1680
undefined,undefined,NA,NA,NA,4701,4701,black,no,legacy,legacy,legacy,0,green,"(0, 123, 0)",color,absent,lowProb3,circular,same,same,same,swap,green,"(0, 123, 0)",lowProb,lowProb6,circular,uniform,1,undefined,0,0.203125,1,1,434.8802083,1,39,83497,0,0,0,0,0,0,0,0,76,0,1,0.203125,434.8802083,39,83497,75,75,75,11/22/2018 14:25,Default description,yes,<openexp._canvas.legacy.Legacy object at 0x0527C7F0>,<openexp._canvas.legacy.Legacy object at 0x052EF6D0>,<openexp._canvas.legacy.Legacy object at 0x0531DB70>,<openexp._canvas.legacy.Legacy object at 0x0510A930>,<openexp._canvas.legacy.Legacy object at 0x050FA190>,<openexp._canvas.legacy.Legacy object at 0x05270290>,<openexp._canvas.legacy.Legacy object at 0x0510F350>,<openexp._canvas.legacy.Legacy object at 0x050FA3B0>,75,SpatProbMultiple3.osexp,C:/Userdata/Michel/SpatProbMultiple3,no,mono,no,18,no,white,no,yes,0.09,98,1050,legacy,315,50,50,1,C:/Userdata/Michel/SpatProbMultiple3/beh/subject-4.csv,legacy,9,192,25,Kafkaesque Koffka,3.2.5,yes,598477b2b83f69022949e7e9,47,green,circular,green,circular,0,/,777,space,4701,4701,"(80, 80, 80)","(0, 123, 0)","(177, 0, 0)","(155, 155, 155)",2,legacy,experiment,"[3, 4, 5, 6, 7, 0, 1, 2]",/,2500,3000,0,8,252.7587515,1024,2,48000,-16,main,"[(0, -252), (178, -178), (252, 0), (178, 178), (0, 252), (-178, 178), (-252, 0), (-178, -178)]",[],28,even,2,NA,112297,224198,224198,20834,19825,1974,26634,26634,1974,1975,25536,383493,1972,224198,382712,381780,381781,NA,921,study_X,0,4701,1,yes,1680
undefined,undefined,NA,NA,NA,4701,4701,black,no,legacy,legacy,legacy,0,green,"(0, 123, 0)",color,present,highProb,rectangular,same,swap,swap,swap,red,"(177, 0, 0)",lowProb,lowProb2,rectangular,uniform,1,undefined,0,0.208333333,1,1,441.796875,1,40,84825,0,0,0,0,0,0,0,0,77,0,1,0.208333333,441.796875,40,84825,76,76,76,11/22/2018 14:25,Default description,yes,<openexp._canvas.legacy.Legacy object at 0x0527C7F0>,<openexp._canvas.legacy.Legacy object at 0x052EF6D0>,<openexp._canvas.legacy.Legacy object at 0x0531DB70>,<openexp._canvas.legacy.Legacy object at 0x0510A930>,<openexp._canvas.legacy.Legacy object at 0x050FA190>,<openexp._canvas.legacy.Legacy object at 0x05270290>,<openexp._canvas.legacy.Legacy object at 0x05301E30>,<openexp._canvas.legacy.Legacy object at 0x050FA3B0>,75,SpatProbMultiple3.osexp,C:/Userdata/Michel/SpatProbMultiple3,no,mono,no,18,no,white,no,yes,0.09,98,1050,legacy,45,51,51,1,C:/Userdata/Michel/SpatProbMultiple3/beh/subject-4.csv,legacy,9,192,25,Kafkaesque Koffka,3.2.5,yes,598477b2b83f69022949e7e9,47,green,rectangular,red,rectangular,0,\,1328,space,4701,4701,"(80, 80, 80)","(0, 123, 0)","(177, 0, 0)","(155, 155, 155)",2,legacy,experiment,"[3, 4, 5, 6, 7, 0, 1, 2]",\,2500,3000,0,8,252.7587515,1024,2,48000,-16,main,"[(0, -252), (178, -178), (252, 0), (178, 178), (0, 252), (-178, 178), (-252, 0), (-178, -178)]",[],28,even,5,NA,112297,224198,224198,20834,19825,1974,26634,26634,1974,1975,25536,386238,1972,224198,384906,383975,383975,NA,921,study_X,0,4701,1,yes,1680
undefined,undefined,NA,NA,NA,4701,4701,black,no,legacy,legacy,legacy,0,red,"(177, 0, 0)",shape,absent,lowProb1,circular,swap,swap,same,swap,red,"(177, 0, 0)",lowProb,lowProb4,circular,uniform,0,undefined,0,0.208333333,1,1,453.59375,1,40,87090,0,0,0,0,0,0,0,0,78,0,1,0.208333333,453.59375,40,87090,77,77,77,11/22/2018 14:25,Default description,yes,<openexp._canvas.legacy.Legacy object at 0x0527C7F0>,<openexp._canvas.legacy.Legacy object at 0x052EF6D0>,<openexp._canvas.legacy.Legacy object at 0x0531DB70>,<openexp._canvas.legacy.Legacy object at 0x0510A930>,<openexp._canvas.legacy.Legacy object at 0x050FA190>,<openexp._canvas.legacy.Legacy object at 0x05270290>,<openexp._canvas.legacy.Legacy object at 0x0527C3B0>,<openexp._canvas.legacy.Legacy object at 0x050FA3B0>,75,SpatProbMultiple3.osexp,C:/Userdata/Michel/SpatProbMultiple3,no,mono,no,18,no,white,no,yes,0.09,98,1050,legacy,45,52,52,1,C:/Userdata/Michel/SpatProbMultiple3/beh/subject-4.csv,legacy,9,192,25,Kafkaesque Koffka,3.2.5,yes,598477b2b83f69022949e7e9,47,red,circular,red,circular,0,/,2265,space,4701,4701,"(80, 80, 80)","(0, 123, 0)","(177, 0, 0)","(155, 155, 155)",2,legacy,experiment,"[3, 4, 5, 6, 7, 0, 1, 2]",\,2500,3000,0,8,252.7587515,1024,2,48000,-16,main,"[(0, -252), (178, -178), (252, 0), (178, 178), (0, 252), (-178, 178), (-252, 0), (-178, -178)]",[],28,even,0,NA,112297,224198,224198,20834,19825,1974,26634,26634,1974,1975,25536,389901,1972,224198,387633,386702,386702,NA,921,study_X,0,4701,1,yes,1680
undefined,undefined,NA,NA,NA,4701,4701,black,no,legacy,legacy,legacy,0,green,"(0, 123, 0)",shape,absent,highProbOther,circular,swap,same,swap,same,green,"(0, 123, 0)",lowProb,lowProb5,circular,uniform,1,undefined,0,0.213541667,1,1,465.625,1,41,89400,0,0,0,0,0,0,0,0,79,0,1,0.213541667,465.625,41,89400,78,78,78,11/22/2018 14:25,Default description,yes,<openexp._canvas.legacy.Legacy object at 0x0527C7F0>,<openexp._canvas.legacy.Legacy object at 0x052EF6D0>,<openexp._canvas.legacy.Legacy object at 0x0531DB70>,<openexp._canvas.legacy.Legacy object at 0x0510A930>,<openexp._canvas.legacy.Legacy object at 0x050FA190>,<openexp._canvas.legacy.Legacy object at 0x05270290>,<openexp._canvas.legacy.Legacy object at 0x052F4E90>,<openexp._canvas.legacy.Legacy object at 0x050FA3B0>,75,SpatProbMultiple3.osexp,C:/Userdata/Michel/SpatProbMultiple3,no,mono,no,18,no,white,no,yes,0.09,98,1050,legacy,45,53,53,1,C:/Userdata/Michel/SpatProbMultiple3/beh/subject-4.csv,legacy,9,192,25,Kafkaesque Koffka,3.2.5,yes,598477b2b83f69022949e7e9,47,green,circular,green,circular,0,\,2310,space,4701,4701,"(80, 80, 80)","(0, 123, 0)","(177, 0, 0)","(155, 155, 155)",2,legacy,experiment,"[3, 4, 5, 6, 7, 0, 1, 2]",\,2500,3000,0,8,252.7587515,1024,2,48000,-16,main,"[(0, -252), (178, -178), (252, 0), (178, 178), (0, 252), (-178, 178), (-252, 0), (-178, -178)]",[],28,even,1,NA,112297,224198,224198,20834,19825,1974,26634,26634,1974,1975,25536,393605,1972,224198,391292,390360,390360,NA,921,study_X,0,4701,1,yes,1680
undefined,undefined,NA,NA,NA,4701,4701,black,no,legacy,legacy,legacy,0,red,"(177, 0, 0)",shape,absent,lowProb1,circular,swap,same,swap,same,red,"(177, 0, 0)",highProbColor,highProbColor,circular,uniform,0,undefined,0,0.213541667,1,1,473.9479167,1,41,90998,0,0,0,0,0,0,0,0,80,0,1,0.213541667,473.9479167,41,90998,79,79,79,11/22/2018 14:25,Default description,yes,<openexp._canvas.legacy.Legacy object at 0x0527C7F0>,<openexp._canvas.legacy.Legacy object at 0x052EF6D0>,<openexp._canvas.legacy.Legacy object at 0x0531DB70>,<openexp._canvas.legacy.Legacy object at 0x0510A930>,<openexp._canvas.legacy.Legacy object at 0x050FA190>,<openexp._canvas.legacy.Legacy object at 0x05270290>,<openexp._canvas.legacy.Legacy object at 0x0527C0B0>,<openexp._canvas.legacy.Legacy object at 0x050FA3B0>,75,SpatProbMultiple3.osexp,C:/Userdata/Michel/SpatProbMultiple3,no,mono,no,18,no,white,no,yes,0.09,98,1050,legacy,45,54,54,1,C:/Userdata/Michel/SpatProbMultiple3/beh/subject-4.csv,legacy,9,192,25,Kafkaesque Koffka,3.2.5,yes,598477b2b83f69022949e7e9,47,red,circular,red,circular,0,/,1598,space,4701,4701,"(80, 80, 80)","(0, 123, 0)","(177, 0, 0)","(155, 155, 155)",2,legacy,experiment,"[3, 4, 5, 6, 7, 0, 1, 2]",\,2500,3000,0,8,252.7587515,1024,2,48000,-16,main,"[(0, -252), (178, -178), (252, 0), (178, 178), (0, 252), (-178, 178), (-252, 0), (-178, -178)]",[],28,even,3,NA,112297,224198,224198,20834,19825,1974,26634,26634,1974,1975,25536,396589,1972,224198,394988,394057,394057,NA,921,study_X,0,4701,1,yes,1680
undefined,undefined,NA,NA,NA,4701,4701,black,no,legacy,legacy,legacy,0,red,"(177, 0, 0)",color,present,highProb,rectangular,same,swap,swap,swap,green,"(0, 123, 0)",lowProb,lowProb5,rectangular,uniform,1,undefined,0,0.21875,1,1,485.2760417,1,42,93173,0,0,0,0,0,0,0,0,81,0,1,0.21875,485.2760417,42,93173,80,80,80,11/22/2018 14:25,Default description,yes,<openexp._canvas.legacy.Legacy object at 0x0527C7F0>,<openexp._canvas.legacy.Legacy object at 0x052EF6D0>,<openexp._canvas.legacy.Legacy object at 0x0531DB70>,<openexp._canvas.legacy.Legacy object at 0x0510A930>,<openexp._canvas.legacy.Legacy object at 0x050FA190>,<openexp._canvas.legacy.Legacy object at 0x05270290>,<openexp._canvas.legacy.Legacy object at 0x052F4330>,<openexp._canvas.legacy.Legacy object at 0x050FA3B0>,75,SpatProbMultiple3.osexp,C:/Userdata/Michel/SpatProbMultiple3,no,mono,no,18,no,white,no,yes,0.09,98,1050,legacy,45,55,55,1,C:/Userdata/Michel/SpatProbMultiple3/beh/subject-4.csv,legacy,9,192,25,Kafkaesque Koffka,3.2.5,yes,598477b2b83f69022949e7e9,47,red,rectangular,green,rectangular,0,\,2175,space,4701,4701,"(80, 80, 80)","(0, 123, 0)","(177, 0, 0)","(155, 155, 155)",2,legacy,experiment,"[3, 4, 5, 6, 7, 0, 1, 2]",\,2500,3000,0,8,252.7587515,1024,2,48000,-16,main,"[(0, -252), (178, -178), (252, 0), (178, 178), (0, 252), (-178, 178), (-252, 0), (-178, -178)]",[],28,even,1,NA,112297,224198,224198,20834,19825,1974,26634,26634,1974,1975,25536,400141,1972,224198,397962,397031,397031,NA,921,study_X,0,4701,1,yes,1680
undefined,undefined,NA,NA,NA,4701,4701,black,no,legacy,legacy,legacy,0,green,"(0, 123, 0)",shape,present,highProb,rectangular,swap,same,same,swap,green,"(0, 123, 0)",lowProb,lowProb2,circular,uniform,1,undefined,0,0.223958333,1,1,490.4791667,1,43,94172,0,0,0,0,0,0,0,0,82,0,1,0.223958333,490.4791667,43,94172,81,81,81,11/22/2018 14:25,Default description,yes,<openexp._canvas.legacy.Legacy object at 0x0527C7F0>,<openexp._canvas.legacy.Legacy object at 0x052EF6D0>,<openexp._canvas.legacy.Legacy object at 0x0531DB70>,<openexp._canvas.legacy.Legacy object at 0x0510A930>,<openexp._canvas.legacy.Legacy object at 0x050FA190>,<openexp._canvas.legacy.Legacy object at 0x05270290>,<openexp._canvas.legacy.Legacy object at 0x0531DC70>,<openexp._canvas.legacy.Legacy object at 0x050FA3B0>,75,SpatProbMultiple3.osexp,C:/Userdata/Michel/SpatProbMultiple3,no,mono,no,18,no,white,no,yes,0.09,98,1050,legacy,45,56,56,1,C:/Userdata/Michel/SpatProbMultiple3/beh/subject-4.csv,legacy,9,192,25,Kafkaesque Koffka,3.2.5,yes,598477b2b83f69022949e7e9,47,green,rectangular,green,circular,0,\,999,space,4701,4701,"(80, 80, 80)","(0, 123, 0)","(177, 0, 0)","(155, 155, 155)",2,legacy,experiment,"[3, 4, 5, 6, 7, 0, 1, 2]",\,2500,3000,0,8,252.7587515,1024,2,48000,-16,main,"[(0, -252), (178, -178), (252, 0), (178, 178), (0, 252), (-178, 178), (-252, 0), (-178, -178)]",[],28,even,5,NA,112297,224198,224198,20834,19825,1974,26634,26634,1974,1975,25536,402534,1972,224198,401531,400600,400600,NA,921,study_X,0,4701,1,yes,1680
undefined,undefined,NA,NA,NA,4701,4701,black,no,legacy,legacy,legacy,0,green,"(0, 123, 0)",color,present,highProb,circular,same,swap,swap,same,red,"(177, 0, 0)",lowProb,lowProb2,circular,uniform,1,undefined,0,0.229166667,1,1,494.4791667,1,44,94940,0,0,0,0,0,0,0,0,83,0,1,0.229166667,494.4791667,44,94940,82,82,82,11/22/2018 14:25,Default description,yes,<openexp._canvas.legacy.Legacy object at 0x0527C7F0>,<openexp._canvas.legacy.Legacy object at 0x052EF6D0>,<openexp._canvas.legacy.Legacy object at 0x0531DB70>,<openexp._canvas.legacy.Legacy object at 0x0510A930>,<openexp._canvas.legacy.Legacy object at 0x050FA190>,<openexp._canvas.legacy.Legacy object at 0x05270290>,<openexp._canvas.legacy.Legacy object at 0x050FD730>,<openexp._canvas.legacy.Legacy object at 0x050FA3B0>,75,SpatProbMultiple3.osexp,C:/Userdata/Michel/SpatProbMultiple3,no,mono,no,18,no,white,no,yes,0.09,98,1050,legacy,45,57,57,1,C:/Userdata/Michel/SpatProbMultiple3/beh/subject-4.csv,legacy,9,192,25,Kafkaesque Koffka,3.2.5,yes,598477b2b83f69022949e7e9,47,green,circular,red,circular,0,\,768,space,4701,4701,"(80, 80, 80)","(0, 123, 0)","(177, 0, 0)","(155, 155, 155)",2,legacy,experiment,"[3, 4, 5, 6, 7, 0, 1, 2]",\,2500,3000,0,8,252.7587515,1024,2,48000,-16,main,"[(0, -252), (178, -178), (252, 0), (178, 178), (0, 252), (-178, 178), (-252, 0), (-178, -178)]",[],28,even,5,NA,112297,224198,224198,20834,19825,1974,26634,26634,1974,1975,25536,404685,1972,224198,403914,402983,402983,NA,921,study_X,0,4701,1,yes,1680
undefined,undefined,NA,NA,NA,4701,4701,black,no,legacy,legacy,legacy,0,green,"(0, 123, 0)",shape,present,highProb,circular,same,same,swap,swap,green,"(0, 123, 0)",lowProb,lowProb1,rectangular,uniform,0,undefined,0,0.229166667,1,1,506.21875,1,44,97194,0,0,0,0,0,0,0,0,84,0,1,0.229166667,506.21875,44,97194,83,83,83,11/22/2018 14:25,Default description,yes,<openexp._canvas.legacy.Legacy object at 0x0527C7F0>,<openexp._canvas.legacy.Legacy object at 0x052EF6D0>,<openexp._canvas.legacy.Legacy object at 0x0531DB70>,<openexp._canvas.legacy.Legacy object at 0x0510A930>,<openexp._canvas.legacy.Legacy object at 0x050FA190>,<openexp._canvas.legacy.Legacy object at 0x05270290>,<openexp._canvas.legacy.Legacy object at 0x052F3B30>,<openexp._canvas.legacy.Legacy object at 0x050FA3B0>,75,SpatProbMultiple3.osexp,C:/Userdata/Michel/SpatProbMultiple3,no,mono,no,18,no,white,no,yes,0.09,98,1050,legacy,45,58,58,1,C:/Userdata/Michel/SpatProbMultiple3/beh/subject-4.csv,legacy,9,192,25,Kafkaesque Koffka,3.2.5,yes,598477b2b83f69022949e7e9,47,green,circular,green,rectangular,0,/,2254,space,4701,4701,"(80, 80, 80)","(0, 123, 0)","(177, 0, 0)","(155, 155, 155)",2,legacy,experiment,"[3, 4, 5, 6, 7, 0, 1, 2]",\,2500,3000,0,8,252.7587515,1024,2,48000,-16,main,"[(0, -252), (178, -178), (252, 0), (178, 178), (0, 252), (-178, 178), (-252, 0), (-178, -178)]",[],28,even,4,NA,112297,224198,224198,20834,19825,1974,26634,26634,1974,1975,25536,408317,1972,224198,406060,405129,405129,NA,921,study_X,0,4701,1,yes,1680
undefined,undefined,NA,NA,NA,4701,4701,black,no,legacy,legacy,legacy,0,green,"(0, 123, 0)",shape,present,highProb,rectangular,same,swap,same,swap,green,"(0, 123, 0)",lowProb,lowProb4,circular,uniform,1,undefined,0,0.234375,1,1,518.8697917,1,45,99623,0,0,0,0,0,0,0,0,85,0,1,0.234375,518.8697917,45,99623,84,84,84,11/22/2018 14:25,Default description,yes,<openexp._canvas.legacy.Legacy object at 0x0527C7F0>,<openexp._canvas.legacy.Legacy object at 0x052EF6D0>,<openexp._canvas.legacy.Legacy object at 0x0531DB70>,<openexp._canvas.legacy.Legacy object at 0x0510A930>,<openexp._canvas.legacy.Legacy object at 0x050FA190>,<openexp._canvas.legacy.Legacy object at 0x05270290>,<openexp._canvas.legacy.Legacy object at 0x052F4D50>,<openexp._canvas.legacy.Legacy object at 0x050FA3B0>,75,SpatProbMultiple3.osexp,C:/Userdata/Michel/SpatProbMultiple3,no,mono,no,18,no,white,no,yes,0.09,98,1050,legacy,315,59,59,1,C:/Userdata/Michel/SpatProbMultiple3/beh/subject-4.csv,legacy,9,192,25,Kafkaesque Koffka,3.2.5,yes,598477b2b83f69022949e7e9,47,green,rectangular,green,circular,0,/,2429,space,4701,4701,"(80, 80, 80)","(0, 123, 0)","(177, 0, 0)","(155, 155, 155)",2,legacy,experiment,"[3, 4, 5, 6, 7, 0, 1, 2]",/,2500,3000,0,8,252.7587515,1024,2,48000,-16,main,"[(0, -252), (178, -178), (252, 0), (178, 178), (0, 252), (-178, 178), (-252, 0), (-178, -178)]",[],28,even,0,NA,112297,224198,224198,20834,19825,1974,26634,26634,1974,1975,25536,412125,1972,224198,409693,408762,408762,NA,921,study_X,0,4701,1,yes,1680
undefined,undefined,NA,NA,NA,4701,4701,black,no,legacy,legacy,legacy,0,green,"(0, 123, 0)",color,present,highProb,rectangular,same,same,swap,swap,red,"(177, 0, 0)",highProbShape,highProbShape,rectangular,uniform,1,undefined,0,0.239583333,1,1,529.0104167,1,46,101570,0,0,0,0,0,0,0,0,86,0,1,0.239583333,529.0104167,46,101570,85,85,85,11/22/2018 14:25,Default description,yes,<openexp._canvas.legacy.Legacy object at 0x0527C7F0>,<openexp._canvas.legacy.Legacy object at 0x052EF6D0>,<openexp._canvas.legacy.Legacy object at 0x0531DB70>,<openexp._canvas.legacy.Legacy object at 0x0510A930>,<openexp._canvas.legacy.Legacy object at 0x050FA190>,<openexp._canvas.legacy.Legacy object at 0x05270290>,<openexp._canvas.legacy.Legacy object at 0x0527C070>,<openexp._canvas.legacy.Legacy object at 0x050FA3B0>,75,SpatProbMultiple3.osexp,C:/Userdata/Michel/SpatProbMultiple3,no,mono,no,18,no,white,no,yes,0.09,98,1050,legacy,315,60,60,1,C:/Userdata/Michel/SpatProbMultiple3/beh/subject-4.csv,legacy,9,192,25,Kafkaesque Koffka,3.2.5,yes,598477b2b83f69022949e7e9,47,green,rectangular,red,rectangular,0,/,1947,space,4701,4701,"(80, 80, 80)","(0, 123, 0)","(177, 0, 0)","(155, 155, 155)",2,legacy,experiment,"[3, 4, 5, 6, 7, 0, 1, 2]",/,2500,3000,0,8,252.7587515,1024,2,48000,-16,main,"[(0, -252), (178, -178), (252, 0), (178, 178), (0, 252), (-178, 178), (-252, 0), (-178, -178)]",[],28,even,7,NA,112297,224198,224198,20834,19825,1974,26634,26634,1974,1975,25536,415469,1972,224198,413518,412587,412587,NA,921,study_X,0,4701,1,yes,1680
undefined,undefined,NA,NA,NA,4701,4701,black,no,legacy,legacy,legacy,0,green,"(0, 123, 0)",shape,absent,lowProb3,rectangular,same,same,swap,same,green,"(0, 123, 0)",lowProb,lowProb3,rectangular,uniform,0,undefined,0,0.239583333,1,1,539.421875,1,46,103569,0,0,0,0,0,0,0,0,87,0,1,0.239583333,539.421875,46,103569,86,86,86,11/22/2018 14:25,Default description,yes,<openexp._canvas.legacy.Legacy object at 0x0527C7F0>,<openexp._canvas.legacy.Legacy object at 0x052EF6D0>,<openexp._canvas.legacy.Legacy object at 0x0531DB70>,<openexp._canvas.legacy.Legacy object at 0x0510A930>,<openexp._canvas.legacy.Legacy object at 0x050FA190>,<openexp._canvas.legacy.Legacy object at 0x05270290>,<openexp._canvas.legacy.Legacy object at 0x052F3750>,<openexp._canvas.legacy.Legacy object at 0x050FA3B0>,75,SpatProbMultiple3.osexp,C:/Userdata/Michel/SpatProbMultiple3,no,mono,no,18,no,white,no,yes,0.09,98,1050,legacy,45,61,61,1,C:/Userdata/Michel/SpatProbMultiple3/beh/subject-4.csv,legacy,9,192,25,Kafkaesque Koffka,3.2.5,yes,598477b2b83f69022949e7e9,47,green,rectangular,green,rectangular,0,/,1999,space,4701,4701,"(80, 80, 80)","(0, 123, 0)","(177, 0, 0)","(155, 155, 155)",2,legacy,experiment,"[3, 4, 5, 6, 7, 0, 1, 2]",\,2500,3000,0,8,252.7587515,1024,2,48000,-16,main,"[(0, -252), (178, -178), (252, 0), (178, 178), (0, 252), (-178, 178), (-252, 0), (-178, -178)]",[],28,even,6,NA,112297,224198,224198,20834,19825,1974,26634,26634,1974,1975,25536,418845,1972,224198,416842,415912,415912,NA,921,study_X,0,4701,1,yes,1680
undefined,undefined,NA,NA,NA,4701,4701,black,no,legacy,legacy,legacy,0,green,"(0, 123, 0)",color,absent,highProbOther,circular,same,swap,same,swap,green,"(0, 123, 0)",lowProb,lowProb6,circular,uniform,1,undefined,0,0.244791667,1,1,547.6770833,1,47,105154,0,0,0,0,0,0,0,0,88,0,1,0.244791667,547.6770833,47,105154,87,87,87,11/22/2018 14:25,Default description,yes,<openexp._canvas.legacy.Legacy object at 0x0527C7F0>,<openexp._canvas.legacy.Legacy object at 0x052EF6D0>,<openexp._canvas.legacy.Legacy object at 0x0531DB70>,<openexp._canvas.legacy.Legacy object at 0x0510A930>,<openexp._canvas.legacy.Legacy object at 0x050FA190>,<openexp._canvas.legacy.Legacy object at 0x05270290>,<openexp._canvas.legacy.Legacy object at 0x050FD690>,<openexp._canvas.legacy.Legacy object at 0x050FA3B0>,75,SpatProbMultiple3.osexp,C:/Userdata/Michel/SpatProbMultiple3,no,mono,no,18,no,white,no,yes,0.09,98,1050,legacy,45,62,62,1,C:/Userdata/Michel/SpatProbMultiple3/beh/subject-4.csv,legacy,9,192,25,Kafkaesque Koffka,3.2.5,yes,598477b2b83f69022949e7e9,47,green,circular,green,circular,0,\,1585,space,4701,4701,"(80, 80, 80)","(0, 123, 0)","(177, 0, 0)","(155, 155, 155)",2,legacy,experiment,"[3, 4, 5, 6, 7, 0, 1, 2]",\,2500,3000,0,8,252.7587515,1024,2,48000,-16,main,"[(0, -252), (178, -178), (252, 0), (178, 178), (0, 252), (-178, 178), (-252, 0), (-178, -178)]",[],28,even,2,NA,112297,224198,224198,20834,19825,1974,26634,26634,1974,1975,25536,421813,1972,224198,420225,419294,419294,NA,921,study_X,0,4701,1,yes,1680
undefined,undefined,NA,NA,NA,4701,4701,black,no,legacy,legacy,legacy,0,green,"(0, 123, 0)",color,absent,lowProb4,circular,same,same,same,same,green,"(0, 123, 0)",lowProb,lowProb6,circular,uniform,1,undefined,0,0.25,1,1,552.2291667,1,48,106028,0,0,0,0,0,0,0,0,89,0,1,0.25,552.2291667,48,106028,88,88,88,11/22/2018 14:25,Default description,yes,<openexp._canvas.legacy.Legacy object at 0x0527C7F0>,<openexp._canvas.legacy.Legacy object at 0x052EF6D0>,<openexp._canvas.legacy.Legacy object at 0x0531DB70>,<openexp._canvas.legacy.Legacy object at 0x0510A930>,<openexp._canvas.legacy.Legacy object at 0x050FA190>,<openexp._canvas.legacy.Legacy object at 0x05270290>,<openexp._canvas.legacy.Legacy object at 0x052F4E90>,<openexp._canvas.legacy.Legacy object at 0x050FA3B0>,75,SpatProbMultiple3.osexp,C:/Userdata/Michel/SpatProbMultiple3,no,mono,no,18,no,white,no,yes,0.09,98,1050,legacy,45,63,63,1,C:/Userdata/Michel/SpatProbMultiple3/beh/subject-4.csv,legacy,9,192,25,Kafkaesque Koffka,3.2.5,yes,598477b2b83f69022949e7e9,47,green,circular,green,circular,0,\,874,space,4701,4701,"(80, 80, 80)","(0, 123, 0)","(177, 0, 0)","(155, 155, 155)",2,legacy,experiment,"[3, 4, 5, 6, 7, 0, 1, 2]",\,2500,3000,0,8,252.7587515,1024,2,48000,-16,main,"[(0, -252), (178, -178), (252, 0), (178, 178), (0, 252), (-178, 178), (-252, 0), (-178, -178)]",[],28,even,2,NA,112297,224198,224198,20834,19825,1974,26634,26634,1974,1975,25536,424101,1972,224198,423224,422293,422293,NA,921,study_X,0,4701,1,yes,1680
undefined,undefined,NA,NA,NA,4701,4701,black,no,legacy,legacy,legacy,0,red,"(177, 0, 0)",shape,present,lowProb3,circular,swap,same,swap,swap,red,"(177, 0, 0)",highProbColor,highProbColor,rectangular,uniform,0,undefined,0,0.25,1,1,565.25,1,48,108528,0,0,0,0,0,0,0,0,90,0,1,0.25,565.25,48,108528,89,89,89,11/22/2018 14:25,Default description,yes,<openexp._canvas.legacy.Legacy object at 0x0527C7F0>,<openexp._canvas.legacy.Legacy object at 0x052EF6D0>,<openexp._canvas.legacy.Legacy object at 0x0531DB70>,<openexp._canvas.legacy.Legacy object at 0x0510A930>,<openexp._canvas.legacy.Legacy object at 0x050FA190>,<openexp._canvas.legacy.Legacy object at 0x05270290>,<openexp._canvas.legacy.Legacy object at 0x052EFB10>,<openexp._canvas.legacy.Legacy object at 0x050FA3B0>,75,SpatProbMultiple3.osexp,C:/Userdata/Michel/SpatProbMultiple3,no,mono,no,18,no,white,no,yes,0.09,98,1050,legacy,315,64,64,1,C:/Userdata/Michel/SpatProbMultiple3/beh/subject-4.csv,legacy,9,192,25,Kafkaesque Koffka,3.2.5,yes,598477b2b83f69022949e7e9,47,red,circular,red,rectangular,0,None,2500,space,4701,4701,"(80, 80, 80)","(0, 123, 0)","(177, 0, 0)","(155, 155, 155)",2,legacy,experiment,"[3, 4, 5, 6, 7, 0, 1, 2]",/,2500,3000,0,8,252.7587515,1024,2,48000,-16,main,"[(0, -252), (178, -178), (252, 0), (178, 178), (0, 252), (-178, 178), (-252, 0), (-178, -178)]",[],28,even,3,NA,112297,224198,224198,20834,19825,1974,26634,26634,1974,1975,25536,427984,1972,224198,425481,424550,424550,NA,921,study_X,0,4701,1,yes,1680
