acc,accuracy,answerQ1,answerQ2,answerQ3,average_response_time,avg_rt,background,bidi,canvas_backend,clock_backend,color_backend,compensation,cond_disColor,cond_disColorRGB,cond_disFeature,cond_disPresent,cond_disProbability,cond_disShape,cond_primingDisColor,cond_primingDisShape,cond_primingTarColor,cond_primingTarShape,cond_tarColor,cond_tarColorRGB,cond_tarLocation,cond_tarLocationLong,cond_tarShape,coordinates,correct,correct_continuePress,count_Questions,count_blockAcc,count_blockFeed,count_blockLoop,count_blockRT,count_blockSeq,count_blockSumCorrect,count_blockSumRT,count_continuePress,count_example,count_expSettings,count_exp_mainLoop,count_experiment,count_instructions,count_instructions1,count_instructions2,count_log,count_main,count_prepCanvas,count_totalAcc,count_totalRT,count_totalSumCorrect,count_totalSumRT,count_trialResp,count_trialSeq,count_trialTask,datetime,description,disable_garbage_collection,dispBlank,dispBlockStart,dispFeedBlock,dispFix,dispInstructions,dispQuestions,dispSearch,dispStartScreen,distance2screen,experiment_file,experiment_path,font_bold,font_family,font_italic,font_size,font_underline,foreground,form_clicks,fullscreen,gaborFreq,gaborSize,height,keyboard_backend,lineOriTar,live_row,live_row_blockLoop,live_row_exp_mainLoop,logfile,mouse_backend,noExpBlocks,noExpTrials,noPracTrials,opensesame_codename,opensesame_version,osf_always_upload_experiment,osf_id,physical_screensize,previousDisColor,previousDisShape,previousTarColor,previousTarShape,repeat_cycle,response,responseTime,response_continuePress,response_time,response_time_continuePress,rgb_gray,rgb_green,rgb_red,rgb_white,round_decimals,sampler_backend,set_blockType,set_counterPositions,set_respCorrect,set_respTimeoutExp,set_respTimeoutPrac,set_rotation,set_setSize,sizeImaginary,sound_buf_size,sound_channels,sound_freq,sound_sample_size,start,stimPositions,stimuli,subject_nr,subject_parity,tarIdx,time_Questions,time_blockFeed,time_blockLoop,time_blockSeq,time_continuePress,time_example,time_expSettings,time_exp_mainLoop,time_experiment,time_instructions,time_instructions1,time_instructions2,time_log,time_main,time_prepCanvas,time_trialResp,time_trialSeq,time_trialTask,timing_EEGwait,timing_fix,title,total_correct,total_response_time,total_responses,uniform_coordinates,width
undefined,undefined,NA,NA,NA,3837,3837,black,no,legacy,legacy,legacy,0,green,"(0, 123, 0)",shape,absent,highProb,circular,swap,swap,swap,same,green,"(0, 123, 0)",highProbColor,highProbColor,circular,uniform,1,undefined,0,0.005208333,1,1,3.479166667,1,1,668,0,0,0,0,0,0,0,0,26,0,1,0.005208333,3.479166667,1,668,25,25,25,11/28/2018 10:00,Default description,yes,<openexp._canvas.legacy.Legacy object at 0x05283810>,<openexp._canvas.legacy.Legacy object at 0x05299850>,<openexp._canvas.legacy.Legacy object at 0x052F2FB0>,<openexp._canvas.legacy.Legacy object at 0x0511A930>,<openexp._canvas.legacy.Legacy object at 0x0510A190>,<openexp._canvas.legacy.Legacy object at 0x05276290>,<openexp._canvas.legacy.Legacy object at 0x05299DF0>,<openexp._canvas.legacy.Legacy object at 0x05154D90>,75,SpatProbMultiple3.osexp,C:/Userdata/Michel/SpatProbMultiple3,no,mono,no,18,no,white,no,yes,0.09,98,1050,legacy,45,0,0,1,C:/Userdata/Michel/SpatProbMultiple3/beh/subject-18.csv,legacy,9,192,25,Kafkaesque Koffka,3.2.5,yes,598477b2b83f69022949e7e9,47,green,circular,green,circular,0,\,668,space,3837,3837,"(80, 80, 80)","(0, 123, 0)","(177, 0, 0)","(155, 155, 155)",2,legacy,experiment,"[1, 2, 3, 4, 5, 6, 7, 0]",\,2500,3000,0,8,252.7587515,1024,2,48000,-16,main,"[(0, -252), (178, -178), (252, 0), (178, 178), (0, 252), (-178, 178), (-252, 0), (-178, -178)]",[],42,even,1,NA,128603,140542,140542,58836,57826,2041,68668,68668,2041,2041,62673,147553,2040,140542,146883,140944,140944,NA,774,study_X,0,3837,1,yes,1680
undefined,undefined,NA,NA,NA,3837,3837,black,no,legacy,legacy,legacy,0,red,"(177, 0, 0)",shape,present,highProb,circular,swap,same,swap,swap,red,"(177, 0, 0)",lowProb,lowProb2,rectangular,uniform,1,undefined,0,0.010416667,1,1,6.234375,1,2,1197,0,0,0,0,0,0,0,0,27,0,1,0.010416667,6.234375,2,1197,26,26,26,11/28/2018 10:00,Default description,yes,<openexp._canvas.legacy.Legacy object at 0x05283810>,<openexp._canvas.legacy.Legacy object at 0x05299850>,<openexp._canvas.legacy.Legacy object at 0x052F2FB0>,<openexp._canvas.legacy.Legacy object at 0x0511A930>,<openexp._canvas.legacy.Legacy object at 0x0510A190>,<openexp._canvas.legacy.Legacy object at 0x05276290>,<openexp._canvas.legacy.Legacy object at 0x05299090>,<openexp._canvas.legacy.Legacy object at 0x05154D90>,75,SpatProbMultiple3.osexp,C:/Userdata/Michel/SpatProbMultiple3,no,mono,no,18,no,white,no,yes,0.09,98,1050,legacy,45,1,1,1,C:/Userdata/Michel/SpatProbMultiple3/beh/subject-18.csv,legacy,9,192,25,Kafkaesque Koffka,3.2.5,yes,598477b2b83f69022949e7e9,47,red,circular,red,rectangular,0,\,529,space,3837,3837,"(80, 80, 80)","(0, 123, 0)","(177, 0, 0)","(155, 155, 155)",2,legacy,experiment,"[1, 2, 3, 4, 5, 6, 7, 0]",\,2500,3000,0,8,252.7587515,1024,2,48000,-16,main,"[(0, -252), (178, -178), (252, 0), (178, 178), (0, 252), (-178, 178), (-252, 0), (-178, -178)]",[],42,even,3,NA,128603,140542,140542,58836,57826,2041,68668,68668,2041,2041,62673,149297,2040,140542,148765,147981,147981,NA,774,study_X,0,3837,1,yes,1680
undefined,undefined,NA,NA,NA,3837,3837,black,no,legacy,legacy,legacy,0,red,"(177, 0, 0)",color,present,lowProb3,circular,same,same,swap,swap,green,"(0, 123, 0)",lowProb,lowProb2,circular,uniform,1,undefined,0,0.015625,1,1,9.645833333,1,3,1852,0,0,0,0,0,0,0,0,28,0,1,0.015625,9.645833333,3,1852,27,27,27,11/28/2018 10:00,Default description,yes,<openexp._canvas.legacy.Legacy object at 0x05283810>,<openexp._canvas.legacy.Legacy object at 0x05299850>,<openexp._canvas.legacy.Legacy object at 0x052F2FB0>,<openexp._canvas.legacy.Legacy object at 0x0511A930>,<openexp._canvas.legacy.Legacy object at 0x0510A190>,<openexp._canvas.legacy.Legacy object at 0x05276290>,<openexp._canvas.legacy.Legacy object at 0x053204B0>,<openexp._canvas.legacy.Legacy object at 0x05154D90>,75,SpatProbMultiple3.osexp,C:/Userdata/Michel/SpatProbMultiple3,no,mono,no,18,no,white,no,yes,0.09,98,1050,legacy,315,2,2,1,C:/Userdata/Michel/SpatProbMultiple3/beh/subject-18.csv,legacy,9,192,25,Kafkaesque Koffka,3.2.5,yes,598477b2b83f69022949e7e9,47,red,circular,green,circular,0,/,655,space,3837,3837,"(80, 80, 80)","(0, 123, 0)","(177, 0, 0)","(155, 155, 155)",2,legacy,experiment,"[1, 2, 3, 4, 5, 6, 7, 0]",/,2500,3000,0,8,252.7587515,1024,2,48000,-16,main,"[(0, -252), (178, -178), (252, 0), (178, 178), (0, 252), (-178, 178), (-252, 0), (-178, -178)]",[],42,even,3,NA,128603,140542,140542,58836,57826,2041,68668,68668,2041,2041,62673,151177,2040,140542,150518,149734,149734,NA,774,study_X,0,3837,1,yes,1680
undefined,undefined,NA,NA,NA,3837,3837,black,no,legacy,legacy,legacy,0,red,"(177, 0, 0)",shape,present,highProb,rectangular,same,swap,swap,same,red,"(177, 0, 0)",lowProb,lowProb3,circular,uniform,1,undefined,0,0.020833333,1,1,12.83854167,1,4,2465,0,0,0,0,0,0,0,0,29,0,1,0.020833333,12.83854167,4,2465,28,28,28,11/28/2018 10:00,Default description,yes,<openexp._canvas.legacy.Legacy object at 0x05283810>,<openexp._canvas.legacy.Legacy object at 0x05299850>,<openexp._canvas.legacy.Legacy object at 0x052F2FB0>,<openexp._canvas.legacy.Legacy object at 0x0511A930>,<openexp._canvas.legacy.Legacy object at 0x0510A190>,<openexp._canvas.legacy.Legacy object at 0x05276290>,<openexp._canvas.legacy.Legacy object at 0x053161D0>,<openexp._canvas.legacy.Legacy object at 0x05154D90>,75,SpatProbMultiple3.osexp,C:/Userdata/Michel/SpatProbMultiple3,no,mono,no,18,no,white,no,yes,0.09,98,1050,legacy,45,3,3,1,C:/Userdata/Michel/SpatProbMultiple3/beh/subject-18.csv,legacy,9,192,25,Kafkaesque Koffka,3.2.5,yes,598477b2b83f69022949e7e9,47,red,rectangular,red,circular,0,\,613,space,3837,3837,"(80, 80, 80)","(0, 123, 0)","(177, 0, 0)","(155, 155, 155)",2,legacy,experiment,"[1, 2, 3, 4, 5, 6, 7, 0]",\,2500,3000,0,8,252.7587515,1024,2,48000,-16,main,"[(0, -252), (178, -178), (252, 0), (178, 178), (0, 252), (-178, 178), (-252, 0), (-178, -178)]",[],42,even,4,NA,128603,140542,140542,58836,57826,2041,68668,68668,2041,2041,62673,153001,2040,140542,152384,151600,151600,NA,774,study_X,0,3837,1,yes,1680
undefined,undefined,NA,NA,NA,3837,3837,black,no,legacy,legacy,legacy,0,green,"(0, 123, 0)",color,present,highProb,circular,swap,swap,same,same,red,"(177, 0, 0)",lowProb,lowProb5,circular,uniform,1,undefined,0,0.026041667,1,1,16.44270833,1,5,3157,0,0,0,0,0,0,0,0,30,0,1,0.026041667,16.44270833,5,3157,29,29,29,11/28/2018 10:00,Default description,yes,<openexp._canvas.legacy.Legacy object at 0x05283810>,<openexp._canvas.legacy.Legacy object at 0x05299850>,<openexp._canvas.legacy.Legacy object at 0x052F2FB0>,<openexp._canvas.legacy.Legacy object at 0x0511A930>,<openexp._canvas.legacy.Legacy object at 0x0510A190>,<openexp._canvas.legacy.Legacy object at 0x05276290>,<openexp._canvas.legacy.Legacy object at 0x0528DAD0>,<openexp._canvas.legacy.Legacy object at 0x05154D90>,75,SpatProbMultiple3.osexp,C:/Userdata/Michel/SpatProbMultiple3,no,mono,no,18,no,white,no,yes,0.09,98,1050,legacy,45,4,4,1,C:/Userdata/Michel/SpatProbMultiple3/beh/subject-18.csv,legacy,9,192,25,Kafkaesque Koffka,3.2.5,yes,598477b2b83f69022949e7e9,47,green,circular,red,circular,0,\,692,space,3837,3837,"(80, 80, 80)","(0, 123, 0)","(177, 0, 0)","(155, 155, 155)",2,legacy,experiment,"[1, 2, 3, 4, 5, 6, 7, 0]",\,2500,3000,0,8,252.7587515,1024,2,48000,-16,main,"[(0, -252), (178, -178), (252, 0), (178, 178), (0, 252), (-178, 178), (-252, 0), (-178, -178)]",[],42,even,7,NA,128603,140542,140542,58836,57826,2041,68668,68668,2041,2041,62673,154897,2040,140542,154202,153418,153418,NA,774,study_X,0,3837,1,yes,1680
undefined,undefined,NA,NA,NA,3837,3837,black,no,legacy,legacy,legacy,0,green,"(0, 123, 0)",color,present,highProb,circular,same,same,same,same,red,"(177, 0, 0)",lowProb,lowProb5,circular,uniform,1,undefined,0,0.03125,1,1,19.39583333,1,6,3724,0,0,0,0,0,0,0,0,31,0,1,0.03125,19.39583333,6,3724,30,30,30,11/28/2018 10:00,Default description,yes,<openexp._canvas.legacy.Legacy object at 0x05283810>,<openexp._canvas.legacy.Legacy object at 0x05299850>,<openexp._canvas.legacy.Legacy object at 0x052F2FB0>,<openexp._canvas.legacy.Legacy object at 0x0511A930>,<openexp._canvas.legacy.Legacy object at 0x0510A190>,<openexp._canvas.legacy.Legacy object at 0x05276290>,<openexp._canvas.legacy.Legacy object at 0x0528DBD0>,<openexp._canvas.legacy.Legacy object at 0x05154D90>,75,SpatProbMultiple3.osexp,C:/Userdata/Michel/SpatProbMultiple3,no,mono,no,18,no,white,no,yes,0.09,98,1050,legacy,45,5,5,1,C:/Userdata/Michel/SpatProbMultiple3/beh/subject-18.csv,legacy,9,192,25,Kafkaesque Koffka,3.2.5,yes,598477b2b83f69022949e7e9,47,green,circular,red,circular,0,\,567,space,3837,3837,"(80, 80, 80)","(0, 123, 0)","(177, 0, 0)","(155, 155, 155)",2,legacy,experiment,"[1, 2, 3, 4, 5, 6, 7, 0]",\,2500,3000,0,8,252.7587515,1024,2,48000,-16,main,"[(0, -252), (178, -178), (252, 0), (178, 178), (0, 252), (-178, 178), (-252, 0), (-178, -178)]",[],42,even,7,NA,128603,140542,140542,58836,57826,2041,68668,68668,2041,2041,62673,156672,2040,140542,156102,155319,155319,NA,774,study_X,0,3837,1,yes,1680
undefined,undefined,NA,NA,NA,3837,3837,black,no,legacy,legacy,legacy,0,red,"(177, 0, 0)",shape,present,lowProb3,rectangular,swap,swap,same,same,red,"(177, 0, 0)",lowProb,lowProb2,circular,uniform,1,undefined,0,0.036458333,1,1,22.31770833,1,7,4285,0,0,0,0,0,0,0,0,32,0,1,0.036458333,22.31770833,7,4285,31,31,31,11/28/2018 10:00,Default description,yes,<openexp._canvas.legacy.Legacy object at 0x05283810>,<openexp._canvas.legacy.Legacy object at 0x05299850>,<openexp._canvas.legacy.Legacy object at 0x052F2FB0>,<openexp._canvas.legacy.Legacy object at 0x0511A930>,<openexp._canvas.legacy.Legacy object at 0x0510A190>,<openexp._canvas.legacy.Legacy object at 0x05276290>,<openexp._canvas.legacy.Legacy object at 0x05299FF0>,<openexp._canvas.legacy.Legacy object at 0x05154D90>,75,SpatProbMultiple3.osexp,C:/Userdata/Michel/SpatProbMultiple3,no,mono,no,18,no,white,no,yes,0.09,98,1050,legacy,45,6,6,1,C:/Userdata/Michel/SpatProbMultiple3/beh/subject-18.csv,legacy,9,192,25,Kafkaesque Koffka,3.2.5,yes,598477b2b83f69022949e7e9,47,red,rectangular,red,circular,0,\,561,space,3837,3837,"(80, 80, 80)","(0, 123, 0)","(177, 0, 0)","(155, 155, 155)",2,legacy,experiment,"[1, 2, 3, 4, 5, 6, 7, 0]",\,2500,3000,0,8,252.7587515,1024,2,48000,-16,main,"[(0, -252), (178, -178), (252, 0), (178, 178), (0, 252), (-178, 178), (-252, 0), (-178, -178)]",[],42,even,3,NA,128603,140542,140542,58836,57826,2041,68668,68668,2041,2041,62673,158441,2040,140542,157878,157095,157095,NA,774,study_X,0,3837,1,yes,1680
undefined,undefined,NA,NA,NA,3837,3837,black,no,legacy,legacy,legacy,0,green,"(0, 123, 0)",color,absent,lowProb4,circular,swap,swap,swap,same,green,"(0, 123, 0)",lowProb,lowProb2,circular,uniform,1,undefined,0,0.041666667,1,1,25.57291667,1,8,4910,0,0,0,0,0,0,0,0,33,0,1,0.041666667,25.57291667,8,4910,32,32,32,11/28/2018 10:00,Default description,yes,<openexp._canvas.legacy.Legacy object at 0x05283810>,<openexp._canvas.legacy.Legacy object at 0x05299850>,<openexp._canvas.legacy.Legacy object at 0x052F2FB0>,<openexp._canvas.legacy.Legacy object at 0x0511A930>,<openexp._canvas.legacy.Legacy object at 0x0510A190>,<openexp._canvas.legacy.Legacy object at 0x05276290>,<openexp._canvas.legacy.Legacy object at 0x05299990>,<openexp._canvas.legacy.Legacy object at 0x05154D90>,75,SpatProbMultiple3.osexp,C:/Userdata/Michel/SpatProbMultiple3,no,mono,no,18,no,white,no,yes,0.09,98,1050,legacy,45,7,7,1,C:/Userdata/Michel/SpatProbMultiple3/beh/subject-18.csv,legacy,9,192,25,Kafkaesque Koffka,3.2.5,yes,598477b2b83f69022949e7e9,47,green,circular,green,circular,0,\,625,space,3837,3837,"(80, 80, 80)","(0, 123, 0)","(177, 0, 0)","(155, 155, 155)",2,legacy,experiment,"[1, 2, 3, 4, 5, 6, 7, 0]",\,2500,3000,0,8,252.7587515,1024,2,48000,-16,main,"[(0, -252), (178, -178), (252, 0), (178, 178), (0, 252), (-178, 178), (-252, 0), (-178, -178)]",[],42,even,3,NA,128603,140542,140542,58836,57826,2041,68668,68668,2041,2041,62673,160273,2040,140542,159645,158861,158861,NA,774,study_X,0,3837,1,yes,1680
undefined,undefined,NA,NA,NA,3837,3837,black,no,legacy,legacy,legacy,0,green,"(0, 123, 0)",shape,absent,lowProb2,rectangular,same,swap,same,swap,green,"(0, 123, 0)",highProbColor,highProbColor,rectangular,uniform,1,undefined,0,0.046875,1,1,29.59375,1,9,5682,0,0,0,0,0,0,0,0,34,0,1,0.046875,29.59375,9,5682,33,33,33,11/28/2018 10:00,Default description,yes,<openexp._canvas.legacy.Legacy object at 0x05283810>,<openexp._canvas.legacy.Legacy object at 0x05299850>,<openexp._canvas.legacy.Legacy object at 0x052F2FB0>,<openexp._canvas.legacy.Legacy object at 0x0511A930>,<openexp._canvas.legacy.Legacy object at 0x0510A190>,<openexp._canvas.legacy.Legacy object at 0x05276290>,<openexp._canvas.legacy.Legacy object at 0x05283EF0>,<openexp._canvas.legacy.Legacy object at 0x05154D90>,75,SpatProbMultiple3.osexp,C:/Userdata/Michel/SpatProbMultiple3,no,mono,no,18,no,white,no,yes,0.09,98,1050,legacy,45,8,8,1,C:/Userdata/Michel/SpatProbMultiple3/beh/subject-18.csv,legacy,9,192,25,Kafkaesque Koffka,3.2.5,yes,598477b2b83f69022949e7e9,47,green,rectangular,green,rectangular,0,\,772,space,3837,3837,"(80, 80, 80)","(0, 123, 0)","(177, 0, 0)","(155, 155, 155)",2,legacy,experiment,"[1, 2, 3, 4, 5, 6, 7, 0]",\,2500,3000,0,8,252.7587515,1024,2,48000,-16,main,"[(0, -252), (178, -178), (252, 0), (178, 178), (0, 252), (-178, 178), (-252, 0), (-178, -178)]",[],42,even,1,NA,128603,140542,140542,58836,57826,2041,68668,68668,2041,2041,62673,162249,2040,140542,161474,160691,160691,NA,774,study_X,0,3837,1,yes,1680
undefined,undefined,NA,NA,NA,3837,3837,black,no,legacy,legacy,legacy,0,green,"(0, 123, 0)",shape,present,highProb,circular,same,swap,same,same,green,"(0, 123, 0)",lowProb,lowProb3,rectangular,uniform,1,undefined,0,0.052083333,1,1,33.69791667,1,10,6470,0,0,0,0,0,0,0,0,35,0,1,0.052083333,33.69791667,10,6470,34,34,34,11/28/2018 10:00,Default description,yes,<openexp._canvas.legacy.Legacy object at 0x05283810>,<openexp._canvas.legacy.Legacy object at 0x05299850>,<openexp._canvas.legacy.Legacy object at 0x052F2FB0>,<openexp._canvas.legacy.Legacy object at 0x0511A930>,<openexp._canvas.legacy.Legacy object at 0x0510A190>,<openexp._canvas.legacy.Legacy object at 0x05276290>,<openexp._canvas.legacy.Legacy object at 0x0511F890>,<openexp._canvas.legacy.Legacy object at 0x05154D90>,75,SpatProbMultiple3.osexp,C:/Userdata/Michel/SpatProbMultiple3,no,mono,no,18,no,white,no,yes,0.09,98,1050,legacy,45,9,9,1,C:/Userdata/Michel/SpatProbMultiple3/beh/subject-18.csv,legacy,9,192,25,Kafkaesque Koffka,3.2.5,yes,598477b2b83f69022949e7e9,47,green,circular,green,rectangular,0,\,788,space,3837,3837,"(80, 80, 80)","(0, 123, 0)","(177, 0, 0)","(155, 155, 155)",2,legacy,experiment,"[1, 2, 3, 4, 5, 6, 7, 0]",\,2500,3000,0,8,252.7587515,1024,2,48000,-16,main,"[(0, -252), (178, -178), (252, 0), (178, 178), (0, 252), (-178, 178), (-252, 0), (-178, -178)]",[],42,even,4,NA,128603,140542,140542,58836,57826,2041,68668,68668,2041,2041,62673,164241,2040,140542,163450,162666,162666,NA,774,study_X,0,3837,1,yes,1680
undefined,undefined,NA,NA,NA,3837,3837,black,no,legacy,legacy,legacy,0,red,"(177, 0, 0)",shape,present,highProb,rectangular,swap,swap,swap,swap,red,"(177, 0, 0)",lowProb,lowProb4,circular,uniform,1,undefined,0,0.057291667,1,1,38.859375,1,11,7461,0,0,0,0,0,0,0,0,36,0,1,0.057291667,38.859375,11,7461,35,35,35,11/28/2018 10:00,Default description,yes,<openexp._canvas.legacy.Legacy object at 0x05283810>,<openexp._canvas.legacy.Legacy object at 0x05299850>,<openexp._canvas.legacy.Legacy object at 0x052F2FB0>,<openexp._canvas.legacy.Legacy object at 0x0511A930>,<openexp._canvas.legacy.Legacy object at 0x0510A190>,<openexp._canvas.legacy.Legacy object at 0x05276290>,<openexp._canvas.legacy.Legacy object at 0x0528DD10>,<openexp._canvas.legacy.Legacy object at 0x05154D90>,75,SpatProbMultiple3.osexp,C:/Userdata/Michel/SpatProbMultiple3,no,mono,no,18,no,white,no,yes,0.09,98,1050,legacy,45,10,10,1,C:/Userdata/Michel/SpatProbMultiple3/beh/subject-18.csv,legacy,9,192,25,Kafkaesque Koffka,3.2.5,yes,598477b2b83f69022949e7e9,47,red,rectangular,red,circular,0,\,991,space,3837,3837,"(80, 80, 80)","(0, 123, 0)","(177, 0, 0)","(155, 155, 155)",2,legacy,experiment,"[1, 2, 3, 4, 5, 6, 7, 0]",\,2500,3000,0,8,252.7587515,1024,2,48000,-16,main,"[(0, -252), (178, -178), (252, 0), (178, 178), (0, 252), (-178, 178), (-252, 0), (-178, -178)]",[],42,even,6,NA,128603,140542,140542,58836,57826,2041,68668,68668,2041,2041,62673,166441,2040,140542,165446,164663,164663,NA,774,study_X,0,3837,1,yes,1680
undefined,undefined,NA,NA,NA,3837,3837,black,no,legacy,legacy,legacy,0,red,"(177, 0, 0)",color,present,highProb,circular,same,swap,swap,same,green,"(0, 123, 0)",lowProb,lowProb6,circular,uniform,1,undefined,0,0.0625,1,1,43.86458333,1,12,8422,0,0,0,0,0,0,0,0,37,0,1,0.0625,43.86458333,12,8422,36,36,36,11/28/2018 10:00,Default description,yes,<openexp._canvas.legacy.Legacy object at 0x05283810>,<openexp._canvas.legacy.Legacy object at 0x05299850>,<openexp._canvas.legacy.Legacy object at 0x052F2FB0>,<openexp._canvas.legacy.Legacy object at 0x0511A930>,<openexp._canvas.legacy.Legacy object at 0x0510A190>,<openexp._canvas.legacy.Legacy object at 0x05276290>,<openexp._canvas.legacy.Legacy object at 0x0527E8F0>,<openexp._canvas.legacy.Legacy object at 0x05154D90>,75,SpatProbMultiple3.osexp,C:/Userdata/Michel/SpatProbMultiple3,no,mono,no,18,no,white,no,yes,0.09,98,1050,legacy,45,11,11,1,C:/Userdata/Michel/SpatProbMultiple3/beh/subject-18.csv,legacy,9,192,25,Kafkaesque Koffka,3.2.5,yes,598477b2b83f69022949e7e9,47,red,circular,green,circular,0,\,961,space,3837,3837,"(80, 80, 80)","(0, 123, 0)","(177, 0, 0)","(155, 155, 155)",2,legacy,experiment,"[1, 2, 3, 4, 5, 6, 7, 0]",\,2500,3000,0,8,252.7587515,1024,2,48000,-16,main,"[(0, -252), (178, -178), (252, 0), (178, 178), (0, 252), (-178, 178), (-252, 0), (-178, -178)]",[],42,even,0,NA,128603,140542,140542,58836,57826,2041,68668,68668,2041,2041,62673,168609,2040,140542,167644,166860,166860,NA,774,study_X,0,3837,1,yes,1680
undefined,undefined,NA,NA,NA,3837,3837,black,no,legacy,legacy,legacy,0,red,"(177, 0, 0)",color,present,highProb,circular,same,same,same,same,green,"(0, 123, 0)",lowProb,lowProb3,circular,uniform,1,undefined,0,0.067708333,1,1,50.015625,1,13,9603,0,0,0,0,0,0,0,0,38,0,1,0.067708333,50.015625,13,9603,37,37,37,11/28/2018 10:00,Default description,yes,<openexp._canvas.legacy.Legacy object at 0x05283810>,<openexp._canvas.legacy.Legacy object at 0x05299850>,<openexp._canvas.legacy.Legacy object at 0x052F2FB0>,<openexp._canvas.legacy.Legacy object at 0x0511A930>,<openexp._canvas.legacy.Legacy object at 0x0510A190>,<openexp._canvas.legacy.Legacy object at 0x05276290>,<openexp._canvas.legacy.Legacy object at 0x05316350>,<openexp._canvas.legacy.Legacy object at 0x05154D90>,75,SpatProbMultiple3.osexp,C:/Userdata/Michel/SpatProbMultiple3,no,mono,no,18,no,white,no,yes,0.09,98,1050,legacy,45,12,12,1,C:/Userdata/Michel/SpatProbMultiple3/beh/subject-18.csv,legacy,9,192,25,Kafkaesque Koffka,3.2.5,yes,598477b2b83f69022949e7e9,47,red,circular,green,circular,0,\,1181,space,3837,3837,"(80, 80, 80)","(0, 123, 0)","(177, 0, 0)","(155, 155, 155)",2,legacy,experiment,"[1, 2, 3, 4, 5, 6, 7, 0]",\,2500,3000,0,8,252.7587515,1024,2,48000,-16,main,"[(0, -252), (178, -178), (252, 0), (178, 178), (0, 252), (-178, 178), (-252, 0), (-178, -178)]",[],42,even,4,NA,128603,140542,140542,58836,57826,2041,68668,68668,2041,2041,62673,171001,2040,140542,169817,169035,169035,NA,774,study_X,0,3837,1,yes,1680
undefined,undefined,NA,NA,NA,3837,3837,black,no,legacy,legacy,legacy,0,red,"(177, 0, 0)",shape,present,lowProb5,rectangular,same,swap,swap,same,red,"(177, 0, 0)",lowProb,lowProb1,circular,uniform,1,undefined,0,0.072916667,1,1,55.58854167,1,14,10673,0,0,0,0,0,0,0,0,39,0,1,0.072916667,55.58854167,14,10673,38,38,38,11/28/2018 10:00,Default description,yes,<openexp._canvas.legacy.Legacy object at 0x05283810>,<openexp._canvas.legacy.Legacy object at 0x05299850>,<openexp._canvas.legacy.Legacy object at 0x052F2FB0>,<openexp._canvas.legacy.Legacy object at 0x0511A930>,<openexp._canvas.legacy.Legacy object at 0x0510A190>,<openexp._canvas.legacy.Legacy object at 0x05276290>,<openexp._canvas.legacy.Legacy object at 0x0528D730>,<openexp._canvas.legacy.Legacy object at 0x05154D90>,75,SpatProbMultiple3.osexp,C:/Userdata/Michel/SpatProbMultiple3,no,mono,no,18,no,white,no,yes,0.09,98,1050,legacy,45,13,13,1,C:/Userdata/Michel/SpatProbMultiple3/beh/subject-18.csv,legacy,9,192,25,Kafkaesque Koffka,3.2.5,yes,598477b2b83f69022949e7e9,47,red,rectangular,red,circular,0,\,1070,space,3837,3837,"(80, 80, 80)","(0, 123, 0)","(177, 0, 0)","(155, 155, 155)",2,legacy,experiment,"[1, 2, 3, 4, 5, 6, 7, 0]",\,2500,3000,0,8,252.7587515,1024,2,48000,-16,main,"[(0, -252), (178, -178), (252, 0), (178, 178), (0, 252), (-178, 178), (-252, 0), (-178, -178)]",[],42,even,2,NA,128603,140542,140542,58836,57826,2041,68668,68668,2041,2041,62673,173288,2040,140542,172216,171433,171433,NA,774,study_X,0,3837,1,yes,1680
undefined,undefined,NA,NA,NA,3837,3837,black,no,legacy,legacy,legacy,0,red,"(177, 0, 0)",color,absent,lowProb6,circular,same,swap,same,same,red,"(177, 0, 0)",lowProb,lowProb5,circular,uniform,1,undefined,0,0.078125,1,1,58.96354167,1,15,11321,0,0,0,0,0,0,0,0,40,0,1,0.078125,58.96354167,15,11321,39,39,39,11/28/2018 10:00,Default description,yes,<openexp._canvas.legacy.Legacy object at 0x05283810>,<openexp._canvas.legacy.Legacy object at 0x05299850>,<openexp._canvas.legacy.Legacy object at 0x052F2FB0>,<openexp._canvas.legacy.Legacy object at 0x0511A930>,<openexp._canvas.legacy.Legacy object at 0x0510A190>,<openexp._canvas.legacy.Legacy object at 0x05276290>,<openexp._canvas.legacy.Legacy object at 0x0528D3D0>,<openexp._canvas.legacy.Legacy object at 0x05154D90>,75,SpatProbMultiple3.osexp,C:/Userdata/Michel/SpatProbMultiple3,no,mono,no,18,no,white,no,yes,0.09,98,1050,legacy,45,14,14,1,C:/Userdata/Michel/SpatProbMultiple3/beh/subject-18.csv,legacy,9,192,25,Kafkaesque Koffka,3.2.5,yes,598477b2b83f69022949e7e9,47,red,circular,red,circular,0,\,648,space,3837,3837,"(80, 80, 80)","(0, 123, 0)","(177, 0, 0)","(155, 155, 155)",2,legacy,experiment,"[1, 2, 3, 4, 5, 6, 7, 0]",\,2500,3000,0,8,252.7587515,1024,2,48000,-16,main,"[(0, -252), (178, -178), (252, 0), (178, 178), (0, 252), (-178, 178), (-252, 0), (-178, -178)]",[],42,even,7,NA,128603,140542,140542,58836,57826,2041,68668,68668,2041,2041,62673,175145,2040,140542,174495,173712,173712,NA,774,study_X,0,3837,1,yes,1680
undefined,undefined,NA,NA,NA,3837,3837,black,no,legacy,legacy,legacy,0,green,"(0, 123, 0)",color,present,highProb,circular,swap,same,same,same,red,"(177, 0, 0)",lowProb,lowProb1,circular,uniform,1,undefined,0,0.083333333,1,1,63.10416667,1,16,12116,0,0,0,0,0,0,0,0,41,0,1,0.083333333,63.10416667,16,12116,40,40,40,11/28/2018 10:00,Default description,yes,<openexp._canvas.legacy.Legacy object at 0x05283810>,<openexp._canvas.legacy.Legacy object at 0x05299850>,<openexp._canvas.legacy.Legacy object at 0x052F2FB0>,<openexp._canvas.legacy.Legacy object at 0x0511A930>,<openexp._canvas.legacy.Legacy object at 0x0510A190>,<openexp._canvas.legacy.Legacy object at 0x05276290>,<openexp._canvas.legacy.Legacy object at 0x0528D9F0>,<openexp._canvas.legacy.Legacy object at 0x05154D90>,75,SpatProbMultiple3.osexp,C:/Userdata/Michel/SpatProbMultiple3,no,mono,no,18,no,white,no,yes,0.09,98,1050,legacy,315,15,15,1,C:/Userdata/Michel/SpatProbMultiple3/beh/subject-18.csv,legacy,9,192,25,Kafkaesque Koffka,3.2.5,yes,598477b2b83f69022949e7e9,47,green,circular,red,circular,0,/,795,space,3837,3837,"(80, 80, 80)","(0, 123, 0)","(177, 0, 0)","(155, 155, 155)",2,legacy,experiment,"[1, 2, 3, 4, 5, 6, 7, 0]",/,2500,3000,0,8,252.7587515,1024,2,48000,-16,main,"[(0, -252), (178, -178), (252, 0), (178, 178), (0, 252), (-178, 178), (-252, 0), (-178, -178)]",[],42,even,2,NA,128603,140542,140542,58836,57826,2041,68668,68668,2041,2041,62673,177145,2040,140542,176347,175563,175563,NA,774,study_X,0,3837,1,yes,1680
undefined,undefined,NA,NA,NA,3837,3837,black,no,legacy,legacy,legacy,0,red,"(177, 0, 0)",shape,absent,lowProb1,circular,swap,same,same,same,red,"(177, 0, 0)",lowProb,lowProb3,circular,uniform,1,undefined,0,0.088541667,1,1,66.890625,1,17,12843,0,0,0,0,0,0,0,0,42,0,1,0.088541667,66.890625,17,12843,41,41,41,11/28/2018 10:00,Default description,yes,<openexp._canvas.legacy.Legacy object at 0x05283810>,<openexp._canvas.legacy.Legacy object at 0x05299850>,<openexp._canvas.legacy.Legacy object at 0x052F2FB0>,<openexp._canvas.legacy.Legacy object at 0x0511A930>,<openexp._canvas.legacy.Legacy object at 0x0510A190>,<openexp._canvas.legacy.Legacy object at 0x05276290>,<openexp._canvas.legacy.Legacy object at 0x05283E50>,<openexp._canvas.legacy.Legacy object at 0x05154D90>,75,SpatProbMultiple3.osexp,C:/Userdata/Michel/SpatProbMultiple3,no,mono,no,18,no,white,no,yes,0.09,98,1050,legacy,315,16,16,1,C:/Userdata/Michel/SpatProbMultiple3/beh/subject-18.csv,legacy,9,192,25,Kafkaesque Koffka,3.2.5,yes,598477b2b83f69022949e7e9,47,red,circular,red,circular,0,/,727,space,3837,3837,"(80, 80, 80)","(0, 123, 0)","(177, 0, 0)","(155, 155, 155)",2,legacy,experiment,"[1, 2, 3, 4, 5, 6, 7, 0]",/,2500,3000,0,8,252.7587515,1024,2,48000,-16,main,"[(0, -252), (178, -178), (252, 0), (178, 178), (0, 252), (-178, 178), (-252, 0), (-178, -178)]",[],42,even,4,NA,128603,140542,140542,58836,57826,2041,68668,68668,2041,2041,62673,179081,2040,140542,178351,177567,177567,NA,774,study_X,0,3837,1,yes,1680
undefined,undefined,NA,NA,NA,3837,3837,black,no,legacy,legacy,legacy,0,green,"(0, 123, 0)",shape,absent,lowProb3,circular,swap,same,swap,same,green,"(0, 123, 0)",highProbShape,highProbShape,circular,uniform,1,undefined,0,0.09375,1,1,72.453125,1,18,13911,0,0,0,0,0,0,0,0,43,0,1,0.09375,72.453125,18,13911,42,42,42,11/28/2018 10:00,Default description,yes,<openexp._canvas.legacy.Legacy object at 0x05283810>,<openexp._canvas.legacy.Legacy object at 0x05299850>,<openexp._canvas.legacy.Legacy object at 0x052F2FB0>,<openexp._canvas.legacy.Legacy object at 0x0511A930>,<openexp._canvas.legacy.Legacy object at 0x0510A190>,<openexp._canvas.legacy.Legacy object at 0x05276290>,<openexp._canvas.legacy.Legacy object at 0x0511A870>,<openexp._canvas.legacy.Legacy object at 0x05154D90>,75,SpatProbMultiple3.osexp,C:/Userdata/Michel/SpatProbMultiple3,no,mono,no,18,no,white,no,yes,0.09,98,1050,legacy,45,17,17,1,C:/Userdata/Michel/SpatProbMultiple3/beh/subject-18.csv,legacy,9,192,25,Kafkaesque Koffka,3.2.5,yes,598477b2b83f69022949e7e9,47,green,circular,green,circular,0,\,1068,space,3837,3837,"(80, 80, 80)","(0, 123, 0)","(177, 0, 0)","(155, 155, 155)",2,legacy,experiment,"[1, 2, 3, 4, 5, 6, 7, 0]",\,2500,3000,0,8,252.7587515,1024,2,48000,-16,main,"[(0, -252), (178, -178), (252, 0), (178, 178), (0, 252), (-178, 178), (-252, 0), (-178, -178)]",[],42,even,5,NA,128603,140542,140542,58836,57826,2041,68668,68668,2041,2041,62673,181417,2040,140542,180346,179562,179562,NA,774,study_X,0,3837,1,yes,1680
undefined,undefined,NA,NA,NA,3837,3837,black,no,legacy,legacy,legacy,0,green,"(0, 123, 0)",shape,present,highProb,rectangular,same,swap,same,same,green,"(0, 123, 0)",lowProb,lowProb4,circular,uniform,1,undefined,0,0.098958333,1,1,76.82291667,1,19,14750,0,0,0,0,0,0,0,0,44,0,1,0.098958333,76.82291667,19,14750,43,43,43,11/28/2018 10:00,Default description,yes,<openexp._canvas.legacy.Legacy object at 0x05283810>,<openexp._canvas.legacy.Legacy object at 0x05299850>,<openexp._canvas.legacy.Legacy object at 0x052F2FB0>,<openexp._canvas.legacy.Legacy object at 0x0511A930>,<openexp._canvas.legacy.Legacy object at 0x0510A190>,<openexp._canvas.legacy.Legacy object at 0x05276290>,<openexp._canvas.legacy.Legacy object at 0x053168B0>,<openexp._canvas.legacy.Legacy object at 0x05154D90>,75,SpatProbMultiple3.osexp,C:/Userdata/Michel/SpatProbMultiple3,no,mono,no,18,no,white,no,yes,0.09,98,1050,legacy,45,18,18,1,C:/Userdata/Michel/SpatProbMultiple3/beh/subject-18.csv,legacy,9,192,25,Kafkaesque Koffka,3.2.5,yes,598477b2b83f69022949e7e9,47,green,rectangular,green,circular,0,\,839,space,3837,3837,"(80, 80, 80)","(0, 123, 0)","(177, 0, 0)","(155, 155, 155)",2,legacy,experiment,"[1, 2, 3, 4, 5, 6, 7, 0]",\,2500,3000,0,8,252.7587515,1024,2,48000,-16,main,"[(0, -252), (178, -178), (252, 0), (178, 178), (0, 252), (-178, 178), (-252, 0), (-178, -178)]",[],42,even,6,NA,128603,140542,140542,58836,57826,2041,68668,68668,2041,2041,62673,183473,2040,140542,182630,181848,181848,NA,774,study_X,0,3837,1,yes,1680
undefined,undefined,NA,NA,NA,3837,3837,black,no,legacy,legacy,legacy,0,red,"(177, 0, 0)",color,present,highProb,circular,swap,swap,same,same,green,"(0, 123, 0)",lowProb,lowProb6,circular,uniform,1,undefined,0,0.104166667,1,1,83.71875,1,20,16074,0,0,0,0,0,0,0,0,45,0,1,0.104166667,83.71875,20,16074,44,44,44,11/28/2018 10:00,Default description,yes,<openexp._canvas.legacy.Legacy object at 0x05283810>,<openexp._canvas.legacy.Legacy object at 0x05299850>,<openexp._canvas.legacy.Legacy object at 0x052F2FB0>,<openexp._canvas.legacy.Legacy object at 0x0511A930>,<openexp._canvas.legacy.Legacy object at 0x0510A190>,<openexp._canvas.legacy.Legacy object at 0x05276290>,<openexp._canvas.legacy.Legacy object at 0x0528D9F0>,<openexp._canvas.legacy.Legacy object at 0x05154D90>,75,SpatProbMultiple3.osexp,C:/Userdata/Michel/SpatProbMultiple3,no,mono,no,18,no,white,no,yes,0.09,98,1050,legacy,315,19,19,1,C:/Userdata/Michel/SpatProbMultiple3/beh/subject-18.csv,legacy,9,192,25,Kafkaesque Koffka,3.2.5,yes,598477b2b83f69022949e7e9,47,red,circular,green,circular,0,/,1324,space,3837,3837,"(80, 80, 80)","(0, 123, 0)","(177, 0, 0)","(155, 155, 155)",2,legacy,experiment,"[1, 2, 3, 4, 5, 6, 7, 0]",/,2500,3000,0,8,252.7587515,1024,2,48000,-16,main,"[(0, -252), (178, -178), (252, 0), (178, 178), (0, 252), (-178, 178), (-252, 0), (-178, -178)]",[],42,even,0,NA,128603,140542,140542,58836,57826,2041,68668,68668,2041,2041,62673,186009,2040,140542,184681,183897,183897,NA,774,study_X,0,3837,1,yes,1680
undefined,undefined,NA,NA,NA,3837,3837,black,no,legacy,legacy,legacy,0,red,"(177, 0, 0)",color,present,lowProb1,rectangular,same,swap,same,swap,green,"(0, 123, 0)",highProbShape,highProbShape,rectangular,uniform,1,undefined,0,0.109375,1,1,86.41666667,1,21,16592,0,0,0,0,0,0,0,0,46,0,1,0.109375,86.41666667,21,16592,45,45,45,11/28/2018 10:00,Default description,yes,<openexp._canvas.legacy.Legacy object at 0x05283810>,<openexp._canvas.legacy.Legacy object at 0x05299850>,<openexp._canvas.legacy.Legacy object at 0x052F2FB0>,<openexp._canvas.legacy.Legacy object at 0x0511A930>,<openexp._canvas.legacy.Legacy object at 0x0510A190>,<openexp._canvas.legacy.Legacy object at 0x05276290>,<openexp._canvas.legacy.Legacy object at 0x0528DC10>,<openexp._canvas.legacy.Legacy object at 0x05154D90>,75,SpatProbMultiple3.osexp,C:/Userdata/Michel/SpatProbMultiple3,no,mono,no,18,no,white,no,yes,0.09,98,1050,legacy,45,20,20,1,C:/Userdata/Michel/SpatProbMultiple3/beh/subject-18.csv,legacy,9,192,25,Kafkaesque Koffka,3.2.5,yes,598477b2b83f69022949e7e9,47,red,rectangular,green,rectangular,0,\,518,space,3837,3837,"(80, 80, 80)","(0, 123, 0)","(177, 0, 0)","(155, 155, 155)",2,legacy,experiment,"[1, 2, 3, 4, 5, 6, 7, 0]",\,2500,3000,0,8,252.7587515,1024,2,48000,-16,main,"[(0, -252), (178, -178), (252, 0), (178, 178), (0, 252), (-178, 178), (-252, 0), (-178, -178)]",[],42,even,5,NA,128603,140542,140542,58836,57826,2041,68668,68668,2041,2041,62673,187760,2040,140542,187239,186456,186456,NA,774,study_X,0,3837,1,yes,1680
undefined,undefined,NA,NA,NA,3837,3837,black,no,legacy,legacy,legacy,0,red,"(177, 0, 0)",color,present,highProb,rectangular,same,same,same,same,green,"(0, 123, 0)",lowProb,lowProb3,rectangular,uniform,1,undefined,0,0.114583333,1,1,89.27604167,1,22,17141,0,0,0,0,0,0,0,0,47,0,1,0.114583333,89.27604167,22,17141,46,46,46,11/28/2018 10:00,Default description,yes,<openexp._canvas.legacy.Legacy object at 0x05283810>,<openexp._canvas.legacy.Legacy object at 0x05299850>,<openexp._canvas.legacy.Legacy object at 0x052F2FB0>,<openexp._canvas.legacy.Legacy object at 0x0511A930>,<openexp._canvas.legacy.Legacy object at 0x0510A190>,<openexp._canvas.legacy.Legacy object at 0x05276290>,<openexp._canvas.legacy.Legacy object at 0x0528D090>,<openexp._canvas.legacy.Legacy object at 0x05154D90>,75,SpatProbMultiple3.osexp,C:/Userdata/Michel/SpatProbMultiple3,no,mono,no,18,no,white,no,yes,0.09,98,1050,legacy,315,21,21,1,C:/Userdata/Michel/SpatProbMultiple3/beh/subject-18.csv,legacy,9,192,25,Kafkaesque Koffka,3.2.5,yes,598477b2b83f69022949e7e9,47,red,rectangular,green,rectangular,0,/,549,space,3837,3837,"(80, 80, 80)","(0, 123, 0)","(177, 0, 0)","(155, 155, 155)",2,legacy,experiment,"[1, 2, 3, 4, 5, 6, 7, 0]",/,2500,3000,0,8,252.7587515,1024,2,48000,-16,main,"[(0, -252), (178, -178), (252, 0), (178, 178), (0, 252), (-178, 178), (-252, 0), (-178, -178)]",[],42,even,4,NA,128603,140542,140542,58836,57826,2041,68668,68668,2041,2041,62673,189512,2040,140542,188961,188178,188179,NA,774,study_X,0,3837,1,yes,1680
undefined,undefined,NA,NA,NA,3837,3837,black,no,legacy,legacy,legacy,0,red,"(177, 0, 0)",color,present,lowProb6,circular,same,swap,same,swap,green,"(0, 123, 0)",highProbShape,highProbShape,circular,uniform,1,undefined,0,0.119791667,1,1,92.0625,1,23,17676,0,0,0,0,0,0,0,0,48,0,1,0.119791667,92.0625,23,17676,47,47,47,11/28/2018 10:00,Default description,yes,<openexp._canvas.legacy.Legacy object at 0x05283810>,<openexp._canvas.legacy.Legacy object at 0x05299850>,<openexp._canvas.legacy.Legacy object at 0x052F2FB0>,<openexp._canvas.legacy.Legacy object at 0x0511A930>,<openexp._canvas.legacy.Legacy object at 0x0510A190>,<openexp._canvas.legacy.Legacy object at 0x05276290>,<openexp._canvas.legacy.Legacy object at 0x0528D530>,<openexp._canvas.legacy.Legacy object at 0x05154D90>,75,SpatProbMultiple3.osexp,C:/Userdata/Michel/SpatProbMultiple3,no,mono,no,18,no,white,no,yes,0.09,98,1050,legacy,45,22,22,1,C:/Userdata/Michel/SpatProbMultiple3/beh/subject-18.csv,legacy,9,192,25,Kafkaesque Koffka,3.2.5,yes,598477b2b83f69022949e7e9,47,red,circular,green,circular,0,\,535,space,3837,3837,"(80, 80, 80)","(0, 123, 0)","(177, 0, 0)","(155, 155, 155)",2,legacy,experiment,"[1, 2, 3, 4, 5, 6, 7, 0]",\,2500,3000,0,8,252.7587515,1024,2,48000,-16,main,"[(0, -252), (178, -178), (252, 0), (178, 178), (0, 252), (-178, 178), (-252, 0), (-178, -178)]",[],42,even,5,NA,128603,140542,140542,58836,57826,2041,68668,68668,2041,2041,62673,191256,2040,140542,190719,189935,189935,NA,774,study_X,0,3837,1,yes,1680
undefined,undefined,NA,NA,NA,3837,3837,black,no,legacy,legacy,legacy,0,green,"(0, 123, 0)",shape,absent,highProb,rectangular,swap,swap,same,swap,green,"(0, 123, 0)",highProbColor,highProbColor,rectangular,uniform,1,undefined,0,0.125,1,1,97.015625,1,24,18627,0,0,0,0,0,0,0,0,49,0,1,0.125,97.015625,24,18627,48,48,48,11/28/2018 10:00,Default description,yes,<openexp._canvas.legacy.Legacy object at 0x05283810>,<openexp._canvas.legacy.Legacy object at 0x05299850>,<openexp._canvas.legacy.Legacy object at 0x052F2FB0>,<openexp._canvas.legacy.Legacy object at 0x0511A930>,<openexp._canvas.legacy.Legacy object at 0x0510A190>,<openexp._canvas.legacy.Legacy object at 0x05276290>,<openexp._canvas.legacy.Legacy object at 0x05283FD0>,<openexp._canvas.legacy.Legacy object at 0x05154D90>,75,SpatProbMultiple3.osexp,C:/Userdata/Michel/SpatProbMultiple3,no,mono,no,18,no,white,no,yes,0.09,98,1050,legacy,315,23,23,1,C:/Userdata/Michel/SpatProbMultiple3/beh/subject-18.csv,legacy,9,192,25,Kafkaesque Koffka,3.2.5,yes,598477b2b83f69022949e7e9,47,green,rectangular,green,rectangular,0,/,951,space,3837,3837,"(80, 80, 80)","(0, 123, 0)","(177, 0, 0)","(155, 155, 155)",2,legacy,experiment,"[1, 2, 3, 4, 5, 6, 7, 0]",/,2500,3000,0,8,252.7587515,1024,2,48000,-16,main,"[(0, -252), (178, -178), (252, 0), (178, 178), (0, 252), (-178, 178), (-252, 0), (-178, -178)]",[],42,even,1,NA,128603,140542,140542,58836,57826,2041,68668,68668,2041,2041,62673,193441,2040,140542,192487,191703,191704,NA,774,study_X,0,3837,1,yes,1680
undefined,undefined,NA,NA,NA,3837,3837,black,no,legacy,legacy,legacy,0,green,"(0, 123, 0)",color,present,lowProb4,circular,same,swap,swap,swap,red,"(177, 0, 0)",lowProb,lowProb5,circular,uniform,1,undefined,0,0.130208333,1,1,101.75,1,25,19536,0,0,0,0,0,0,0,0,50,0,1,0.130208333,101.75,25,19536,49,49,49,11/28/2018 10:00,Default description,yes,<openexp._canvas.legacy.Legacy object at 0x05283810>,<openexp._canvas.legacy.Legacy object at 0x05299850>,<openexp._canvas.legacy.Legacy object at 0x052F2FB0>,<openexp._canvas.legacy.Legacy object at 0x0511A930>,<openexp._canvas.legacy.Legacy object at 0x0510A190>,<openexp._canvas.legacy.Legacy object at 0x05276290>,<openexp._canvas.legacy.Legacy object at 0x05316F70>,<openexp._canvas.legacy.Legacy object at 0x05154D90>,75,SpatProbMultiple3.osexp,C:/Userdata/Michel/SpatProbMultiple3,no,mono,no,18,no,white,no,yes,0.09,98,1050,legacy,315,24,24,1,C:/Userdata/Michel/SpatProbMultiple3/beh/subject-18.csv,legacy,9,192,25,Kafkaesque Koffka,3.2.5,yes,598477b2b83f69022949e7e9,47,green,circular,red,circular,0,/,909,space,3837,3837,"(80, 80, 80)","(0, 123, 0)","(177, 0, 0)","(155, 155, 155)",2,legacy,experiment,"[1, 2, 3, 4, 5, 6, 7, 0]",/,2500,3000,0,8,252.7587515,1024,2,48000,-16,main,"[(0, -252), (178, -178), (252, 0), (178, 178), (0, 252), (-178, 178), (-252, 0), (-178, -178)]",[],42,even,7,NA,128603,140542,140542,58836,57826,2041,68668,68668,2041,2041,62673,195561,2040,140542,194649,193865,193866,NA,774,study_X,0,3837,1,yes,1680
undefined,undefined,NA,NA,NA,3837,3837,black,no,legacy,legacy,legacy,0,green,"(0, 123, 0)",color,present,highProb,circular,same,same,same,same,red,"(177, 0, 0)",lowProb,lowProb6,circular,uniform,1,undefined,0,0.135416667,1,1,104.5833333,1,26,20080,0,0,0,0,0,0,0,0,51,0,1,0.135416667,104.5833333,26,20080,50,50,50,11/28/2018 10:00,Default description,yes,<openexp._canvas.legacy.Legacy object at 0x05283810>,<openexp._canvas.legacy.Legacy object at 0x05299850>,<openexp._canvas.legacy.Legacy object at 0x052F2FB0>,<openexp._canvas.legacy.Legacy object at 0x0511A930>,<openexp._canvas.legacy.Legacy object at 0x0510A190>,<openexp._canvas.legacy.Legacy object at 0x05276290>,<openexp._canvas.legacy.Legacy object at 0x0528D710>,<openexp._canvas.legacy.Legacy object at 0x05154D90>,75,SpatProbMultiple3.osexp,C:/Userdata/Michel/SpatProbMultiple3,no,mono,no,18,no,white,no,yes,0.09,98,1050,legacy,315,25,25,1,C:/Userdata/Michel/SpatProbMultiple3/beh/subject-18.csv,legacy,9,192,25,Kafkaesque Koffka,3.2.5,yes,598477b2b83f69022949e7e9,47,green,circular,red,circular,0,/,544,space,3837,3837,"(80, 80, 80)","(0, 123, 0)","(177, 0, 0)","(155, 155, 155)",2,legacy,experiment,"[1, 2, 3, 4, 5, 6, 7, 0]",/,2500,3000,0,8,252.7587515,1024,2,48000,-16,main,"[(0, -252), (178, -178), (252, 0), (178, 178), (0, 252), (-178, 178), (-252, 0), (-178, -178)]",[],42,even,0,NA,128603,140542,140542,58836,57826,2041,68668,68668,2041,2041,62673,197329,2040,140542,196781,195997,195997,NA,774,study_X,0,3837,1,yes,1680
undefined,undefined,NA,NA,NA,3837,3837,black,no,legacy,legacy,legacy,0,green,"(0, 123, 0)",shape,present,lowProb1,rectangular,same,swap,swap,same,green,"(0, 123, 0)",lowProb,lowProb2,circular,uniform,1,undefined,0,0.140625,1,1,107.859375,1,27,20709,0,0,0,0,0,0,0,0,52,0,1,0.140625,107.859375,27,20709,51,51,51,11/28/2018 10:00,Default description,yes,<openexp._canvas.legacy.Legacy object at 0x05283810>,<openexp._canvas.legacy.Legacy object at 0x05299850>,<openexp._canvas.legacy.Legacy object at 0x052F2FB0>,<openexp._canvas.legacy.Legacy object at 0x0511A930>,<openexp._canvas.legacy.Legacy object at 0x0510A190>,<openexp._canvas.legacy.Legacy object at 0x05276290>,<openexp._canvas.legacy.Legacy object at 0x052833D0>,<openexp._canvas.legacy.Legacy object at 0x05154D90>,75,SpatProbMultiple3.osexp,C:/Userdata/Michel/SpatProbMultiple3,no,mono,no,18,no,white,no,yes,0.09,98,1050,legacy,45,26,26,1,C:/Userdata/Michel/SpatProbMultiple3/beh/subject-18.csv,legacy,9,192,25,Kafkaesque Koffka,3.2.5,yes,598477b2b83f69022949e7e9,47,green,rectangular,green,circular,0,\,629,space,3837,3837,"(80, 80, 80)","(0, 123, 0)","(177, 0, 0)","(155, 155, 155)",2,legacy,experiment,"[1, 2, 3, 4, 5, 6, 7, 0]",\,2500,3000,0,8,252.7587515,1024,2,48000,-16,main,"[(0, -252), (178, -178), (252, 0), (178, 178), (0, 252), (-178, 178), (-252, 0), (-178, -178)]",[],42,even,3,NA,128603,140542,140542,58836,57826,2041,68668,68668,2041,2041,62673,199169,2040,140542,198536,197752,197752,NA,774,study_X,0,3837,1,yes,1680
undefined,undefined,NA,NA,NA,3837,3837,black,no,legacy,legacy,legacy,0,red,"(177, 0, 0)",shape,absent,lowProb4,circular,swap,swap,swap,same,red,"(177, 0, 0)",lowProb,lowProb1,circular,uniform,1,undefined,0,0.145833333,1,1,113.140625,1,28,21723,0,0,0,0,0,0,0,0,53,0,1,0.145833333,113.140625,28,21723,52,52,52,11/28/2018 10:00,Default description,yes,<openexp._canvas.legacy.Legacy object at 0x05283810>,<openexp._canvas.legacy.Legacy object at 0x05299850>,<openexp._canvas.legacy.Legacy object at 0x052F2FB0>,<openexp._canvas.legacy.Legacy object at 0x0511A930>,<openexp._canvas.legacy.Legacy object at 0x0510A190>,<openexp._canvas.legacy.Legacy object at 0x05276290>,<openexp._canvas.legacy.Legacy object at 0x0511AF10>,<openexp._canvas.legacy.Legacy object at 0x05154D90>,75,SpatProbMultiple3.osexp,C:/Userdata/Michel/SpatProbMultiple3,no,mono,no,18,no,white,no,yes,0.09,98,1050,legacy,45,27,27,1,C:/Userdata/Michel/SpatProbMultiple3/beh/subject-18.csv,legacy,9,192,25,Kafkaesque Koffka,3.2.5,yes,598477b2b83f69022949e7e9,47,red,circular,red,circular,0,\,1014,space,3837,3837,"(80, 80, 80)","(0, 123, 0)","(177, 0, 0)","(155, 155, 155)",2,legacy,experiment,"[1, 2, 3, 4, 5, 6, 7, 0]",\,2500,3000,0,8,252.7587515,1024,2,48000,-16,main,"[(0, -252), (178, -178), (252, 0), (178, 178), (0, 252), (-178, 178), (-252, 0), (-178, -178)]",[],42,even,2,NA,128603,140542,140542,58836,57826,2041,68668,68668,2041,2041,62673,201393,2040,140542,200375,199591,199591,NA,774,study_X,0,3837,1,yes,1680
undefined,undefined,NA,NA,NA,3837,3837,black,no,legacy,legacy,legacy,0,red,"(177, 0, 0)",color,present,highProb,rectangular,same,swap,swap,swap,green,"(0, 123, 0)",lowProb,lowProb2,rectangular,uniform,1,undefined,0,0.151041667,1,1,116.8072917,1,29,22427,0,0,0,0,0,0,0,0,54,0,1,0.151041667,116.8072917,29,22427,53,53,53,11/28/2018 10:00,Default description,yes,<openexp._canvas.legacy.Legacy object at 0x05283810>,<openexp._canvas.legacy.Legacy object at 0x05299850>,<openexp._canvas.legacy.Legacy object at 0x052F2FB0>,<openexp._canvas.legacy.Legacy object at 0x0511A930>,<openexp._canvas.legacy.Legacy object at 0x0510A190>,<openexp._canvas.legacy.Legacy object at 0x05276290>,<openexp._canvas.legacy.Legacy object at 0x05320930>,<openexp._canvas.legacy.Legacy object at 0x05154D90>,75,SpatProbMultiple3.osexp,C:/Userdata/Michel/SpatProbMultiple3,no,mono,no,18,no,white,no,yes,0.09,98,1050,legacy,315,28,28,1,C:/Userdata/Michel/SpatProbMultiple3/beh/subject-18.csv,legacy,9,192,25,Kafkaesque Koffka,3.2.5,yes,598477b2b83f69022949e7e9,47,red,rectangular,green,rectangular,0,/,704,space,3837,3837,"(80, 80, 80)","(0, 123, 0)","(177, 0, 0)","(155, 155, 155)",2,legacy,experiment,"[1, 2, 3, 4, 5, 6, 7, 0]",/,2500,3000,0,8,252.7587515,1024,2,48000,-16,main,"[(0, -252), (178, -178), (252, 0), (178, 178), (0, 252), (-178, 178), (-252, 0), (-178, -178)]",[],42,even,3,NA,128603,140542,140542,58836,57826,2041,68668,68668,2041,2041,62673,203312,2040,140542,202606,201824,201824,NA,774,study_X,0,3837,1,yes,1680
undefined,undefined,NA,NA,NA,3837,3837,black,no,legacy,legacy,legacy,0,green,"(0, 123, 0)",color,present,lowProb2,rectangular,swap,same,swap,same,red,"(177, 0, 0)",highProbShape,highProbShape,rectangular,uniform,1,undefined,0,0.15625,1,1,121.6822917,1,30,23363,0,0,0,0,0,0,0,0,55,0,1,0.15625,121.6822917,30,23363,54,54,54,11/28/2018 10:00,Default description,yes,<openexp._canvas.legacy.Legacy object at 0x05283810>,<openexp._canvas.legacy.Legacy object at 0x05299850>,<openexp._canvas.legacy.Legacy object at 0x052F2FB0>,<openexp._canvas.legacy.Legacy object at 0x0511A930>,<openexp._canvas.legacy.Legacy object at 0x0510A190>,<openexp._canvas.legacy.Legacy object at 0x05276290>,<openexp._canvas.legacy.Legacy object at 0x0511A970>,<openexp._canvas.legacy.Legacy object at 0x05154D90>,75,SpatProbMultiple3.osexp,C:/Userdata/Michel/SpatProbMultiple3,no,mono,no,18,no,white,no,yes,0.09,98,1050,legacy,45,29,29,1,C:/Userdata/Michel/SpatProbMultiple3/beh/subject-18.csv,legacy,9,192,25,Kafkaesque Koffka,3.2.5,yes,598477b2b83f69022949e7e9,47,green,rectangular,red,rectangular,0,\,936,space,3837,3837,"(80, 80, 80)","(0, 123, 0)","(177, 0, 0)","(155, 155, 155)",2,legacy,experiment,"[1, 2, 3, 4, 5, 6, 7, 0]",\,2500,3000,0,8,252.7587515,1024,2,48000,-16,main,"[(0, -252), (178, -178), (252, 0), (178, 178), (0, 252), (-178, 178), (-252, 0), (-178, -178)]",[],42,even,5,NA,128603,140542,140542,58836,57826,2041,68668,68668,2041,2041,62673,205448,2040,140542,204509,203725,203725,NA,774,study_X,0,3837,1,yes,1680
undefined,undefined,NA,NA,NA,3837,3837,black,no,legacy,legacy,legacy,0,green,"(0, 123, 0)",color,present,lowProb6,circular,same,swap,same,swap,red,"(177, 0, 0)",highProbColor,highProbColor,circular,uniform,1,undefined,0,0.161458333,1,1,124.953125,1,31,23991,0,0,0,0,0,0,0,0,56,0,1,0.161458333,124.953125,31,23991,55,55,55,11/28/2018 10:00,Default description,yes,<openexp._canvas.legacy.Legacy object at 0x05283810>,<openexp._canvas.legacy.Legacy object at 0x05299850>,<openexp._canvas.legacy.Legacy object at 0x052F2FB0>,<openexp._canvas.legacy.Legacy object at 0x0511A930>,<openexp._canvas.legacy.Legacy object at 0x0510A190>,<openexp._canvas.legacy.Legacy object at 0x05276290>,<openexp._canvas.legacy.Legacy object at 0x05299D50>,<openexp._canvas.legacy.Legacy object at 0x05154D90>,75,SpatProbMultiple3.osexp,C:/Userdata/Michel/SpatProbMultiple3,no,mono,no,18,no,white,no,yes,0.09,98,1050,legacy,315,30,30,1,C:/Userdata/Michel/SpatProbMultiple3/beh/subject-18.csv,legacy,9,192,25,Kafkaesque Koffka,3.2.5,yes,598477b2b83f69022949e7e9,47,green,circular,red,circular,0,/,628,space,3837,3837,"(80, 80, 80)","(0, 123, 0)","(177, 0, 0)","(155, 155, 155)",2,legacy,experiment,"[1, 2, 3, 4, 5, 6, 7, 0]",/,2500,3000,0,8,252.7587515,1024,2,48000,-16,main,"[(0, -252), (178, -178), (252, 0), (178, 178), (0, 252), (-178, 178), (-252, 0), (-178, -178)]",[],42,even,1,NA,128603,140542,140542,58836,57826,2041,68668,68668,2041,2041,62673,207296,2040,140542,206665,205882,205882,NA,774,study_X,0,3837,1,yes,1680
undefined,undefined,NA,NA,NA,3837,3837,black,no,legacy,legacy,legacy,0,red,"(177, 0, 0)",shape,present,highProb,rectangular,swap,swap,same,same,red,"(177, 0, 0)",lowProb,lowProb2,circular,uniform,1,undefined,0,0.166666667,1,1,129.7083333,1,32,24904,0,0,0,0,0,0,0,0,57,0,1,0.166666667,129.7083333,32,24904,56,56,56,11/28/2018 10:00,Default description,yes,<openexp._canvas.legacy.Legacy object at 0x05283810>,<openexp._canvas.legacy.Legacy object at 0x05299850>,<openexp._canvas.legacy.Legacy object at 0x052F2FB0>,<openexp._canvas.legacy.Legacy object at 0x0511A930>,<openexp._canvas.legacy.Legacy object at 0x0510A190>,<openexp._canvas.legacy.Legacy object at 0x05276290>,<openexp._canvas.legacy.Legacy object at 0x052F6F50>,<openexp._canvas.legacy.Legacy object at 0x05154D90>,75,SpatProbMultiple3.osexp,C:/Userdata/Michel/SpatProbMultiple3,no,mono,no,18,no,white,no,yes,0.09,98,1050,legacy,45,31,31,1,C:/Userdata/Michel/SpatProbMultiple3/beh/subject-18.csv,legacy,9,192,25,Kafkaesque Koffka,3.2.5,yes,598477b2b83f69022949e7e9,47,red,rectangular,red,circular,0,\,913,space,3837,3837,"(80, 80, 80)","(0, 123, 0)","(177, 0, 0)","(155, 155, 155)",2,legacy,experiment,"[1, 2, 3, 4, 5, 6, 7, 0]",\,2500,3000,0,8,252.7587515,1024,2,48000,-16,main,"[(0, -252), (178, -178), (252, 0), (178, 178), (0, 252), (-178, 178), (-252, 0), (-178, -178)]",[],42,even,3,NA,128603,140542,140542,58836,57826,2041,68668,68668,2041,2041,62673,209416,2040,140542,208501,207717,207717,NA,774,study_X,0,3837,1,yes,1680
undefined,undefined,NA,NA,NA,3837,3837,black,no,legacy,legacy,legacy,0,red,"(177, 0, 0)",color,present,highProb,rectangular,same,same,swap,swap,green,"(0, 123, 0)",lowProb,lowProb4,rectangular,uniform,1,undefined,0,0.171875,1,1,133.7083333,1,33,25672,0,0,0,0,0,0,0,0,58,0,1,0.171875,133.7083333,33,25672,57,57,57,11/28/2018 10:00,Default description,yes,<openexp._canvas.legacy.Legacy object at 0x05283810>,<openexp._canvas.legacy.Legacy object at 0x05299850>,<openexp._canvas.legacy.Legacy object at 0x052F2FB0>,<openexp._canvas.legacy.Legacy object at 0x0511A930>,<openexp._canvas.legacy.Legacy object at 0x0510A190>,<openexp._canvas.legacy.Legacy object at 0x05276290>,<openexp._canvas.legacy.Legacy object at 0x052EA9B0>,<openexp._canvas.legacy.Legacy object at 0x05154D90>,75,SpatProbMultiple3.osexp,C:/Userdata/Michel/SpatProbMultiple3,no,mono,no,18,no,white,no,yes,0.09,98,1050,legacy,315,32,32,1,C:/Userdata/Michel/SpatProbMultiple3/beh/subject-18.csv,legacy,9,192,25,Kafkaesque Koffka,3.2.5,yes,598477b2b83f69022949e7e9,47,red,rectangular,green,rectangular,0,/,768,space,3837,3837,"(80, 80, 80)","(0, 123, 0)","(177, 0, 0)","(155, 155, 155)",2,legacy,experiment,"[1, 2, 3, 4, 5, 6, 7, 0]",/,2500,3000,0,8,252.7587515,1024,2,48000,-16,main,"[(0, -252), (178, -178), (252, 0), (178, 178), (0, 252), (-178, 178), (-252, 0), (-178, -178)]",[],42,even,6,NA,128603,140542,140542,58836,57826,2041,68668,68668,2041,2041,62673,211385,2040,140542,210614,209830,209831,NA,774,study_X,0,3837,1,yes,1680
undefined,undefined,NA,NA,NA,3837,3837,black,no,legacy,legacy,legacy,0,green,"(0, 123, 0)",color,present,lowProb3,circular,swap,swap,swap,swap,red,"(177, 0, 0)",lowProb,lowProb5,circular,uniform,1,undefined,0,0.177083333,1,1,138.9895833,1,34,26686,0,0,0,0,0,0,0,0,59,0,1,0.177083333,138.9895833,34,26686,58,58,58,11/28/2018 10:00,Default description,yes,<openexp._canvas.legacy.Legacy object at 0x05283810>,<openexp._canvas.legacy.Legacy object at 0x05299850>,<openexp._canvas.legacy.Legacy object at 0x052F2FB0>,<openexp._canvas.legacy.Legacy object at 0x0511A930>,<openexp._canvas.legacy.Legacy object at 0x0510A190>,<openexp._canvas.legacy.Legacy object at 0x05276290>,<openexp._canvas.legacy.Legacy object at 0x0528D090>,<openexp._canvas.legacy.Legacy object at 0x05154D90>,75,SpatProbMultiple3.osexp,C:/Userdata/Michel/SpatProbMultiple3,no,mono,no,18,no,white,no,yes,0.09,98,1050,legacy,315,33,33,1,C:/Userdata/Michel/SpatProbMultiple3/beh/subject-18.csv,legacy,9,192,25,Kafkaesque Koffka,3.2.5,yes,598477b2b83f69022949e7e9,47,green,circular,red,circular,0,/,1014,space,3837,3837,"(80, 80, 80)","(0, 123, 0)","(177, 0, 0)","(155, 155, 155)",2,legacy,experiment,"[1, 2, 3, 4, 5, 6, 7, 0]",/,2500,3000,0,8,252.7587515,1024,2,48000,-16,main,"[(0, -252), (178, -178), (252, 0), (178, 178), (0, 252), (-178, 178), (-252, 0), (-178, -178)]",[],42,even,7,NA,128603,140542,140542,58836,57826,2041,68668,68668,2041,2041,62673,213609,2040,140542,212591,211808,211808,NA,774,study_X,0,3837,1,yes,1680
undefined,undefined,NA,NA,NA,3837,3837,black,no,legacy,legacy,legacy,0,red,"(177, 0, 0)",color,present,highProb,rectangular,swap,swap,swap,swap,green,"(0, 123, 0)",lowProb,lowProb4,rectangular,uniform,1,undefined,0,0.182291667,1,1,142.5520833,1,35,27370,0,0,0,0,0,0,0,0,60,0,1,0.182291667,142.5520833,35,27370,59,59,59,11/28/2018 10:00,Default description,yes,<openexp._canvas.legacy.Legacy object at 0x05283810>,<openexp._canvas.legacy.Legacy object at 0x05299850>,<openexp._canvas.legacy.Legacy object at 0x052F2FB0>,<openexp._canvas.legacy.Legacy object at 0x0511A930>,<openexp._canvas.legacy.Legacy object at 0x0510A190>,<openexp._canvas.legacy.Legacy object at 0x05276290>,<openexp._canvas.legacy.Legacy object at 0x05054BD0>,<openexp._canvas.legacy.Legacy object at 0x05154D90>,75,SpatProbMultiple3.osexp,C:/Userdata/Michel/SpatProbMultiple3,no,mono,no,18,no,white,no,yes,0.09,98,1050,legacy,45,34,34,1,C:/Userdata/Michel/SpatProbMultiple3/beh/subject-18.csv,legacy,9,192,25,Kafkaesque Koffka,3.2.5,yes,598477b2b83f69022949e7e9,47,red,rectangular,green,rectangular,0,\,684,space,3837,3837,"(80, 80, 80)","(0, 123, 0)","(177, 0, 0)","(155, 155, 155)",2,legacy,experiment,"[1, 2, 3, 4, 5, 6, 7, 0]",\,2500,3000,0,8,252.7587515,1024,2,48000,-16,main,"[(0, -252), (178, -178), (252, 0), (178, 178), (0, 252), (-178, 178), (-252, 0), (-178, -178)]",[],42,even,6,NA,128603,140542,140542,58836,57826,2041,68668,68668,2041,2041,62673,215489,2040,140542,214801,214017,214017,NA,774,study_X,0,3837,1,yes,1680
undefined,undefined,NA,NA,NA,3837,3837,black,no,legacy,legacy,legacy,0,green,"(0, 123, 0)",shape,present,highProb,rectangular,swap,same,same,swap,green,"(0, 123, 0)",lowProb,lowProb2,circular,uniform,1,undefined,0,0.1875,1,1,146.5989583,1,36,28147,0,0,0,0,0,0,0,0,61,0,1,0.1875,146.5989583,36,28147,60,60,60,11/28/2018 10:00,Default description,yes,<openexp._canvas.legacy.Legacy object at 0x05283810>,<openexp._canvas.legacy.Legacy object at 0x05299850>,<openexp._canvas.legacy.Legacy object at 0x052F2FB0>,<openexp._canvas.legacy.Legacy object at 0x0511A930>,<openexp._canvas.legacy.Legacy object at 0x0510A190>,<openexp._canvas.legacy.Legacy object at 0x05276290>,<openexp._canvas.legacy.Legacy object at 0x052EA4F0>,<openexp._canvas.legacy.Legacy object at 0x05154D90>,75,SpatProbMultiple3.osexp,C:/Userdata/Michel/SpatProbMultiple3,no,mono,no,18,no,white,no,yes,0.09,98,1050,legacy,315,35,35,1,C:/Userdata/Michel/SpatProbMultiple3/beh/subject-18.csv,legacy,9,192,25,Kafkaesque Koffka,3.2.5,yes,598477b2b83f69022949e7e9,47,green,rectangular,green,circular,0,/,777,space,3837,3837,"(80, 80, 80)","(0, 123, 0)","(177, 0, 0)","(155, 155, 155)",2,legacy,experiment,"[1, 2, 3, 4, 5, 6, 7, 0]",/,2500,3000,0,8,252.7587515,1024,2,48000,-16,main,"[(0, -252), (178, -178), (252, 0), (178, 178), (0, 252), (-178, 178), (-252, 0), (-178, -178)]",[],42,even,3,NA,128603,140542,140542,58836,57826,2041,68668,68668,2041,2041,62673,217481,2040,140542,216700,215917,215917,NA,774,study_X,0,3837,1,yes,1680
undefined,undefined,NA,NA,NA,3837,3837,black,no,legacy,legacy,legacy,0,green,"(0, 123, 0)",shape,present,highProb,rectangular,same,same,same,same,green,"(0, 123, 0)",lowProb,lowProb4,circular,uniform,1,undefined,0,0.192708333,1,1,150.625,1,37,28920,0,0,0,0,0,0,0,0,62,0,1,0.192708333,150.625,37,28920,61,61,61,11/28/2018 10:00,Default description,yes,<openexp._canvas.legacy.Legacy object at 0x05283810>,<openexp._canvas.legacy.Legacy object at 0x05299850>,<openexp._canvas.legacy.Legacy object at 0x052F2FB0>,<openexp._canvas.legacy.Legacy object at 0x0511A930>,<openexp._canvas.legacy.Legacy object at 0x0510A190>,<openexp._canvas.legacy.Legacy object at 0x05276290>,<openexp._canvas.legacy.Legacy object at 0x05299D50>,<openexp._canvas.legacy.Legacy object at 0x05154D90>,75,SpatProbMultiple3.osexp,C:/Userdata/Michel/SpatProbMultiple3,no,mono,no,18,no,white,no,yes,0.09,98,1050,legacy,45,36,36,1,C:/Userdata/Michel/SpatProbMultiple3/beh/subject-18.csv,legacy,9,192,25,Kafkaesque Koffka,3.2.5,yes,598477b2b83f69022949e7e9,47,green,rectangular,green,circular,0,\,773,space,3837,3837,"(80, 80, 80)","(0, 123, 0)","(177, 0, 0)","(155, 155, 155)",2,legacy,experiment,"[1, 2, 3, 4, 5, 6, 7, 0]",\,2500,3000,0,8,252.7587515,1024,2,48000,-16,main,"[(0, -252), (178, -178), (252, 0), (178, 178), (0, 252), (-178, 178), (-252, 0), (-178, -178)]",[],42,even,6,NA,128603,140542,140542,58836,57826,2041,68668,68668,2041,2041,62673,219464,2040,140542,218688,217905,217905,NA,774,study_X,0,3837,1,yes,1680
undefined,undefined,NA,NA,NA,3837,3837,black,no,legacy,legacy,legacy,0,green,"(0, 123, 0)",color,present,highProbOther,rectangular,same,same,swap,swap,red,"(177, 0, 0)",lowProb,lowProb2,rectangular,uniform,1,undefined,0,0.197916667,1,1,154.5364583,1,38,29671,0,0,0,0,0,0,0,0,63,0,1,0.197916667,154.5364583,38,29671,62,62,62,11/28/2018 10:00,Default description,yes,<openexp._canvas.legacy.Legacy object at 0x05283810>,<openexp._canvas.legacy.Legacy object at 0x05299850>,<openexp._canvas.legacy.Legacy object at 0x052F2FB0>,<openexp._canvas.legacy.Legacy object at 0x0511A930>,<openexp._canvas.legacy.Legacy object at 0x0510A190>,<openexp._canvas.legacy.Legacy object at 0x05276290>,<openexp._canvas.legacy.Legacy object at 0x0528D450>,<openexp._canvas.legacy.Legacy object at 0x05154D90>,75,SpatProbMultiple3.osexp,C:/Userdata/Michel/SpatProbMultiple3,no,mono,no,18,no,white,no,yes,0.09,98,1050,legacy,45,37,37,1,C:/Userdata/Michel/SpatProbMultiple3/beh/subject-18.csv,legacy,9,192,25,Kafkaesque Koffka,3.2.5,yes,598477b2b83f69022949e7e9,47,green,rectangular,red,rectangular,0,\,751,space,3837,3837,"(80, 80, 80)","(0, 123, 0)","(177, 0, 0)","(155, 155, 155)",2,legacy,experiment,"[1, 2, 3, 4, 5, 6, 7, 0]",\,2500,3000,0,8,252.7587515,1024,2,48000,-16,main,"[(0, -252), (178, -178), (252, 0), (178, 178), (0, 252), (-178, 178), (-252, 0), (-178, -178)]",[],42,even,3,NA,128603,140542,140542,58836,57826,2041,68668,68668,2041,2041,62673,221416,2040,140542,220662,219878,219878,NA,774,study_X,0,3837,1,yes,1680
undefined,undefined,NA,NA,NA,3837,3837,black,no,legacy,legacy,legacy,0,red,"(177, 0, 0)",shape,absent,lowProb3,rectangular,swap,same,same,same,red,"(177, 0, 0)",lowProb,lowProb1,rectangular,uniform,1,undefined,0,0.203125,1,1,157.1197917,1,39,30167,0,0,0,0,0,0,0,0,64,0,1,0.203125,157.1197917,39,30167,63,63,63,11/28/2018 10:00,Default description,yes,<openexp._canvas.legacy.Legacy object at 0x05283810>,<openexp._canvas.legacy.Legacy object at 0x05299850>,<openexp._canvas.legacy.Legacy object at 0x052F2FB0>,<openexp._canvas.legacy.Legacy object at 0x0511A930>,<openexp._canvas.legacy.Legacy object at 0x0510A190>,<openexp._canvas.legacy.Legacy object at 0x05276290>,<openexp._canvas.legacy.Legacy object at 0x0528DC10>,<openexp._canvas.legacy.Legacy object at 0x05154D90>,75,SpatProbMultiple3.osexp,C:/Userdata/Michel/SpatProbMultiple3,no,mono,no,18,no,white,no,yes,0.09,98,1050,legacy,315,38,38,1,C:/Userdata/Michel/SpatProbMultiple3/beh/subject-18.csv,legacy,9,192,25,Kafkaesque Koffka,3.2.5,yes,598477b2b83f69022949e7e9,47,red,rectangular,red,rectangular,0,/,496,space,3837,3837,"(80, 80, 80)","(0, 123, 0)","(177, 0, 0)","(155, 155, 155)",2,legacy,experiment,"[1, 2, 3, 4, 5, 6, 7, 0]",/,2500,3000,0,8,252.7587515,1024,2,48000,-16,main,"[(0, -252), (178, -178), (252, 0), (178, 178), (0, 252), (-178, 178), (-252, 0), (-178, -178)]",[],42,even,2,NA,128603,140542,140542,58836,57826,2041,68668,68668,2041,2041,62673,223112,2040,140542,222614,221831,221831,NA,774,study_X,0,3837,1,yes,1680
undefined,undefined,NA,NA,NA,3837,3837,black,no,legacy,legacy,legacy,0,green,"(0, 123, 0)",shape,present,lowProb4,rectangular,swap,same,swap,swap,green,"(0, 123, 0)",highProbShape,highProbShape,circular,uniform,1,undefined,0,0.208333333,1,1,162.171875,1,40,31137,0,0,0,0,0,0,0,0,65,0,1,0.208333333,162.171875,40,31137,64,64,64,11/28/2018 10:00,Default description,yes,<openexp._canvas.legacy.Legacy object at 0x05283810>,<openexp._canvas.legacy.Legacy object at 0x05299850>,<openexp._canvas.legacy.Legacy object at 0x052F2FB0>,<openexp._canvas.legacy.Legacy object at 0x0511A930>,<openexp._canvas.legacy.Legacy object at 0x0510A190>,<openexp._canvas.legacy.Legacy object at 0x05276290>,<openexp._canvas.legacy.Legacy object at 0x05283290>,<openexp._canvas.legacy.Legacy object at 0x05154D90>,75,SpatProbMultiple3.osexp,C:/Userdata/Michel/SpatProbMultiple3,no,mono,no,18,no,white,no,yes,0.09,98,1050,legacy,315,39,39,1,C:/Userdata/Michel/SpatProbMultiple3/beh/subject-18.csv,legacy,9,192,25,Kafkaesque Koffka,3.2.5,yes,598477b2b83f69022949e7e9,47,green,rectangular,green,circular,0,/,970,space,3837,3837,"(80, 80, 80)","(0, 123, 0)","(177, 0, 0)","(155, 155, 155)",2,legacy,experiment,"[1, 2, 3, 4, 5, 6, 7, 0]",/,2500,3000,0,8,252.7587515,1024,2,48000,-16,main,"[(0, -252), (178, -178), (252, 0), (178, 178), (0, 252), (-178, 178), (-252, 0), (-178, -178)]",[],42,even,5,NA,128603,140542,140542,58836,57826,2041,68668,68668,2041,2041,62673,225288,2040,140542,224315,223532,223532,NA,774,study_X,0,3837,1,yes,1680
undefined,undefined,NA,NA,NA,3837,3837,black,no,legacy,legacy,legacy,0,red,"(177, 0, 0)",shape,present,highProb,circular,swap,swap,swap,swap,red,"(177, 0, 0)",highProbColor,highProbColor,rectangular,uniform,1,undefined,0,0.213541667,1,1,172.4270833,1,41,33106,0,0,0,0,0,0,0,0,66,0,1,0.213541667,172.4270833,41,33106,65,65,65,11/28/2018 10:00,Default description,yes,<openexp._canvas.legacy.Legacy object at 0x05283810>,<openexp._canvas.legacy.Legacy object at 0x05299850>,<openexp._canvas.legacy.Legacy object at 0x052F2FB0>,<openexp._canvas.legacy.Legacy object at 0x0511A930>,<openexp._canvas.legacy.Legacy object at 0x0510A190>,<openexp._canvas.legacy.Legacy object at 0x05276290>,<openexp._canvas.legacy.Legacy object at 0x052995F0>,<openexp._canvas.legacy.Legacy object at 0x05154D90>,75,SpatProbMultiple3.osexp,C:/Userdata/Michel/SpatProbMultiple3,no,mono,no,18,no,white,no,yes,0.09,98,1050,legacy,315,40,40,1,C:/Userdata/Michel/SpatProbMultiple3/beh/subject-18.csv,legacy,9,192,25,Kafkaesque Koffka,3.2.5,yes,598477b2b83f69022949e7e9,47,red,circular,red,rectangular,0,/,1969,space,3837,3837,"(80, 80, 80)","(0, 123, 0)","(177, 0, 0)","(155, 155, 155)",2,legacy,experiment,"[1, 2, 3, 4, 5, 6, 7, 0]",/,2500,3000,0,8,252.7587515,1024,2,48000,-16,main,"[(0, -252), (178, -178), (252, 0), (178, 178), (0, 252), (-178, 178), (-252, 0), (-178, -178)]",[],42,even,1,NA,128603,140542,140542,58836,57826,2041,68668,68668,2041,2041,62673,228457,2040,140542,226485,225702,225702,NA,774,study_X,0,3837,1,yes,1680
undefined,undefined,NA,NA,NA,3837,3837,black,no,legacy,legacy,legacy,0,red,"(177, 0, 0)",color,present,highProb,circular,same,same,swap,swap,green,"(0, 123, 0)",lowProb,lowProb1,circular,uniform,1,undefined,0,0.21875,1,1,175.296875,1,42,33657,0,0,0,0,0,0,0,0,67,0,1,0.21875,175.296875,42,33657,66,66,66,11/28/2018 10:00,Default description,yes,<openexp._canvas.legacy.Legacy object at 0x05283810>,<openexp._canvas.legacy.Legacy object at 0x05299850>,<openexp._canvas.legacy.Legacy object at 0x052F2FB0>,<openexp._canvas.legacy.Legacy object at 0x0511A930>,<openexp._canvas.legacy.Legacy object at 0x0510A190>,<openexp._canvas.legacy.Legacy object at 0x05276290>,<openexp._canvas.legacy.Legacy object at 0x0528D450>,<openexp._canvas.legacy.Legacy object at 0x05154D90>,75,SpatProbMultiple3.osexp,C:/Userdata/Michel/SpatProbMultiple3,no,mono,no,18,no,white,no,yes,0.09,98,1050,legacy,315,41,41,1,C:/Userdata/Michel/SpatProbMultiple3/beh/subject-18.csv,legacy,9,192,25,Kafkaesque Koffka,3.2.5,yes,598477b2b83f69022949e7e9,47,red,circular,green,circular,0,/,551,space,3837,3837,"(80, 80, 80)","(0, 123, 0)","(177, 0, 0)","(155, 155, 155)",2,legacy,experiment,"[1, 2, 3, 4, 5, 6, 7, 0]",/,2500,3000,0,8,252.7587515,1024,2,48000,-16,main,"[(0, -252), (178, -178), (252, 0), (178, 178), (0, 252), (-178, 178), (-252, 0), (-178, -178)]",[],42,even,2,NA,128603,140542,140542,58836,57826,2041,68668,68668,2041,2041,62673,230225,2040,140542,229670,228887,228887,NA,774,study_X,0,3837,1,yes,1680
undefined,undefined,NA,NA,NA,3837,3837,black,no,legacy,legacy,legacy,0,green,"(0, 123, 0)",color,present,highProb,rectangular,swap,swap,swap,swap,red,"(177, 0, 0)",highProbShape,highProbShape,rectangular,uniform,1,undefined,0,0.223958333,1,1,178.125,1,43,34200,0,0,0,0,0,0,0,0,68,0,1,0.223958333,178.125,43,34200,67,67,67,11/28/2018 10:00,Default description,yes,<openexp._canvas.legacy.Legacy object at 0x05283810>,<openexp._canvas.legacy.Legacy object at 0x05299850>,<openexp._canvas.legacy.Legacy object at 0x052F2FB0>,<openexp._canvas.legacy.Legacy object at 0x0511A930>,<openexp._canvas.legacy.Legacy object at 0x0510A190>,<openexp._canvas.legacy.Legacy object at 0x05276290>,<openexp._canvas.legacy.Legacy object at 0x05316530>,<openexp._canvas.legacy.Legacy object at 0x05154D90>,75,SpatProbMultiple3.osexp,C:/Userdata/Michel/SpatProbMultiple3,no,mono,no,18,no,white,no,yes,0.09,98,1050,legacy,315,42,42,1,C:/Userdata/Michel/SpatProbMultiple3/beh/subject-18.csv,legacy,9,192,25,Kafkaesque Koffka,3.2.5,yes,598477b2b83f69022949e7e9,47,green,rectangular,red,rectangular,0,/,543,space,3837,3837,"(80, 80, 80)","(0, 123, 0)","(177, 0, 0)","(155, 155, 155)",2,legacy,experiment,"[1, 2, 3, 4, 5, 6, 7, 0]",/,2500,3000,0,8,252.7587515,1024,2,48000,-16,main,"[(0, -252), (178, -178), (252, 0), (178, 178), (0, 252), (-178, 178), (-252, 0), (-178, -178)]",[],42,even,5,NA,128603,140542,140542,58836,57826,2041,68668,68668,2041,2041,62673,231969,2040,140542,231423,230639,230639,NA,774,study_X,0,3837,1,yes,1680
undefined,undefined,NA,NA,NA,3837,3837,black,no,legacy,legacy,legacy,0,red,"(177, 0, 0)",color,present,lowProb2,circular,swap,swap,swap,swap,green,"(0, 123, 0)",lowProb,lowProb4,circular,uniform,1,undefined,0,0.229166667,1,1,181.2552083,1,44,34801,0,0,0,0,0,0,0,0,69,0,1,0.229166667,181.2552083,44,34801,68,68,68,11/28/2018 10:00,Default description,yes,<openexp._canvas.legacy.Legacy object at 0x05283810>,<openexp._canvas.legacy.Legacy object at 0x05299850>,<openexp._canvas.legacy.Legacy object at 0x052F2FB0>,<openexp._canvas.legacy.Legacy object at 0x0511A930>,<openexp._canvas.legacy.Legacy object at 0x0510A190>,<openexp._canvas.legacy.Legacy object at 0x05276290>,<openexp._canvas.legacy.Legacy object at 0x052EA4D0>,<openexp._canvas.legacy.Legacy object at 0x05154D90>,75,SpatProbMultiple3.osexp,C:/Userdata/Michel/SpatProbMultiple3,no,mono,no,18,no,white,no,yes,0.09,98,1050,legacy,315,43,43,1,C:/Userdata/Michel/SpatProbMultiple3/beh/subject-18.csv,legacy,9,192,25,Kafkaesque Koffka,3.2.5,yes,598477b2b83f69022949e7e9,47,red,circular,green,circular,0,/,601,space,3837,3837,"(80, 80, 80)","(0, 123, 0)","(177, 0, 0)","(155, 155, 155)",2,legacy,experiment,"[1, 2, 3, 4, 5, 6, 7, 0]",/,2500,3000,0,8,252.7587515,1024,2,48000,-16,main,"[(0, -252), (178, -178), (252, 0), (178, 178), (0, 252), (-178, 178), (-252, 0), (-178, -178)]",[],42,even,6,NA,128603,140542,140542,58836,57826,2041,68668,68668,2041,2041,62673,233777,2040,140542,233172,232388,232388,NA,774,study_X,0,3837,1,yes,1680
undefined,undefined,NA,NA,NA,3837,3837,black,no,legacy,legacy,legacy,0,red,"(177, 0, 0)",shape,present,highProb,rectangular,same,swap,swap,same,red,"(177, 0, 0)",highProbColor,highProbColor,circular,uniform,1,undefined,0,0.234375,1,1,186.2291667,1,45,35756,0,0,0,0,0,0,0,0,70,0,1,0.234375,186.2291667,45,35756,69,69,69,11/28/2018 10:00,Default description,yes,<openexp._canvas.legacy.Legacy object at 0x05283810>,<openexp._canvas.legacy.Legacy object at 0x05299850>,<openexp._canvas.legacy.Legacy object at 0x052F2FB0>,<openexp._canvas.legacy.Legacy object at 0x0511A930>,<openexp._canvas.legacy.Legacy object at 0x0510A190>,<openexp._canvas.legacy.Legacy object at 0x05276290>,<openexp._canvas.legacy.Legacy object at 0x05320FF0>,<openexp._canvas.legacy.Legacy object at 0x05154D90>,75,SpatProbMultiple3.osexp,C:/Userdata/Michel/SpatProbMultiple3,no,mono,no,18,no,white,no,yes,0.09,98,1050,legacy,45,44,44,1,C:/Userdata/Michel/SpatProbMultiple3/beh/subject-18.csv,legacy,9,192,25,Kafkaesque Koffka,3.2.5,yes,598477b2b83f69022949e7e9,47,red,rectangular,red,circular,0,\,955,space,3837,3837,"(80, 80, 80)","(0, 123, 0)","(177, 0, 0)","(155, 155, 155)",2,legacy,experiment,"[1, 2, 3, 4, 5, 6, 7, 0]",\,2500,3000,0,8,252.7587515,1024,2,48000,-16,main,"[(0, -252), (178, -178), (252, 0), (178, 178), (0, 252), (-178, 178), (-252, 0), (-178, -178)]",[],42,even,1,NA,128603,140542,140542,58836,57826,2041,68668,68668,2041,2041,62673,235936,2040,140542,234979,234196,234196,NA,774,study_X,0,3837,1,yes,1680
undefined,undefined,NA,NA,NA,3837,3837,black,no,legacy,legacy,legacy,0,green,"(0, 123, 0)",color,present,highProb,rectangular,swap,same,same,swap,red,"(177, 0, 0)",lowProb,lowProb5,rectangular,uniform,1,undefined,0,0.239583333,1,1,190.6041667,1,46,36596,0,0,0,0,0,0,0,0,71,0,1,0.239583333,190.6041667,46,36596,70,70,70,11/28/2018 10:00,Default description,yes,<openexp._canvas.legacy.Legacy object at 0x05283810>,<openexp._canvas.legacy.Legacy object at 0x05299850>,<openexp._canvas.legacy.Legacy object at 0x052F2FB0>,<openexp._canvas.legacy.Legacy object at 0x0511A930>,<openexp._canvas.legacy.Legacy object at 0x0510A190>,<openexp._canvas.legacy.Legacy object at 0x05276290>,<openexp._canvas.legacy.Legacy object at 0x0511AF10>,<openexp._canvas.legacy.Legacy object at 0x05154D90>,75,SpatProbMultiple3.osexp,C:/Userdata/Michel/SpatProbMultiple3,no,mono,no,18,no,white,no,yes,0.09,98,1050,legacy,45,45,45,1,C:/Userdata/Michel/SpatProbMultiple3/beh/subject-18.csv,legacy,9,192,25,Kafkaesque Koffka,3.2.5,yes,598477b2b83f69022949e7e9,47,green,rectangular,red,rectangular,0,\,840,space,3837,3837,"(80, 80, 80)","(0, 123, 0)","(177, 0, 0)","(155, 155, 155)",2,legacy,experiment,"[1, 2, 3, 4, 5, 6, 7, 0]",\,2500,3000,0,8,252.7587515,1024,2,48000,-16,main,"[(0, -252), (178, -178), (252, 0), (178, 178), (0, 252), (-178, 178), (-252, 0), (-178, -178)]",[],42,even,7,NA,128603,140542,140542,58836,57826,2041,68668,68668,2041,2041,62673,237976,2040,140542,237133,236350,236350,NA,774,study_X,0,3837,1,yes,1680
undefined,undefined,NA,NA,NA,3837,3837,black,no,legacy,legacy,legacy,0,red,"(177, 0, 0)",color,absent,lowProb5,circular,swap,swap,same,swap,red,"(177, 0, 0)",lowProb,lowProb3,circular,uniform,1,undefined,0,0.244791667,1,1,194.7708333,1,47,37396,0,0,0,0,0,0,0,0,72,0,1,0.244791667,194.7708333,47,37396,71,71,71,11/28/2018 10:00,Default description,yes,<openexp._canvas.legacy.Legacy object at 0x05283810>,<openexp._canvas.legacy.Legacy object at 0x05299850>,<openexp._canvas.legacy.Legacy object at 0x052F2FB0>,<openexp._canvas.legacy.Legacy object at 0x0511A930>,<openexp._canvas.legacy.Legacy object at 0x0510A190>,<openexp._canvas.legacy.Legacy object at 0x05276290>,<openexp._canvas.legacy.Legacy object at 0x052EA630>,<openexp._canvas.legacy.Legacy object at 0x05154D90>,75,SpatProbMultiple3.osexp,C:/Userdata/Michel/SpatProbMultiple3,no,mono,no,18,no,white,no,yes,0.09,98,1050,legacy,315,46,46,1,C:/Userdata/Michel/SpatProbMultiple3/beh/subject-18.csv,legacy,9,192,25,Kafkaesque Koffka,3.2.5,yes,598477b2b83f69022949e7e9,47,red,circular,red,circular,0,/,800,space,3837,3837,"(80, 80, 80)","(0, 123, 0)","(177, 0, 0)","(155, 155, 155)",2,legacy,experiment,"[1, 2, 3, 4, 5, 6, 7, 0]",/,2500,3000,0,8,252.7587515,1024,2,48000,-16,main,"[(0, -252), (178, -178), (252, 0), (178, 178), (0, 252), (-178, 178), (-252, 0), (-178, -178)]",[],42,even,4,NA,128603,140542,140542,58836,57826,2041,68668,68668,2041,2041,62673,240008,2040,140542,239206,238422,238422,NA,774,study_X,0,3837,1,yes,1680
undefined,undefined,NA,NA,NA,3837,3837,black,no,legacy,legacy,legacy,0,green,"(0, 123, 0)",shape,absent,lowProb6,rectangular,swap,swap,swap,swap,green,"(0, 123, 0)",highProbShape,highProbShape,rectangular,uniform,1,undefined,0,0.25,1,1,198.46875,1,48,38106,0,0,0,0,0,0,0,0,73,0,1,0.25,198.46875,48,38106,72,72,72,11/28/2018 10:00,Default description,yes,<openexp._canvas.legacy.Legacy object at 0x05283810>,<openexp._canvas.legacy.Legacy object at 0x05299850>,<openexp._canvas.legacy.Legacy object at 0x052F2FB0>,<openexp._canvas.legacy.Legacy object at 0x0511A930>,<openexp._canvas.legacy.Legacy object at 0x0510A190>,<openexp._canvas.legacy.Legacy object at 0x05276290>,<openexp._canvas.legacy.Legacy object at 0x0511A870>,<openexp._canvas.legacy.Legacy object at 0x05154D90>,75,SpatProbMultiple3.osexp,C:/Userdata/Michel/SpatProbMultiple3,no,mono,no,18,no,white,no,yes,0.09,98,1050,legacy,45,47,47,1,C:/Userdata/Michel/SpatProbMultiple3/beh/subject-18.csv,legacy,9,192,25,Kafkaesque Koffka,3.2.5,yes,598477b2b83f69022949e7e9,47,green,rectangular,green,rectangular,0,\,710,space,3837,3837,"(80, 80, 80)","(0, 123, 0)","(177, 0, 0)","(155, 155, 155)",2,legacy,experiment,"[1, 2, 3, 4, 5, 6, 7, 0]",\,2500,3000,0,8,252.7587515,1024,2,48000,-16,main,"[(0, -252), (178, -178), (252, 0), (178, 178), (0, 252), (-178, 178), (-252, 0), (-178, -178)]",[],42,even,5,NA,128603,140542,140542,58836,57826,2041,68668,68668,2041,2041,62673,241920,2040,140542,241207,240423,240423,NA,774,study_X,0,3837,1,yes,1680
undefined,undefined,NA,NA,NA,3837,3837,black,no,legacy,legacy,legacy,0,green,"(0, 123, 0)",color,present,lowProb5,circular,same,swap,swap,swap,red,"(177, 0, 0)",lowProb,lowProb3,circular,uniform,1,undefined,0,0.255208333,1,1,202.1510417,1,49,38813,0,0,0,0,0,0,0,0,74,0,1,0.255208333,202.1510417,49,38813,73,73,73,11/28/2018 10:00,Default description,yes,<openexp._canvas.legacy.Legacy object at 0x05283810>,<openexp._canvas.legacy.Legacy object at 0x05299850>,<openexp._canvas.legacy.Legacy object at 0x052F2FB0>,<openexp._canvas.legacy.Legacy object at 0x0511A930>,<openexp._canvas.legacy.Legacy object at 0x0510A190>,<openexp._canvas.legacy.Legacy object at 0x05276290>,<openexp._canvas.legacy.Legacy object at 0x05321150>,<openexp._canvas.legacy.Legacy object at 0x05154D90>,75,SpatProbMultiple3.osexp,C:/Userdata/Michel/SpatProbMultiple3,no,mono,no,18,no,white,no,yes,0.09,98,1050,legacy,315,48,48,1,C:/Userdata/Michel/SpatProbMultiple3/beh/subject-18.csv,legacy,9,192,25,Kafkaesque Koffka,3.2.5,yes,598477b2b83f69022949e7e9,47,green,circular,red,circular,0,/,707,space,3837,3837,"(80, 80, 80)","(0, 123, 0)","(177, 0, 0)","(155, 155, 155)",2,legacy,experiment,"[1, 2, 3, 4, 5, 6, 7, 0]",/,2500,3000,0,8,252.7587515,1024,2,48000,-16,main,"[(0, -252), (178, -178), (252, 0), (178, 178), (0, 252), (-178, 178), (-252, 0), (-178, -178)]",[],42,even,4,NA,128603,140542,140542,58836,57826,2041,68668,68668,2041,2041,62673,243832,2040,140542,243121,242338,242338,NA,774,study_X,0,3837,1,yes,1680
undefined,undefined,NA,NA,NA,3837,3837,black,no,legacy,legacy,legacy,0,green,"(0, 123, 0)",color,present,highProb,circular,same,same,same,same,red,"(177, 0, 0)",lowProb,lowProb1,circular,uniform,1,undefined,0,0.260416667,1,1,205.8489583,1,50,39523,0,0,0,0,0,0,0,0,75,0,1,0.260416667,205.8489583,50,39523,74,74,74,11/28/2018 10:00,Default description,yes,<openexp._canvas.legacy.Legacy object at 0x05283810>,<openexp._canvas.legacy.Legacy object at 0x05299850>,<openexp._canvas.legacy.Legacy object at 0x052F2FB0>,<openexp._canvas.legacy.Legacy object at 0x0511A930>,<openexp._canvas.legacy.Legacy object at 0x0510A190>,<openexp._canvas.legacy.Legacy object at 0x05276290>,<openexp._canvas.legacy.Legacy object at 0x05299DB0>,<openexp._canvas.legacy.Legacy object at 0x05154D90>,75,SpatProbMultiple3.osexp,C:/Userdata/Michel/SpatProbMultiple3,no,mono,no,18,no,white,no,yes,0.09,98,1050,legacy,45,49,49,1,C:/Userdata/Michel/SpatProbMultiple3/beh/subject-18.csv,legacy,9,192,25,Kafkaesque Koffka,3.2.5,yes,598477b2b83f69022949e7e9,47,green,circular,red,circular,0,\,710,space,3837,3837,"(80, 80, 80)","(0, 123, 0)","(177, 0, 0)","(155, 155, 155)",2,legacy,experiment,"[1, 2, 3, 4, 5, 6, 7, 0]",\,2500,3000,0,8,252.7587515,1024,2,48000,-16,main,"[(0, -252), (178, -178), (252, 0), (178, 178), (0, 252), (-178, 178), (-252, 0), (-178, -178)]",[],42,even,2,NA,128603,140542,140542,58836,57826,2041,68668,68668,2041,2041,62673,245753,2040,140542,245039,244256,244256,NA,774,study_X,0,3837,1,yes,1680
undefined,undefined,NA,NA,NA,3837,3837,black,no,legacy,legacy,legacy,0,green,"(0, 123, 0)",shape,absent,lowProb5,circular,same,same,swap,same,green,"(0, 123, 0)",lowProb,lowProb6,circular,uniform,1,undefined,0,0.265625,1,1,211.9010417,1,51,40685,0,0,0,0,0,0,0,0,76,0,1,0.265625,211.9010417,51,40685,75,75,75,11/28/2018 10:00,Default description,yes,<openexp._canvas.legacy.Legacy object at 0x05283810>,<openexp._canvas.legacy.Legacy object at 0x05299850>,<openexp._canvas.legacy.Legacy object at 0x052F2FB0>,<openexp._canvas.legacy.Legacy object at 0x0511A930>,<openexp._canvas.legacy.Legacy object at 0x0510A190>,<openexp._canvas.legacy.Legacy object at 0x05276290>,<openexp._canvas.legacy.Legacy object at 0x05320D90>,<openexp._canvas.legacy.Legacy object at 0x05154D90>,75,SpatProbMultiple3.osexp,C:/Userdata/Michel/SpatProbMultiple3,no,mono,no,18,no,white,no,yes,0.09,98,1050,legacy,315,50,50,1,C:/Userdata/Michel/SpatProbMultiple3/beh/subject-18.csv,legacy,9,192,25,Kafkaesque Koffka,3.2.5,yes,598477b2b83f69022949e7e9,47,green,circular,green,circular,0,/,1162,space,3837,3837,"(80, 80, 80)","(0, 123, 0)","(177, 0, 0)","(155, 155, 155)",2,legacy,experiment,"[1, 2, 3, 4, 5, 6, 7, 0]",/,2500,3000,0,8,252.7587515,1024,2,48000,-16,main,"[(0, -252), (178, -178), (252, 0), (178, 178), (0, 252), (-178, 178), (-252, 0), (-178, -178)]",[],42,even,0,NA,128603,140542,140542,58836,57826,2041,68668,68668,2041,2041,62673,248129,2040,140542,246963,246179,246179,NA,774,study_X,0,3837,1,yes,1680
undefined,undefined,NA,NA,NA,3837,3837,black,no,legacy,legacy,legacy,0,green,"(0, 123, 0)",color,present,highProb,rectangular,same,swap,swap,swap,red,"(177, 0, 0)",highProbShape,highProbShape,rectangular,uniform,1,undefined,0,0.270833333,1,1,215.203125,1,52,41319,0,0,0,0,0,0,0,0,77,0,1,0.270833333,215.203125,52,41319,76,76,76,11/28/2018 10:00,Default description,yes,<openexp._canvas.legacy.Legacy object at 0x05283810>,<openexp._canvas.legacy.Legacy object at 0x05299850>,<openexp._canvas.legacy.Legacy object at 0x052F2FB0>,<openexp._canvas.legacy.Legacy object at 0x0511A930>,<openexp._canvas.legacy.Legacy object at 0x0510A190>,<openexp._canvas.legacy.Legacy object at 0x05276290>,<openexp._canvas.legacy.Legacy object at 0x05299A50>,<openexp._canvas.legacy.Legacy object at 0x05154D90>,75,SpatProbMultiple3.osexp,C:/Userdata/Michel/SpatProbMultiple3,no,mono,no,18,no,white,no,yes,0.09,98,1050,legacy,45,51,51,1,C:/Userdata/Michel/SpatProbMultiple3/beh/subject-18.csv,legacy,9,192,25,Kafkaesque Koffka,3.2.5,yes,598477b2b83f69022949e7e9,47,green,rectangular,red,rectangular,0,\,634,space,3837,3837,"(80, 80, 80)","(0, 123, 0)","(177, 0, 0)","(155, 155, 155)",2,legacy,experiment,"[1, 2, 3, 4, 5, 6, 7, 0]",\,2500,3000,0,8,252.7587515,1024,2,48000,-16,main,"[(0, -252), (178, -178), (252, 0), (178, 178), (0, 252), (-178, 178), (-252, 0), (-178, -178)]",[],42,even,5,NA,128603,140542,140542,58836,57826,2041,68668,68668,2041,2041,62673,249968,2040,140542,249331,248548,248548,NA,774,study_X,0,3837,1,yes,1680
undefined,undefined,NA,NA,NA,3837,3837,black,no,legacy,legacy,legacy,0,red,"(177, 0, 0)",shape,present,highProb,circular,swap,swap,same,same,red,"(177, 0, 0)",lowProb,lowProb5,rectangular,uniform,1,undefined,0,0.276041667,1,1,220.0416667,1,53,42248,0,0,0,0,0,0,0,0,78,0,1,0.276041667,220.0416667,53,42248,77,77,77,11/28/2018 10:00,Default description,yes,<openexp._canvas.legacy.Legacy object at 0x05283810>,<openexp._canvas.legacy.Legacy object at 0x05299850>,<openexp._canvas.legacy.Legacy object at 0x052F2FB0>,<openexp._canvas.legacy.Legacy object at 0x0511A930>,<openexp._canvas.legacy.Legacy object at 0x0510A190>,<openexp._canvas.legacy.Legacy object at 0x05276290>,<openexp._canvas.legacy.Legacy object at 0x052EA070>,<openexp._canvas.legacy.Legacy object at 0x05154D90>,75,SpatProbMultiple3.osexp,C:/Userdata/Michel/SpatProbMultiple3,no,mono,no,18,no,white,no,yes,0.09,98,1050,legacy,315,52,52,1,C:/Userdata/Michel/SpatProbMultiple3/beh/subject-18.csv,legacy,9,192,25,Kafkaesque Koffka,3.2.5,yes,598477b2b83f69022949e7e9,47,red,circular,red,rectangular,0,/,929,space,3837,3837,"(80, 80, 80)","(0, 123, 0)","(177, 0, 0)","(155, 155, 155)",2,legacy,experiment,"[1, 2, 3, 4, 5, 6, 7, 0]",/,2500,3000,0,8,252.7587515,1024,2,48000,-16,main,"[(0, -252), (178, -178), (252, 0), (178, 178), (0, 252), (-178, 178), (-252, 0), (-178, -178)]",[],42,even,7,NA,128603,140542,140542,58836,57826,2041,68668,68668,2041,2041,62673,252096,2040,140542,251164,250380,250380,NA,774,study_X,0,3837,1,yes,1680
undefined,undefined,NA,NA,NA,3837,3837,black,no,legacy,legacy,legacy,0,green,"(0, 123, 0)",shape,absent,lowProb2,circular,swap,same,swap,swap,green,"(0, 123, 0)",lowProb,lowProb4,circular,uniform,1,undefined,0,0.28125,1,1,222.7291667,1,54,42764,0,0,0,0,0,0,0,0,79,0,1,0.28125,222.7291667,54,42764,78,78,78,11/28/2018 10:00,Default description,yes,<openexp._canvas.legacy.Legacy object at 0x05283810>,<openexp._canvas.legacy.Legacy object at 0x05299850>,<openexp._canvas.legacy.Legacy object at 0x052F2FB0>,<openexp._canvas.legacy.Legacy object at 0x0511A930>,<openexp._canvas.legacy.Legacy object at 0x0510A190>,<openexp._canvas.legacy.Legacy object at 0x05276290>,<openexp._canvas.legacy.Legacy object at 0x05321830>,<openexp._canvas.legacy.Legacy object at 0x05154D90>,75,SpatProbMultiple3.osexp,C:/Userdata/Michel/SpatProbMultiple3,no,mono,no,18,no,white,no,yes,0.09,98,1050,legacy,315,53,53,1,C:/Userdata/Michel/SpatProbMultiple3/beh/subject-18.csv,legacy,9,192,25,Kafkaesque Koffka,3.2.5,yes,598477b2b83f69022949e7e9,47,green,circular,green,circular,0,/,516,space,3837,3837,"(80, 80, 80)","(0, 123, 0)","(177, 0, 0)","(155, 155, 155)",2,legacy,experiment,"[1, 2, 3, 4, 5, 6, 7, 0]",/,2500,3000,0,8,252.7587515,1024,2,48000,-16,main,"[(0, -252), (178, -178), (252, 0), (178, 178), (0, 252), (-178, 178), (-252, 0), (-178, -178)]",[],42,even,6,NA,128603,140542,140542,58836,57826,2041,68668,68668,2041,2041,62673,253856,2040,140542,253337,252553,252553,NA,774,study_X,0,3837,1,yes,1680
undefined,undefined,NA,NA,NA,3837,3837,black,no,legacy,legacy,legacy,0,green,"(0, 123, 0)",color,present,highProb,circular,same,same,swap,same,red,"(177, 0, 0)",lowProb,lowProb3,circular,uniform,1,undefined,0,0.286458333,1,1,226,1,55,43392,0,0,0,0,0,0,0,0,80,0,1,0.286458333,226,55,43392,79,79,79,11/28/2018 10:00,Default description,yes,<openexp._canvas.legacy.Legacy object at 0x05283810>,<openexp._canvas.legacy.Legacy object at 0x05299850>,<openexp._canvas.legacy.Legacy object at 0x052F2FB0>,<openexp._canvas.legacy.Legacy object at 0x0511A930>,<openexp._canvas.legacy.Legacy object at 0x0510A190>,<openexp._canvas.legacy.Legacy object at 0x05276290>,<openexp._canvas.legacy.Legacy object at 0x0511F370>,<openexp._canvas.legacy.Legacy object at 0x05154D90>,75,SpatProbMultiple3.osexp,C:/Userdata/Michel/SpatProbMultiple3,no,mono,no,18,no,white,no,yes,0.09,98,1050,legacy,45,54,54,1,C:/Userdata/Michel/SpatProbMultiple3/beh/subject-18.csv,legacy,9,192,25,Kafkaesque Koffka,3.2.5,yes,598477b2b83f69022949e7e9,47,green,circular,red,circular,0,\,628,space,3837,3837,"(80, 80, 80)","(0, 123, 0)","(177, 0, 0)","(155, 155, 155)",2,legacy,experiment,"[1, 2, 3, 4, 5, 6, 7, 0]",\,2500,3000,0,8,252.7587515,1024,2,48000,-16,main,"[(0, -252), (178, -178), (252, 0), (178, 178), (0, 252), (-178, 178), (-252, 0), (-178, -178)]",[],42,even,4,NA,128603,140542,140542,58836,57826,2041,68668,68668,2041,2041,62673,255688,2040,140542,255057,254273,254273,NA,774,study_X,0,3837,1,yes,1680
undefined,undefined,NA,NA,NA,3837,3837,black,no,legacy,legacy,legacy,0,red,"(177, 0, 0)",color,present,highProb,rectangular,swap,swap,swap,swap,green,"(0, 123, 0)",lowProb,lowProb4,rectangular,uniform,1,undefined,0,0.291666667,1,1,230.1979167,1,56,44198,0,0,0,0,0,0,0,0,81,0,1,0.291666667,230.1979167,56,44198,80,80,80,11/28/2018 10:00,Default description,yes,<openexp._canvas.legacy.Legacy object at 0x05283810>,<openexp._canvas.legacy.Legacy object at 0x05299850>,<openexp._canvas.legacy.Legacy object at 0x052F2FB0>,<openexp._canvas.legacy.Legacy object at 0x0511A930>,<openexp._canvas.legacy.Legacy object at 0x0510A190>,<openexp._canvas.legacy.Legacy object at 0x05276290>,<openexp._canvas.legacy.Legacy object at 0x052F69F0>,<openexp._canvas.legacy.Legacy object at 0x05154D90>,75,SpatProbMultiple3.osexp,C:/Userdata/Michel/SpatProbMultiple3,no,mono,no,18,no,white,no,yes,0.09,98,1050,legacy,315,55,55,1,C:/Userdata/Michel/SpatProbMultiple3/beh/subject-18.csv,legacy,9,192,25,Kafkaesque Koffka,3.2.5,yes,598477b2b83f69022949e7e9,47,red,rectangular,green,rectangular,0,/,806,space,3837,3837,"(80, 80, 80)","(0, 123, 0)","(177, 0, 0)","(155, 155, 155)",2,legacy,experiment,"[1, 2, 3, 4, 5, 6, 7, 0]",/,2500,3000,0,8,252.7587515,1024,2,48000,-16,main,"[(0, -252), (178, -178), (252, 0), (178, 178), (0, 252), (-178, 178), (-252, 0), (-178, -178)]",[],42,even,6,NA,128603,140542,140542,58836,57826,2041,68668,68668,2041,2041,62673,257696,2040,140542,256887,256104,256104,NA,774,study_X,0,3837,1,yes,1680
undefined,undefined,NA,NA,NA,3837,3837,black,no,legacy,legacy,legacy,0,red,"(177, 0, 0)",shape,present,lowProb6,circular,same,swap,swap,same,red,"(177, 0, 0)",lowProb,lowProb5,rectangular,uniform,1,undefined,0,0.296875,1,1,233.3854167,1,57,44810,0,0,0,0,0,0,0,0,82,0,1,0.296875,233.3854167,57,44810,81,81,81,11/28/2018 10:00,Default description,yes,<openexp._canvas.legacy.Legacy object at 0x05283810>,<openexp._canvas.legacy.Legacy object at 0x05299850>,<openexp._canvas.legacy.Legacy object at 0x052F2FB0>,<openexp._canvas.legacy.Legacy object at 0x0511A930>,<openexp._canvas.legacy.Legacy object at 0x0510A190>,<openexp._canvas.legacy.Legacy object at 0x05276290>,<openexp._canvas.legacy.Legacy object at 0x052F27F0>,<openexp._canvas.legacy.Legacy object at 0x05154D90>,75,SpatProbMultiple3.osexp,C:/Userdata/Michel/SpatProbMultiple3,no,mono,no,18,no,white,no,yes,0.09,98,1050,legacy,315,56,56,1,C:/Userdata/Michel/SpatProbMultiple3/beh/subject-18.csv,legacy,9,192,25,Kafkaesque Koffka,3.2.5,yes,598477b2b83f69022949e7e9,47,red,circular,red,rectangular,0,/,612,space,3837,3837,"(80, 80, 80)","(0, 123, 0)","(177, 0, 0)","(155, 155, 155)",2,legacy,experiment,"[1, 2, 3, 4, 5, 6, 7, 0]",/,2500,3000,0,8,252.7587515,1024,2,48000,-16,main,"[(0, -252), (178, -178), (252, 0), (178, 178), (0, 252), (-178, 178), (-252, 0), (-178, -178)]",[],42,even,7,NA,128603,140542,140542,58836,57826,2041,68668,68668,2041,2041,62673,259512,2040,140542,258896,258113,258113,NA,774,study_X,0,3837,1,yes,1680
undefined,undefined,NA,NA,NA,3837,3837,black,no,legacy,legacy,legacy,0,red,"(177, 0, 0)",shape,present,highProb,circular,same,same,same,same,red,"(177, 0, 0)",lowProb,lowProb1,rectangular,uniform,0,undefined,0,0.296875,1,1,239.1770833,1,57,45922,0,0,0,0,0,0,0,0,83,0,1,0.296875,239.1770833,57,45922,82,82,82,11/28/2018 10:00,Default description,yes,<openexp._canvas.legacy.Legacy object at 0x05283810>,<openexp._canvas.legacy.Legacy object at 0x05299850>,<openexp._canvas.legacy.Legacy object at 0x052F2FB0>,<openexp._canvas.legacy.Legacy object at 0x0511A930>,<openexp._canvas.legacy.Legacy object at 0x0510A190>,<openexp._canvas.legacy.Legacy object at 0x05276290>,<openexp._canvas.legacy.Legacy object at 0x052EAD10>,<openexp._canvas.legacy.Legacy object at 0x05154D90>,75,SpatProbMultiple3.osexp,C:/Userdata/Michel/SpatProbMultiple3,no,mono,no,18,no,white,no,yes,0.09,98,1050,legacy,45,57,57,1,C:/Userdata/Michel/SpatProbMultiple3/beh/subject-18.csv,legacy,9,192,25,Kafkaesque Koffka,3.2.5,yes,598477b2b83f69022949e7e9,47,red,circular,red,rectangular,0,/,1112,space,3837,3837,"(80, 80, 80)","(0, 123, 0)","(177, 0, 0)","(155, 155, 155)",2,legacy,experiment,"[1, 2, 3, 4, 5, 6, 7, 0]",\,2500,3000,0,8,252.7587515,1024,2,48000,-16,main,"[(0, -252), (178, -178), (252, 0), (178, 178), (0, 252), (-178, 178), (-252, 0), (-178, -178)]",[],42,even,2,NA,128603,140542,140542,58836,57826,2041,68668,68668,2041,2041,62673,261832,2040,140542,260717,259934,259934,NA,774,study_X,0,3837,1,yes,1680
undefined,undefined,NA,NA,NA,3837,3837,black,no,legacy,legacy,legacy,0,red,"(177, 0, 0)",color,absent,highProbOther,circular,same,same,same,swap,red,"(177, 0, 0)",highProbColor,highProbColor,circular,uniform,1,undefined,0,0.302083333,1,1,243.5833333,1,58,46768,0,0,0,0,0,0,0,0,84,0,1,0.302083333,243.5833333,58,46768,83,83,83,11/28/2018 10:00,Default description,yes,<openexp._canvas.legacy.Legacy object at 0x05283810>,<openexp._canvas.legacy.Legacy object at 0x05299850>,<openexp._canvas.legacy.Legacy object at 0x052F2FB0>,<openexp._canvas.legacy.Legacy object at 0x0511A930>,<openexp._canvas.legacy.Legacy object at 0x0510A190>,<openexp._canvas.legacy.Legacy object at 0x05276290>,<openexp._canvas.legacy.Legacy object at 0x053207D0>,<openexp._canvas.legacy.Legacy object at 0x05154D90>,75,SpatProbMultiple3.osexp,C:/Userdata/Michel/SpatProbMultiple3,no,mono,no,18,no,white,no,yes,0.09,98,1050,legacy,45,58,58,1,C:/Userdata/Michel/SpatProbMultiple3/beh/subject-18.csv,legacy,9,192,25,Kafkaesque Koffka,3.2.5,yes,598477b2b83f69022949e7e9,47,red,circular,red,circular,0,\,846,space,3837,3837,"(80, 80, 80)","(0, 123, 0)","(177, 0, 0)","(155, 155, 155)",2,legacy,experiment,"[1, 2, 3, 4, 5, 6, 7, 0]",\,2500,3000,0,8,252.7587515,1024,2,48000,-16,main,"[(0, -252), (178, -178), (252, 0), (178, 178), (0, 252), (-178, 178), (-252, 0), (-178, -178)]",[],42,even,1,NA,128603,140542,140542,58836,57826,2041,68668,68668,2041,2041,62673,263897,2040,140542,263047,262263,262263,NA,774,study_X,0,3837,1,yes,1680
undefined,undefined,NA,NA,NA,3837,3837,black,no,legacy,legacy,legacy,0,red,"(177, 0, 0)",color,present,highProb,rectangular,same,swap,swap,swap,green,"(0, 123, 0)",lowProb,lowProb3,rectangular,uniform,1,undefined,0,0.307291667,1,1,246.5,1,59,47328,0,0,0,0,0,0,0,0,85,0,1,0.307291667,246.5,59,47328,84,84,84,11/28/2018 10:00,Default description,yes,<openexp._canvas.legacy.Legacy object at 0x05283810>,<openexp._canvas.legacy.Legacy object at 0x05299850>,<openexp._canvas.legacy.Legacy object at 0x052F2FB0>,<openexp._canvas.legacy.Legacy object at 0x0511A930>,<openexp._canvas.legacy.Legacy object at 0x0510A190>,<openexp._canvas.legacy.Legacy object at 0x05276290>,<openexp._canvas.legacy.Legacy object at 0x052F2090>,<openexp._canvas.legacy.Legacy object at 0x05154D90>,75,SpatProbMultiple3.osexp,C:/Userdata/Michel/SpatProbMultiple3,no,mono,no,18,no,white,no,yes,0.09,98,1050,legacy,315,59,59,1,C:/Userdata/Michel/SpatProbMultiple3/beh/subject-18.csv,legacy,9,192,25,Kafkaesque Koffka,3.2.5,yes,598477b2b83f69022949e7e9,47,red,rectangular,green,rectangular,0,/,560,space,3837,3837,"(80, 80, 80)","(0, 123, 0)","(177, 0, 0)","(155, 155, 155)",2,legacy,experiment,"[1, 2, 3, 4, 5, 6, 7, 0]",/,2500,3000,0,8,252.7587515,1024,2,48000,-16,main,"[(0, -252), (178, -178), (252, 0), (178, 178), (0, 252), (-178, 178), (-252, 0), (-178, -178)]",[],42,even,4,NA,128603,140542,140542,58836,57826,2041,68668,68668,2041,2041,62673,265680,2040,140542,265117,264334,264334,NA,774,study_X,0,3837,1,yes,1680
undefined,undefined,NA,NA,NA,3837,3837,black,no,legacy,legacy,legacy,0,red,"(177, 0, 0)",shape,present,highProb,circular,same,swap,swap,same,red,"(177, 0, 0)",lowProb,lowProb3,rectangular,uniform,1,undefined,0,0.3125,1,1,250.6510417,1,60,48125,0,0,0,0,0,0,0,0,86,0,1,0.3125,250.6510417,60,48125,85,85,85,11/28/2018 10:00,Default description,yes,<openexp._canvas.legacy.Legacy object at 0x05283810>,<openexp._canvas.legacy.Legacy object at 0x05299850>,<openexp._canvas.legacy.Legacy object at 0x052F2FB0>,<openexp._canvas.legacy.Legacy object at 0x0511A930>,<openexp._canvas.legacy.Legacy object at 0x0510A190>,<openexp._canvas.legacy.Legacy object at 0x05276290>,<openexp._canvas.legacy.Legacy object at 0x052F2970>,<openexp._canvas.legacy.Legacy object at 0x05154D90>,75,SpatProbMultiple3.osexp,C:/Userdata/Michel/SpatProbMultiple3,no,mono,no,18,no,white,no,yes,0.09,98,1050,legacy,45,60,60,1,C:/Userdata/Michel/SpatProbMultiple3/beh/subject-18.csv,legacy,9,192,25,Kafkaesque Koffka,3.2.5,yes,598477b2b83f69022949e7e9,47,red,circular,red,rectangular,0,\,797,space,3837,3837,"(80, 80, 80)","(0, 123, 0)","(177, 0, 0)","(155, 155, 155)",2,legacy,experiment,"[1, 2, 3, 4, 5, 6, 7, 0]",\,2500,3000,0,8,252.7587515,1024,2,48000,-16,main,"[(0, -252), (178, -178), (252, 0), (178, 178), (0, 252), (-178, 178), (-252, 0), (-178, -178)]",[],42,even,4,NA,128603,140542,140542,58836,57826,2041,68668,68668,2041,2041,62673,267680,2040,140542,266880,266096,266096,NA,774,study_X,0,3837,1,yes,1680
undefined,undefined,NA,NA,NA,3837,3837,black,no,legacy,legacy,legacy,0,red,"(177, 0, 0)",color,absent,lowProb1,circular,same,same,same,swap,red,"(177, 0, 0)",lowProb,lowProb5,circular,uniform,1,undefined,0,0.317708333,1,1,253.5625,1,61,48684,0,0,0,0,0,0,0,0,87,0,1,0.317708333,253.5625,61,48684,86,86,86,11/28/2018 10:00,Default description,yes,<openexp._canvas.legacy.Legacy object at 0x05283810>,<openexp._canvas.legacy.Legacy object at 0x05299850>,<openexp._canvas.legacy.Legacy object at 0x052F2FB0>,<openexp._canvas.legacy.Legacy object at 0x0511A930>,<openexp._canvas.legacy.Legacy object at 0x0510A190>,<openexp._canvas.legacy.Legacy object at 0x05276290>,<openexp._canvas.legacy.Legacy object at 0x0511FAD0>,<openexp._canvas.legacy.Legacy object at 0x05154D90>,75,SpatProbMultiple3.osexp,C:/Userdata/Michel/SpatProbMultiple3,no,mono,no,18,no,white,no,yes,0.09,98,1050,legacy,315,61,61,1,C:/Userdata/Michel/SpatProbMultiple3/beh/subject-18.csv,legacy,9,192,25,Kafkaesque Koffka,3.2.5,yes,598477b2b83f69022949e7e9,47,red,circular,red,circular,0,/,559,space,3837,3837,"(80, 80, 80)","(0, 123, 0)","(177, 0, 0)","(155, 155, 155)",2,legacy,experiment,"[1, 2, 3, 4, 5, 6, 7, 0]",/,2500,3000,0,8,252.7587515,1024,2,48000,-16,main,"[(0, -252), (178, -178), (252, 0), (178, 178), (0, 252), (-178, 178), (-252, 0), (-178, -178)]",[],42,even,7,NA,128603,140542,140542,58836,57826,2041,68668,68668,2041,2041,62673,269448,2040,140542,268886,268103,268103,NA,774,study_X,0,3837,1,yes,1680
undefined,undefined,NA,NA,NA,3837,3837,black,no,legacy,legacy,legacy,0,red,"(177, 0, 0)",shape,present,highProb,rectangular,same,swap,same,same,red,"(177, 0, 0)",lowProb,lowProb1,circular,uniform,1,undefined,0,0.322916667,1,1,255.9635417,1,62,49145,0,0,0,0,0,0,0,0,88,0,1,0.322916667,255.9635417,62,49145,87,87,87,11/28/2018 10:00,Default description,yes,<openexp._canvas.legacy.Legacy object at 0x05283810>,<openexp._canvas.legacy.Legacy object at 0x05299850>,<openexp._canvas.legacy.Legacy object at 0x052F2FB0>,<openexp._canvas.legacy.Legacy object at 0x0511A930>,<openexp._canvas.legacy.Legacy object at 0x0510A190>,<openexp._canvas.legacy.Legacy object at 0x05276290>,<openexp._canvas.legacy.Legacy object at 0x052F2850>,<openexp._canvas.legacy.Legacy object at 0x05154D90>,75,SpatProbMultiple3.osexp,C:/Userdata/Michel/SpatProbMultiple3,no,mono,no,18,no,white,no,yes,0.09,98,1050,legacy,315,62,62,1,C:/Userdata/Michel/SpatProbMultiple3/beh/subject-18.csv,legacy,9,192,25,Kafkaesque Koffka,3.2.5,yes,598477b2b83f69022949e7e9,47,red,rectangular,red,circular,0,/,461,space,3837,3837,"(80, 80, 80)","(0, 123, 0)","(177, 0, 0)","(155, 155, 155)",2,legacy,experiment,"[1, 2, 3, 4, 5, 6, 7, 0]",/,2500,3000,0,8,252.7587515,1024,2,48000,-16,main,"[(0, -252), (178, -178), (252, 0), (178, 178), (0, 252), (-178, 178), (-252, 0), (-178, -178)]",[],42,even,2,NA,128603,140542,140542,58836,57826,2041,68668,68668,2041,2041,62673,271120,2040,140542,270656,269872,269872,NA,774,study_X,0,3837,1,yes,1680
undefined,undefined,NA,NA,NA,3837,3837,black,no,legacy,legacy,legacy,0,green,"(0, 123, 0)",color,present,highProb,circular,swap,swap,same,same,red,"(177, 0, 0)",lowProb,lowProb3,circular,uniform,1,undefined,0,0.328125,1,1,258.640625,1,63,49659,0,0,0,0,0,0,0,0,89,0,1,0.328125,258.640625,63,49659,88,88,88,11/28/2018 10:00,Default description,yes,<openexp._canvas.legacy.Legacy object at 0x05283810>,<openexp._canvas.legacy.Legacy object at 0x05299850>,<openexp._canvas.legacy.Legacy object at 0x052F2FB0>,<openexp._canvas.legacy.Legacy object at 0x0511A930>,<openexp._canvas.legacy.Legacy object at 0x0510A190>,<openexp._canvas.legacy.Legacy object at 0x05276290>,<openexp._canvas.legacy.Legacy object at 0x05299A50>,<openexp._canvas.legacy.Legacy object at 0x05154D90>,75,SpatProbMultiple3.osexp,C:/Userdata/Michel/SpatProbMultiple3,no,mono,no,18,no,white,no,yes,0.09,98,1050,legacy,45,63,63,1,C:/Userdata/Michel/SpatProbMultiple3/beh/subject-18.csv,legacy,9,192,25,Kafkaesque Koffka,3.2.5,yes,598477b2b83f69022949e7e9,47,green,circular,red,circular,0,\,514,space,3837,3837,"(80, 80, 80)","(0, 123, 0)","(177, 0, 0)","(155, 155, 155)",2,legacy,experiment,"[1, 2, 3, 4, 5, 6, 7, 0]",\,2500,3000,0,8,252.7587515,1024,2,48000,-16,main,"[(0, -252), (178, -178), (252, 0), (178, 178), (0, 252), (-178, 178), (-252, 0), (-178, -178)]",[],42,even,4,NA,128603,140542,140542,58836,57826,2041,68668,68668,2041,2041,62673,272840,2040,140542,272324,271541,271541,NA,774,study_X,0,3837,1,yes,1680
undefined,undefined,NA,NA,NA,3837,3837,black,no,legacy,legacy,legacy,0,red,"(177, 0, 0)",color,absent,lowProb4,rectangular,swap,swap,same,swap,red,"(177, 0, 0)",highProbShape,highProbShape,rectangular,uniform,1,undefined,0,0.333333333,1,1,261.3541667,1,64,50180,0,0,0,0,0,0,0,0,90,0,1,0.333333333,261.3541667,64,50180,89,89,89,11/28/2018 10:00,Default description,yes,<openexp._canvas.legacy.Legacy object at 0x05283810>,<openexp._canvas.legacy.Legacy object at 0x05299850>,<openexp._canvas.legacy.Legacy object at 0x052F2FB0>,<openexp._canvas.legacy.Legacy object at 0x0511A930>,<openexp._canvas.legacy.Legacy object at 0x0510A190>,<openexp._canvas.legacy.Legacy object at 0x05276290>,<openexp._canvas.legacy.Legacy object at 0x052F6270>,<openexp._canvas.legacy.Legacy object at 0x05154D90>,75,SpatProbMultiple3.osexp,C:/Userdata/Michel/SpatProbMultiple3,no,mono,no,18,no,white,no,yes,0.09,98,1050,legacy,315,64,64,1,C:/Userdata/Michel/SpatProbMultiple3/beh/subject-18.csv,legacy,9,192,25,Kafkaesque Koffka,3.2.5,yes,598477b2b83f69022949e7e9,47,red,rectangular,red,rectangular,0,/,521,space,3837,3837,"(80, 80, 80)","(0, 123, 0)","(177, 0, 0)","(155, 155, 155)",2,legacy,experiment,"[1, 2, 3, 4, 5, 6, 7, 0]",/,2500,3000,0,8,252.7587515,1024,2,48000,-16,main,"[(0, -252), (178, -178), (252, 0), (178, 178), (0, 252), (-178, 178), (-252, 0), (-178, -178)]",[],42,even,5,NA,128603,140542,140542,58836,57826,2041,68668,68668,2041,2041,62673,274560,2040,140542,274036,273252,273253,NA,774,study_X,0,3837,1,yes,1680
