"acc","accuracy","average_response_time","avg_rt","background","bidi","canvas_backend","clock_backend","color_backend","compensation","cond_disColor","cond_disColorRGB","cond_disFeature","cond_disPresent","cond_disProbability","cond_disShape","cond_primingDisColor","cond_primingDisShape","cond_primingTarColor","cond_primingTarShape","cond_tarColor","cond_tarColorRGB","cond_tarLocation","cond_tarLocationLong","cond_tarShape","coordinates","correct","correct_continuePress","count_blockAcc","count_blockFeed","count_blockLoop","count_blockRT","count_blockSeq","count_blockSumCorrect","count_blockSumRT","count_continuePress","count_example","count_expSettings","count_exp_mainLoop","count_experiment","count_instructions","count_instructions1","count_instructions2","count_log","count_main","count_prepCanvas","count_totalAcc","count_totalRT","count_totalSumCorrect","count_totalSumRT","count_trialResp","count_trialSeq","count_trialTask","datetime","description","disable_garbage_collection","dispBlank","dispBlockStart","dispFeedBlock","dispFix","dispInstructions","dispSearch","dispStartScreen","distance2screen","experiment_file","experiment_path","font_bold","font_family","font_italic","font_size","font_underline","foreground","form_clicks","fullscreen","gaborFreq","gaborSize","height","keyboard_backend","lineOriTar","live_row","live_row_blockLoop","live_row_exp_mainLoop","logfile","mouse_backend","noExpBlocks","noExpTrials","noPracTrials","opensesame_codename","opensesame_version","osf_always_upload_experiment","osf_id","physical_screensize","previousDisColor","previousDisShape","previousTarColor","previousTarShape","repeat_cycle","response","responseTime","response_continuePress","response_time","response_time_continuePress","rgb_gray","rgb_green","rgb_red","rgb_white","round_decimals","sampler_backend","set_blockType","set_counterPositions","set_respCorrect","set_respTimeoutExp","set_respTimeoutPrac","set_rotation","set_setSize","sizeImaginary","sound_buf_size","sound_channels","sound_freq","sound_sample_size","start","stimPositions","stimuli","subject_nr","subject_parity","tarIdx","time_blockFeed","time_blockLoop","time_blockSeq","time_continuePress","time_example","time_expSettings","time_exp_mainLoop","time_experiment","time_instructions","time_instructions1","time_instructions2","time_log","time_main","time_prepCanvas","time_trialResp","time_trialSeq","time_trialTask","timing_EEGwait","timing_fix","title","total_correct","total_response_time","total_responses","uniform_coordinates","width"
"undefined","undefined","11300","11300","black","no","legacy","legacy","legacy","0","red","(179, 0, 0)","color","present","highProb","circular","same","swap","same","swap","green","(0, 122, 0)","lowProb","lowProb5","circular","uniform","1","undefined","0.00520833333333","1","1","12.0572916667","1","1","2315","0","0","0","0","0","0","0","0","25","0","1","0.00520833333333","12.0572916667","1","2315","25","25","25","08/24/17 14:06:50","Default description","yes","<openexp._canvas.legacy.legacy object at 0x047927F0>","<openexp._canvas.legacy.legacy object at 0x0479E7B0>","<openexp._canvas.legacy.legacy object at 0x0478A370>","<openexp._canvas.legacy.legacy object at 0x048809D0>","<openexp._canvas.legacy.legacy object at 0x048514B0>","<openexp._canvas.legacy.legacy object at 0x0478E550>","<openexp._canvas.legacy.legacy object at 0x04852A50>","75","IndividualPriorityWithDis_v1.osexp","C:/Userdata/Michel/SpatialProb/IndividualPriorityMaps/Experiment2","no","mono","no","18","no","white","no","yes","0.09","98","1050","legacy","45","0","0","1","C:/Userdata/Michel/SpatialProb/IndividualPriorityMaps/Experiment2/data/subject-22.csv","legacy","9","192","25","Jazzy James","3.1.3","yes","598477b2b83f69022949e7e9","47","red","circular","green","circular","0","\","2315","space","11300","11300","(80, 80, 80)","(0, 122, 0)","(179, 0, 0)","(155, 155, 155)","2","legacy","experiment","[5, 6, 7, 0, 1, 2, 3, 4]","\","2500","3000","0","8","252.758751519","1024","2","48000","-16","main","[(0, -252), (178, -178), (252, 0), (178, 178), (0, 252), (-178, 178), (-252, 0), (-178, -178)]","[]","22","even","3","285542","320182","320182","183054","182047","1774","206314","206314","1774","1774","194355","328938","1773","320182","326620","320573","320573","NA","971","study_X","0","11300","1","yes","1680"
"undefined","undefined","11300","11300","black","no","legacy","legacy","legacy","0","red","(179, 0, 0)","shape","present","highProb","rectangular","same","swap","swap","same","red","(179, 0, 0)","highProbColor","highProbColor","circular","uniform","1","undefined","0.0104166666667","1","1","19.7291666667","1","2","3788","0","0","0","0","0","0","0","0","26","0","1","0.0104166666667","19.7291666667","2","3788","26","26","26","08/24/17 14:06:50","Default description","yes","<openexp._canvas.legacy.legacy object at 0x047927F0>","<openexp._canvas.legacy.legacy object at 0x0479E7B0>","<openexp._canvas.legacy.legacy object at 0x0478A370>","<openexp._canvas.legacy.legacy object at 0x048809D0>","<openexp._canvas.legacy.legacy object at 0x048514B0>","<openexp._canvas.legacy.legacy object at 0x0479EFB0>","<openexp._canvas.legacy.legacy object at 0x04852A50>","75","IndividualPriorityWithDis_v1.osexp","C:/Userdata/Michel/SpatialProb/IndividualPriorityMaps/Experiment2","no","mono","no","18","no","white","no","yes","0.09","98","1050","legacy","45","1","1","1","C:/Userdata/Michel/SpatialProb/IndividualPriorityMaps/Experiment2/data/subject-22.csv","legacy","9","192","25","Jazzy James","3.1.3","yes","598477b2b83f69022949e7e9","47","red","rectangular","red","circular","0","\","1473","space","11300","11300","(80, 80, 80)","(0, 122, 0)","(179, 0, 0)","(155, 155, 155)","2","legacy","experiment","[5, 6, 7, 0, 1, 2, 3, 4]","\","2500","3000","0","8","252.758751519","1024","2","48000","-16","main","[(0, -252), (178, -178), (252, 0), (178, 178), (0, 252), (-178, 178), (-252, 0), (-178, -178)]","[]","22","even","5","285542","320182","320182","183054","182047","1774","206314","206314","1774","1774","194355","331826","1773","320182","330351","329374","329374","NA","971","study_X","0","11300","1","yes","1680"
"undefined","undefined","11300","11300","black","no","legacy","legacy","legacy","0","green","(0, 122, 0)","color","present","lowProb5","rectangular","swap","same","same","swap","red","(179, 0, 0)","lowProb","lowProb4","rectangular","uniform","1","undefined","0.015625","1","1","25.9114583333","1","3","4975","0","0","0","0","0","0","0","0","27","0","1","0.015625","25.9114583333","3","4975","27","27","27","08/24/17 14:06:50","Default description","yes","<openexp._canvas.legacy.legacy object at 0x047927F0>","<openexp._canvas.legacy.legacy object at 0x0479E7B0>","<openexp._canvas.legacy.legacy object at 0x0478A370>","<openexp._canvas.legacy.legacy object at 0x048809D0>","<openexp._canvas.legacy.legacy object at 0x048514B0>","<openexp._canvas.legacy.legacy object at 0x0478F950>","<openexp._canvas.legacy.legacy object at 0x04852A50>","75","IndividualPriorityWithDis_v1.osexp","C:/Userdata/Michel/SpatialProb/IndividualPriorityMaps/Experiment2","no","mono","no","18","no","white","no","yes","0.09","98","1050","legacy","45","2","2","1","C:/Userdata/Michel/SpatialProb/IndividualPriorityMaps/Experiment2/data/subject-22.csv","legacy","9","192","25","Jazzy James","3.1.3","yes","598477b2b83f69022949e7e9","47","green","rectangular","red","rectangular","0","\","1187","space","11300","11300","(80, 80, 80)","(0, 122, 0)","(179, 0, 0)","(155, 155, 155)","2","legacy","experiment","[5, 6, 7, 0, 1, 2, 3, 4]","\","2500","3000","0","8","252.758751519","1024","2","48000","-16","main","[(0, -252), (178, -178), (252, 0), (178, 178), (0, 252), (-178, 178), (-252, 0), (-178, -178)]","[]","22","even","2","285542","320182","320182","183054","182047","1774","206314","206314","1774","1774","194355","334410","1773","320182","333219","332242","332242","NA","971","study_X","0","11300","1","yes","1680"
"undefined","undefined","11300","11300","black","no","legacy","legacy","legacy","0","red","(179, 0, 0)","shape","present","highProb","circular","swap","swap","same","same","red","(179, 0, 0)","lowProb","lowProb5","rectangular","uniform","1","undefined","0.0208333333333","1","1","35.1927083333","1","4","6757","0","0","0","0","0","0","0","0","28","0","1","0.0208333333333","35.1927083333","4","6757","28","28","28","08/24/17 14:06:50","Default description","yes","<openexp._canvas.legacy.legacy object at 0x047927F0>","<openexp._canvas.legacy.legacy object at 0x0479E7B0>","<openexp._canvas.legacy.legacy object at 0x0478A370>","<openexp._canvas.legacy.legacy object at 0x048809D0>","<openexp._canvas.legacy.legacy object at 0x048514B0>","<openexp._canvas.legacy.legacy object at 0x0478A250>","<openexp._canvas.legacy.legacy object at 0x04852A50>","75","IndividualPriorityWithDis_v1.osexp","C:/Userdata/Michel/SpatialProb/IndividualPriorityMaps/Experiment2","no","mono","no","18","no","white","no","yes","0.09","98","1050","legacy","315","3","3","1","C:/Userdata/Michel/SpatialProb/IndividualPriorityMaps/Experiment2/data/subject-22.csv","legacy","9","192","25","Jazzy James","3.1.3","yes","598477b2b83f69022949e7e9","47","red","circular","red","rectangular","0","/","1782","space","11300","11300","(80, 80, 80)","(0, 122, 0)","(179, 0, 0)","(155, 155, 155)","2","legacy","experiment","[5, 6, 7, 0, 1, 2, 3, 4]","/","2500","3000","0","8","252.758751519","1024","2","48000","-16","main","[(0, -252), (178, -178), (252, 0), (178, 178), (0, 252), (-178, 178), (-252, 0), (-178, -178)]","[]","22","even","3","285542","320182","320182","183054","182047","1774","206314","206314","1774","1774","194355","337579","1773","320182","335793","334816","334817","NA","971","study_X","0","11300","1","yes","1680"
"undefined","undefined","11300","11300","black","no","legacy","legacy","legacy","0","green","(0, 122, 0)","shape","present","lowProb2","circular","swap","same","swap","same","green","(0, 122, 0)","highProbColor","highProbColor","rectangular","uniform","1","undefined","0.0260416666667","1","1","46.703125","1","5","8967","0","0","0","0","0","0","0","0","29","0","1","0.0260416666667","46.703125","5","8967","29","29","29","08/24/17 14:06:50","Default description","yes","<openexp._canvas.legacy.legacy object at 0x047927F0>","<openexp._canvas.legacy.legacy object at 0x0479E7B0>","<openexp._canvas.legacy.legacy object at 0x0478A370>","<openexp._canvas.legacy.legacy object at 0x048809D0>","<openexp._canvas.legacy.legacy object at 0x048514B0>","<openexp._canvas.legacy.legacy object at 0x04880F70>","<openexp._canvas.legacy.legacy object at 0x04852A50>","75","IndividualPriorityWithDis_v1.osexp","C:/Userdata/Michel/SpatialProb/IndividualPriorityMaps/Experiment2","no","mono","no","18","no","white","no","yes","0.09","98","1050","legacy","315","4","4","1","C:/Userdata/Michel/SpatialProb/IndividualPriorityMaps/Experiment2/data/subject-22.csv","legacy","9","192","25","Jazzy James","3.1.3","yes","598477b2b83f69022949e7e9","47","green","circular","green","rectangular","0","/","2210","space","11300","11300","(80, 80, 80)","(0, 122, 0)","(179, 0, 0)","(155, 155, 155)","2","legacy","experiment","[5, 6, 7, 0, 1, 2, 3, 4]","/","2500","3000","0","8","252.758751519","1024","2","48000","-16","main","[(0, -252), (178, -178), (252, 0), (178, 178), (0, 252), (-178, 178), (-252, 0), (-178, -178)]","[]","22","even","5","285542","320182","320182","183054","182047","1774","206314","206314","1774","1774","194355","341170","1773","320182","338957","337980","337980","NA","971","study_X","0","11300","1","yes","1680"
"undefined","undefined","11300","11300","black","no","legacy","legacy","legacy","0","green","(0, 122, 0)","color","present","highProb","rectangular","same","swap","swap","same","red","(179, 0, 0)","lowProb","lowProb6","rectangular","uniform","1","undefined","0.03125","1","1","54.0677083333","1","6","10381","0","0","0","0","0","0","0","0","30","0","1","0.03125","54.0677083333","6","10381","30","30","30","08/24/17 14:06:50","Default description","yes","<openexp._canvas.legacy.legacy object at 0x047927F0>","<openexp._canvas.legacy.legacy object at 0x0479E7B0>","<openexp._canvas.legacy.legacy object at 0x0478A370>","<openexp._canvas.legacy.legacy object at 0x048809D0>","<openexp._canvas.legacy.legacy object at 0x048514B0>","<openexp._canvas.legacy.legacy object at 0x0478E610>","<openexp._canvas.legacy.legacy object at 0x04852A50>","75","IndividualPriorityWithDis_v1.osexp","C:/Userdata/Michel/SpatialProb/IndividualPriorityMaps/Experiment2","no","mono","no","18","no","white","no","yes","0.09","98","1050","legacy","45","5","5","1","C:/Userdata/Michel/SpatialProb/IndividualPriorityMaps/Experiment2/data/subject-22.csv","legacy","9","192","25","Jazzy James","3.1.3","yes","598477b2b83f69022949e7e9","47","green","rectangular","red","rectangular","0","\","1414","space","11300","11300","(80, 80, 80)","(0, 122, 0)","(179, 0, 0)","(155, 155, 155)","2","legacy","experiment","[5, 6, 7, 0, 1, 2, 3, 4]","\","2500","3000","0","8","252.758751519","1024","2","48000","-16","main","[(0, -252), (178, -178), (252, 0), (178, 178), (0, 252), (-178, 178), (-252, 0), (-178, -178)]","[]","22","even","4","285542","320182","320182","183054","182047","1774","206314","206314","1774","1774","194355","343970","1773","320182","342553","341576","341576","NA","971","study_X","0","11300","1","yes","1680"
"undefined","undefined","11300","11300","black","no","legacy","legacy","legacy","0","red","(179, 0, 0)","shape","present","highProb","circular","swap","swap","same","same","red","(179, 0, 0)","lowProb","lowProb5","rectangular","uniform","1","undefined","0.0364583333333","1","1","59.5572916667","1","7","11435","0","0","0","0","0","0","0","0","31","0","1","0.0364583333333","59.5572916667","7","11435","31","31","31","08/24/17 14:06:50","Default description","yes","<openexp._canvas.legacy.legacy object at 0x047927F0>","<openexp._canvas.legacy.legacy object at 0x0479E7B0>","<openexp._canvas.legacy.legacy object at 0x0478A370>","<openexp._canvas.legacy.legacy object at 0x048809D0>","<openexp._canvas.legacy.legacy object at 0x048514B0>","<openexp._canvas.legacy.legacy object at 0x0478F930>","<openexp._canvas.legacy.legacy object at 0x04852A50>","75","IndividualPriorityWithDis_v1.osexp","C:/Userdata/Michel/SpatialProb/IndividualPriorityMaps/Experiment2","no","mono","no","18","no","white","no","yes","0.09","98","1050","legacy","315","6","6","1","C:/Userdata/Michel/SpatialProb/IndividualPriorityMaps/Experiment2/data/subject-22.csv","legacy","9","192","25","Jazzy James","3.1.3","yes","598477b2b83f69022949e7e9","47","red","circular","red","rectangular","0","/","1054","space","11300","11300","(80, 80, 80)","(0, 122, 0)","(179, 0, 0)","(155, 155, 155)","2","legacy","experiment","[5, 6, 7, 0, 1, 2, 3, 4]","/","2500","3000","0","8","252.758751519","1024","2","48000","-16","main","[(0, -252), (178, -178), (252, 0), (178, 178), (0, 252), (-178, 178), (-252, 0), (-178, -178)]","[]","22","even","3","285542","320182","320182","183054","182047","1774","206314","206314","1774","1774","194355","346426","1773","320182","345369","344393","344393","NA","971","study_X","0","11300","1","yes","1680"
"undefined","undefined","11300","11300","black","no","legacy","legacy","legacy","0","green","(0, 122, 0)","color","present","highProb","circular","swap","same","same","swap","red","(179, 0, 0)","highProbShape","highProbShape","circular","uniform","1","undefined","0.0416666666667","1","1","65.9114583333","1","8","12655","0","0","0","0","0","0","0","0","32","0","1","0.0416666666667","65.9114583333","8","12655","32","32","32","08/24/17 14:06:50","Default description","yes","<openexp._canvas.legacy.legacy object at 0x047927F0>","<openexp._canvas.legacy.legacy object at 0x0479E7B0>","<openexp._canvas.legacy.legacy object at 0x0478A370>","<openexp._canvas.legacy.legacy object at 0x048809D0>","<openexp._canvas.legacy.legacy object at 0x048514B0>","<openexp._canvas.legacy.legacy object at 0x0478E390>","<openexp._canvas.legacy.legacy object at 0x04852A50>","75","IndividualPriorityWithDis_v1.osexp","C:/Userdata/Michel/SpatialProb/IndividualPriorityMaps/Experiment2","no","mono","no","18","no","white","no","yes","0.09","98","1050","legacy","315","7","7","1","C:/Userdata/Michel/SpatialProb/IndividualPriorityMaps/Experiment2/data/subject-22.csv","legacy","9","192","25","Jazzy James","3.1.3","yes","598477b2b83f69022949e7e9","47","green","circular","red","circular","0","/","1220","space","11300","11300","(80, 80, 80)","(0, 122, 0)","(179, 0, 0)","(155, 155, 155)","2","legacy","experiment","[5, 6, 7, 0, 1, 2, 3, 4]","/","2500","3000","0","8","252.758751519","1024","2","48000","-16","main","[(0, -252), (178, -178), (252, 0), (178, 178), (0, 252), (-178, 178), (-252, 0), (-178, -178)]","[]","22","even","1","285542","320182","320182","183054","182047","1774","206314","206314","1774","1774","194355","349066","1773","320182","347843","346866","346866","NA","971","study_X","0","11300","1","yes","1680"
"undefined","undefined","11300","11300","black","no","legacy","legacy","legacy","0","red","(179, 0, 0)","shape","absent","highProb","rectangular","swap","swap","same","swap","red","(179, 0, 0)","lowProb","lowProb5","rectangular","uniform","1","undefined","0.046875","1","1","70.5989583333","1","9","13555","0","0","0","0","0","0","0","0","33","0","1","0.046875","70.5989583333","9","13555","33","33","33","08/24/17 14:06:50","Default description","yes","<openexp._canvas.legacy.legacy object at 0x047927F0>","<openexp._canvas.legacy.legacy object at 0x0479E7B0>","<openexp._canvas.legacy.legacy object at 0x0478A370>","<openexp._canvas.legacy.legacy object at 0x048809D0>","<openexp._canvas.legacy.legacy object at 0x048514B0>","<openexp._canvas.legacy.legacy object at 0x0478F3B0>","<openexp._canvas.legacy.legacy object at 0x04852A50>","75","IndividualPriorityWithDis_v1.osexp","C:/Userdata/Michel/SpatialProb/IndividualPriorityMaps/Experiment2","no","mono","no","18","no","white","no","yes","0.09","98","1050","legacy","315","8","8","1","C:/Userdata/Michel/SpatialProb/IndividualPriorityMaps/Experiment2/data/subject-22.csv","legacy","9","192","25","Jazzy James","3.1.3","yes","598477b2b83f69022949e7e9","47","red","rectangular","red","rectangular","0","/","900","space","11300","11300","(80, 80, 80)","(0, 122, 0)","(179, 0, 0)","(155, 155, 155)","2","legacy","experiment","[5, 6, 7, 0, 1, 2, 3, 4]","/","2500","3000","0","8","252.758751519","1024","2","48000","-16","main","[(0, -252), (178, -178), (252, 0), (178, 178), (0, 252), (-178, 178), (-252, 0), (-178, -178)]","[]","22","even","3","285542","320182","320182","183054","182047","1774","206314","206314","1774","1774","194355","351370","1773","320182","350466","349489","349490","NA","971","study_X","0","11300","1","yes","1680"
"undefined","undefined","11300","11300","black","no","legacy","legacy","legacy","0","green","(0, 122, 0)","shape","present","lowProb5","circular","swap","swap","swap","same","green","(0, 122, 0)","lowProb","lowProb6","rectangular","uniform","1","undefined","0.0520833333333","1","1","76.5416666667","1","10","14696","0","0","0","0","0","0","0","0","34","0","1","0.0520833333333","76.5416666667","10","14696","34","34","34","08/24/17 14:06:50","Default description","yes","<openexp._canvas.legacy.legacy object at 0x047927F0>","<openexp._canvas.legacy.legacy object at 0x0479E7B0>","<openexp._canvas.legacy.legacy object at 0x0478A370>","<openexp._canvas.legacy.legacy object at 0x048809D0>","<openexp._canvas.legacy.legacy object at 0x048514B0>","<openexp._canvas.legacy.legacy object at 0x048800F0>","<openexp._canvas.legacy.legacy object at 0x04852A50>","75","IndividualPriorityWithDis_v1.osexp","C:/Userdata/Michel/SpatialProb/IndividualPriorityMaps/Experiment2","no","mono","no","18","no","white","no","yes","0.09","98","1050","legacy","315","9","9","1","C:/Userdata/Michel/SpatialProb/IndividualPriorityMaps/Experiment2/data/subject-22.csv","legacy","9","192","25","Jazzy James","3.1.3","yes","598477b2b83f69022949e7e9","47","green","circular","green","rectangular","0","/","1141","space","11300","11300","(80, 80, 80)","(0, 122, 0)","(179, 0, 0)","(155, 155, 155)","2","legacy","experiment","[5, 6, 7, 0, 1, 2, 3, 4]","/","2500","3000","0","8","252.758751519","1024","2","48000","-16","main","[(0, -252), (178, -178), (252, 0), (178, 178), (0, 252), (-178, 178), (-252, 0), (-178, -178)]","[]","22","even","4","285542","320182","320182","183054","182047","1774","206314","206314","1774","1774","194355","353899","1773","320182","352754","351777","351777","NA","971","study_X","0","11300","1","yes","1680"
"undefined","undefined","11300","11300","black","no","legacy","legacy","legacy","0","red","(179, 0, 0)","shape","present","highProb","circular","swap","same","swap","same","red","(179, 0, 0)","lowProb","lowProb3","rectangular","uniform","1","undefined","0.0572916666667","1","1","83.1614583333","1","11","15967","0","0","0","0","0","0","0","0","35","0","1","0.0572916666667","83.1614583333","11","15967","35","35","35","08/24/17 14:06:50","Default description","yes","<openexp._canvas.legacy.legacy object at 0x047927F0>","<openexp._canvas.legacy.legacy object at 0x0479E7B0>","<openexp._canvas.legacy.legacy object at 0x0478A370>","<openexp._canvas.legacy.legacy object at 0x048809D0>","<openexp._canvas.legacy.legacy object at 0x048514B0>","<openexp._canvas.legacy.legacy object at 0x04799110>","<openexp._canvas.legacy.legacy object at 0x04852A50>","75","IndividualPriorityWithDis_v1.osexp","C:/Userdata/Michel/SpatialProb/IndividualPriorityMaps/Experiment2","no","mono","no","18","no","white","no","yes","0.09","98","1050","legacy","45","10","10","1","C:/Userdata/Michel/SpatialProb/IndividualPriorityMaps/Experiment2/data/subject-22.csv","legacy","9","192","25","Jazzy James","3.1.3","yes","598477b2b83f69022949e7e9","47","red","circular","red","rectangular","0","\","1271","space","11300","11300","(80, 80, 80)","(0, 122, 0)","(179, 0, 0)","(155, 155, 155)","2","legacy","experiment","[5, 6, 7, 0, 1, 2, 3, 4]","\","2500","3000","0","8","252.758751519","1024","2","48000","-16","main","[(0, -252), (178, -178), (252, 0), (178, 178), (0, 252), (-178, 178), (-252, 0), (-178, -178)]","[]","22","even","0","285542","320182","320182","183054","182047","1774","206314","206314","1774","1774","194355","356554","1773","320182","355281","354304","354304","NA","971","study_X","0","11300","1","yes","1680"
"undefined","undefined","11300","11300","black","no","legacy","legacy","legacy","0","red","(179, 0, 0)","shape","present","highProbOther","circular","same","same","same","same","red","(179, 0, 0)","lowProb","lowProb1","rectangular","uniform","1","undefined","0.0625","1","1","88.96875","1","12","17082","0","0","0","0","0","0","0","0","36","0","1","0.0625","88.96875","12","17082","36","36","36","08/24/17 14:06:50","Default description","yes","<openexp._canvas.legacy.legacy object at 0x047927F0>","<openexp._canvas.legacy.legacy object at 0x0479E7B0>","<openexp._canvas.legacy.legacy object at 0x0478A370>","<openexp._canvas.legacy.legacy object at 0x048809D0>","<openexp._canvas.legacy.legacy object at 0x048514B0>","<openexp._canvas.legacy.legacy object at 0x0478FEB0>","<openexp._canvas.legacy.legacy object at 0x04852A50>","75","IndividualPriorityWithDis_v1.osexp","C:/Userdata/Michel/SpatialProb/IndividualPriorityMaps/Experiment2","no","mono","no","18","no","white","no","yes","0.09","98","1050","legacy","45","11","11","1","C:/Userdata/Michel/SpatialProb/IndividualPriorityMaps/Experiment2/data/subject-22.csv","legacy","9","192","25","Jazzy James","3.1.3","yes","598477b2b83f69022949e7e9","47","red","circular","red","rectangular","0","\","1115","space","11300","11300","(80, 80, 80)","(0, 122, 0)","(179, 0, 0)","(155, 155, 155)","2","legacy","experiment","[5, 6, 7, 0, 1, 2, 3, 4]","\","2500","3000","0","8","252.758751519","1024","2","48000","-16","main","[(0, -252), (178, -178), (252, 0), (178, 178), (0, 252), (-178, 178), (-252, 0), (-178, -178)]","[]","22","even","6","285542","320182","320182","183054","182047","1774","206314","206314","1774","1774","194355","359058","1773","320182","357940","356963","356963","NA","971","study_X","0","11300","1","yes","1680"
"undefined","undefined","11300","11300","black","no","legacy","legacy","legacy","0","red","(179, 0, 0)","shape","present","lowProb2","circular","same","same","same","same","red","(179, 0, 0)","lowProb","lowProb5","rectangular","uniform","1","undefined","0.0677083333333","1","1","94.5520833333","1","13","18154","0","0","0","0","0","0","0","0","37","0","1","0.0677083333333","94.5520833333","13","18154","37","37","37","08/24/17 14:06:50","Default description","yes","<openexp._canvas.legacy.legacy object at 0x047927F0>","<openexp._canvas.legacy.legacy object at 0x0479E7B0>","<openexp._canvas.legacy.legacy object at 0x0478A370>","<openexp._canvas.legacy.legacy object at 0x048809D0>","<openexp._canvas.legacy.legacy object at 0x048514B0>","<openexp._canvas.legacy.legacy object at 0x047A2710>","<openexp._canvas.legacy.legacy object at 0x04852A50>","75","IndividualPriorityWithDis_v1.osexp","C:/Userdata/Michel/SpatialProb/IndividualPriorityMaps/Experiment2","no","mono","no","18","no","white","no","yes","0.09","98","1050","legacy","315","12","12","1","C:/Userdata/Michel/SpatialProb/IndividualPriorityMaps/Experiment2/data/subject-22.csv","legacy","9","192","25","Jazzy James","3.1.3","yes","598477b2b83f69022949e7e9","47","red","circular","red","rectangular","0","/","1072","space","11300","11300","(80, 80, 80)","(0, 122, 0)","(179, 0, 0)","(155, 155, 155)","2","legacy","experiment","[5, 6, 7, 0, 1, 2, 3, 4]","/","2500","3000","0","8","252.758751519","1024","2","48000","-16","main","[(0, -252), (178, -178), (252, 0), (178, 178), (0, 252), (-178, 178), (-252, 0), (-178, -178)]","[]","22","even","3","285542","320182","320182","183054","182047","1774","206314","206314","1774","1774","194355","361538","1773","320182","360463","359486","359487","NA","971","study_X","0","11300","1","yes","1680"
"undefined","undefined","11300","11300","black","no","legacy","legacy","legacy","0","green","(0, 122, 0)","shape","present","lowProb1","circular","swap","same","swap","same","green","(0, 122, 0)","highProbShape","highProbShape","rectangular","uniform","1","undefined","0.0729166666667","1","1","100.505208333","1","14","19297","0","0","0","0","0","0","0","0","38","0","1","0.0729166666667","100.505208333","14","19297","38","38","38","08/24/17 14:06:50","Default description","yes","<openexp._canvas.legacy.legacy object at 0x047927F0>","<openexp._canvas.legacy.legacy object at 0x0479E7B0>","<openexp._canvas.legacy.legacy object at 0x0478A370>","<openexp._canvas.legacy.legacy object at 0x048809D0>","<openexp._canvas.legacy.legacy object at 0x048514B0>","<openexp._canvas.legacy.legacy object at 0x0478F8D0>","<openexp._canvas.legacy.legacy object at 0x04852A50>","75","IndividualPriorityWithDis_v1.osexp","C:/Userdata/Michel/SpatialProb/IndividualPriorityMaps/Experiment2","no","mono","no","18","no","white","no","yes","0.09","98","1050","legacy","315","13","13","1","C:/Userdata/Michel/SpatialProb/IndividualPriorityMaps/Experiment2/data/subject-22.csv","legacy","9","192","25","Jazzy James","3.1.3","yes","598477b2b83f69022949e7e9","47","green","circular","green","rectangular","0","/","1143","space","11300","11300","(80, 80, 80)","(0, 122, 0)","(179, 0, 0)","(155, 155, 155)","2","legacy","experiment","[5, 6, 7, 0, 1, 2, 3, 4]","/","2500","3000","0","8","252.758751519","1024","2","48000","-16","main","[(0, -252), (178, -178), (252, 0), (178, 178), (0, 252), (-178, 178), (-252, 0), (-178, -178)]","[]","22","even","1","285542","320182","320182","183054","182047","1774","206314","206314","1774","1774","194355","364074","1773","320182","362927","361950","361950","NA","971","study_X","0","11300","1","yes","1680"
"undefined","undefined","11300","11300","black","no","legacy","legacy","legacy","0","red","(179, 0, 0)","color","present","highProb","rectangular","swap","swap","same","same","green","(0, 122, 0)","lowProb","lowProb6","rectangular","uniform","0","undefined","0.0729166666667","1","1","111.296875","1","14","21369","0","0","0","0","0","0","0","0","39","0","1","0.0729166666667","111.296875","14","21369","39","39","39","08/24/17 14:06:50","Default description","yes","<openexp._canvas.legacy.legacy object at 0x047927F0>","<openexp._canvas.legacy.legacy object at 0x0479E7B0>","<openexp._canvas.legacy.legacy object at 0x0478A370>","<openexp._canvas.legacy.legacy object at 0x048809D0>","<openexp._canvas.legacy.legacy object at 0x048514B0>","<openexp._canvas.legacy.legacy object at 0x0478F910>","<openexp._canvas.legacy.legacy object at 0x04852A50>","75","IndividualPriorityWithDis_v1.osexp","C:/Userdata/Michel/SpatialProb/IndividualPriorityMaps/Experiment2","no","mono","no","18","no","white","no","yes","0.09","98","1050","legacy","315","14","14","1","C:/Userdata/Michel/SpatialProb/IndividualPriorityMaps/Experiment2/data/subject-22.csv","legacy","9","192","25","Jazzy James","3.1.3","yes","598477b2b83f69022949e7e9","47","red","rectangular","green","rectangular","0","\","2072","space","11300","11300","(80, 80, 80)","(0, 122, 0)","(179, 0, 0)","(155, 155, 155)","2","legacy","experiment","[5, 6, 7, 0, 1, 2, 3, 4]","/","2500","3000","0","8","252.758751519","1024","2","48000","-16","main","[(0, -252), (178, -178), (252, 0), (178, 178), (0, 252), (-178, 178), (-252, 0), (-178, -178)]","[]","22","even","4","285542","320182","320182","183054","182047","1774","206314","206314","1774","1774","194355","367538","1773","320182","365462","364486","364486","NA","971","study_X","0","11300","1","yes","1680"
"undefined","undefined","11300","11300","black","no","legacy","legacy","legacy","0","green","(0, 122, 0)","shape","absent","lowProb1","circular","swap","swap","same","swap","green","(0, 122, 0)","highProbColor","highProbColor","circular","uniform","0","undefined","0.0729166666667","1","1","123.291666667","1","14","23672","0","0","0","0","0","0","0","0","40","0","1","0.0729166666667","123.291666667","14","23672","40","40","40","08/24/17 14:06:50","Default description","yes","<openexp._canvas.legacy.legacy object at 0x047927F0>","<openexp._canvas.legacy.legacy object at 0x0479E7B0>","<openexp._canvas.legacy.legacy object at 0x0478A370>","<openexp._canvas.legacy.legacy object at 0x048809D0>","<openexp._canvas.legacy.legacy object at 0x048514B0>","<openexp._canvas.legacy.legacy object at 0x0478E850>","<openexp._canvas.legacy.legacy object at 0x04852A50>","75","IndividualPriorityWithDis_v1.osexp","C:/Userdata/Michel/SpatialProb/IndividualPriorityMaps/Experiment2","no","mono","no","18","no","white","no","yes","0.09","98","1050","legacy","315","15","15","1","C:/Userdata/Michel/SpatialProb/IndividualPriorityMaps/Experiment2/data/subject-22.csv","legacy","9","192","25","Jazzy James","3.1.3","yes","598477b2b83f69022949e7e9","47","green","circular","green","circular","0","\","2303","space","11300","11300","(80, 80, 80)","(0, 122, 0)","(179, 0, 0)","(155, 155, 155)","2","legacy","experiment","[5, 6, 7, 0, 1, 2, 3, 4]","/","2500","3000","0","8","252.758751519","1024","2","48000","-16","main","[(0, -252), (178, -178), (252, 0), (178, 178), (0, 252), (-178, 178), (-252, 0), (-178, -178)]","[]","22","even","5","285542","320182","320182","183054","182047","1774","206314","206314","1774","1774","194355","371242","1773","320182","368937","367960","367960","NA","971","study_X","0","11300","1","yes","1680"
"undefined","undefined","11300","11300","black","no","legacy","legacy","legacy","0","green","(0, 122, 0)","color","absent","lowProb5","circular","same","same","same","same","green","(0, 122, 0)","lowProb","lowProb3","circular","uniform","1","undefined","0.078125","1","1","136.255208333","1","15","26161","0","0","0","0","0","0","0","0","41","0","1","0.078125","136.255208333","15","26161","41","41","41","08/24/17 14:06:50","Default description","yes","<openexp._canvas.legacy.legacy object at 0x047927F0>","<openexp._canvas.legacy.legacy object at 0x0479E7B0>","<openexp._canvas.legacy.legacy object at 0x0478A370>","<openexp._canvas.legacy.legacy object at 0x048809D0>","<openexp._canvas.legacy.legacy object at 0x048514B0>","<openexp._canvas.legacy.legacy object at 0x0479E950>","<openexp._canvas.legacy.legacy object at 0x04852A50>","75","IndividualPriorityWithDis_v1.osexp","C:/Userdata/Michel/SpatialProb/IndividualPriorityMaps/Experiment2","no","mono","no","18","no","white","no","yes","0.09","98","1050","legacy","315","16","16","1","C:/Userdata/Michel/SpatialProb/IndividualPriorityMaps/Experiment2/data/subject-22.csv","legacy","9","192","25","Jazzy James","3.1.3","yes","598477b2b83f69022949e7e9","47","green","circular","green","circular","0","/","2489","space","11300","11300","(80, 80, 80)","(0, 122, 0)","(179, 0, 0)","(155, 155, 155)","2","legacy","experiment","[5, 6, 7, 0, 1, 2, 3, 4]","/","2500","3000","0","8","252.758751519","1024","2","48000","-16","main","[(0, -252), (178, -178), (252, 0), (178, 178), (0, 252), (-178, 178), (-252, 0), (-178, -178)]","[]","22","even","0","285542","320182","320182","183054","182047","1774","206314","206314","1774","1774","194355","375130","1773","320182","372638","371661","371661","NA","971","study_X","0","11300","1","yes","1680"
"undefined","undefined","11300","11300","black","no","legacy","legacy","legacy","0","green","(0, 122, 0)","color","present","lowProb4","rectangular","same","swap","swap","swap","red","(179, 0, 0)","lowProb","lowProb5","rectangular","uniform","1","undefined","0.0833333333333","1","1","143.395833333","1","16","27532","0","0","0","0","0","0","0","0","42","0","1","0.0833333333333","143.395833333","16","27532","42","42","42","08/24/17 14:06:50","Default description","yes","<openexp._canvas.legacy.legacy object at 0x047927F0>","<openexp._canvas.legacy.legacy object at 0x0479E7B0>","<openexp._canvas.legacy.legacy object at 0x0478A370>","<openexp._canvas.legacy.legacy object at 0x048809D0>","<openexp._canvas.legacy.legacy object at 0x048514B0>","<openexp._canvas.legacy.legacy object at 0x0478FBB0>","<openexp._canvas.legacy.legacy object at 0x04852A50>","75","IndividualPriorityWithDis_v1.osexp","C:/Userdata/Michel/SpatialProb/IndividualPriorityMaps/Experiment2","no","mono","no","18","no","white","no","yes","0.09","98","1050","legacy","45","17","17","1","C:/Userdata/Michel/SpatialProb/IndividualPriorityMaps/Experiment2/data/subject-22.csv","legacy","9","192","25","Jazzy James","3.1.3","yes","598477b2b83f69022949e7e9","47","green","rectangular","red","rectangular","0","\","1371","space","11300","11300","(80, 80, 80)","(0, 122, 0)","(179, 0, 0)","(155, 155, 155)","2","legacy","experiment","[5, 6, 7, 0, 1, 2, 3, 4]","\","2500","3000","0","8","252.758751519","1024","2","48000","-16","main","[(0, -252), (178, -178), (252, 0), (178, 178), (0, 252), (-178, 178), (-252, 0), (-178, -178)]","[]","22","even","3","285542","320182","320182","183054","182047","1774","206314","206314","1774","1774","194355","377890","1773","320182","376517","375540","375540","NA","971","study_X","0","11300","1","yes","1680"
"undefined","undefined","11300","11300","black","no","legacy","legacy","legacy","0","green","(0, 122, 0)","shape","present","highProb","circular","same","swap","swap","same","green","(0, 122, 0)","lowProb","lowProb3","rectangular","uniform","1","undefined","0.0885416666667","1","1","151.09375","1","17","29010","0","0","0","0","0","0","0","0","43","0","1","0.0885416666667","151.09375","17","29010","43","43","43","08/24/17 14:06:50","Default description","yes","<openexp._canvas.legacy.legacy object at 0x047927F0>","<openexp._canvas.legacy.legacy object at 0x0479E7B0>","<openexp._canvas.legacy.legacy object at 0x0478A370>","<openexp._canvas.legacy.legacy object at 0x048809D0>","<openexp._canvas.legacy.legacy object at 0x048514B0>","<openexp._canvas.legacy.legacy object at 0x04880430>","<openexp._canvas.legacy.legacy object at 0x04852A50>","75","IndividualPriorityWithDis_v1.osexp","C:/Userdata/Michel/SpatialProb/IndividualPriorityMaps/Experiment2","no","mono","no","18","no","white","no","yes","0.09","98","1050","legacy","45","18","18","1","C:/Userdata/Michel/SpatialProb/IndividualPriorityMaps/Experiment2/data/subject-22.csv","legacy","9","192","25","Jazzy James","3.1.3","yes","598477b2b83f69022949e7e9","47","green","circular","green","rectangular","0","\","1478","space","11300","11300","(80, 80, 80)","(0, 122, 0)","(179, 0, 0)","(155, 155, 155)","2","legacy","experiment","[5, 6, 7, 0, 1, 2, 3, 4]","\","2500","3000","0","8","252.758751519","1024","2","48000","-16","main","[(0, -252), (178, -178), (252, 0), (178, 178), (0, 252), (-178, 178), (-252, 0), (-178, -178)]","[]","22","even","0","285542","320182","320182","183054","182047","1774","206314","206314","1774","1774","194355","380762","1773","320182","379281","378304","378304","NA","971","study_X","0","11300","1","yes","1680"
"undefined","undefined","11300","11300","black","no","legacy","legacy","legacy","0","red","(179, 0, 0)","shape","present","highProb","circular","swap","same","swap","same","red","(179, 0, 0)","lowProb","lowProb1","rectangular","uniform","1","undefined","0.09375","1","1","159.90625","1","18","30702","0","0","0","0","0","0","0","0","44","0","1","0.09375","159.90625","18","30702","44","44","44","08/24/17 14:06:50","Default description","yes","<openexp._canvas.legacy.legacy object at 0x047927F0>","<openexp._canvas.legacy.legacy object at 0x0479E7B0>","<openexp._canvas.legacy.legacy object at 0x0478A370>","<openexp._canvas.legacy.legacy object at 0x048809D0>","<openexp._canvas.legacy.legacy object at 0x048514B0>","<openexp._canvas.legacy.legacy object at 0x0478E310>","<openexp._canvas.legacy.legacy object at 0x04852A50>","75","IndividualPriorityWithDis_v1.osexp","C:/Userdata/Michel/SpatialProb/IndividualPriorityMaps/Experiment2","no","mono","no","18","no","white","no","yes","0.09","98","1050","legacy","45","19","19","1","C:/Userdata/Michel/SpatialProb/IndividualPriorityMaps/Experiment2/data/subject-22.csv","legacy","9","192","25","Jazzy James","3.1.3","yes","598477b2b83f69022949e7e9","47","red","circular","red","rectangular","0","\","1692","space","11300","11300","(80, 80, 80)","(0, 122, 0)","(179, 0, 0)","(155, 155, 155)","2","legacy","experiment","[5, 6, 7, 0, 1, 2, 3, 4]","\","2500","3000","0","8","252.758751519","1024","2","48000","-16","main","[(0, -252), (178, -178), (252, 0), (178, 178), (0, 252), (-178, 178), (-252, 0), (-178, -178)]","[]","22","even","6","285542","320182","320182","183054","182047","1774","206314","206314","1774","1774","194355","383842","1773","320182","382146","381169","381169","NA","971","study_X","0","11300","1","yes","1680"
"undefined","undefined","11300","11300","black","no","legacy","legacy","legacy","0","red","(179, 0, 0)","color","present","highProb","rectangular","same","swap","swap","same","green","(0, 122, 0)","lowProb","lowProb5","rectangular","uniform","1","undefined","0.0989583333333","1","1","166.5625","1","19","31980","0","0","0","0","0","0","0","0","45","0","1","0.0989583333333","166.5625","19","31980","45","45","45","08/24/17 14:06:50","Default description","yes","<openexp._canvas.legacy.legacy object at 0x047927F0>","<openexp._canvas.legacy.legacy object at 0x0479E7B0>","<openexp._canvas.legacy.legacy object at 0x0478A370>","<openexp._canvas.legacy.legacy object at 0x048809D0>","<openexp._canvas.legacy.legacy object at 0x048514B0>","<openexp._canvas.legacy.legacy object at 0x04799590>","<openexp._canvas.legacy.legacy object at 0x04852A50>","75","IndividualPriorityWithDis_v1.osexp","C:/Userdata/Michel/SpatialProb/IndividualPriorityMaps/Experiment2","no","mono","no","18","no","white","no","yes","0.09","98","1050","legacy","315","20","20","1","C:/Userdata/Michel/SpatialProb/IndividualPriorityMaps/Experiment2/data/subject-22.csv","legacy","9","192","25","Jazzy James","3.1.3","yes","598477b2b83f69022949e7e9","47","red","rectangular","green","rectangular","0","/","1278","space","11300","11300","(80, 80, 80)","(0, 122, 0)","(179, 0, 0)","(155, 155, 155)","2","legacy","experiment","[5, 6, 7, 0, 1, 2, 3, 4]","/","2500","3000","0","8","252.758751519","1024","2","48000","-16","main","[(0, -252), (178, -178), (252, 0), (178, 178), (0, 252), (-178, 178), (-252, 0), (-178, -178)]","[]","22","even","3","285542","320182","320182","183054","182047","1774","206314","206314","1774","1774","194355","386497","1773","320182","385216","384239","384239","NA","971","study_X","0","11300","1","yes","1680"
"undefined","undefined","11300","11300","black","no","legacy","legacy","legacy","0","green","(0, 122, 0)","color","present","highProb","rectangular","swap","same","swap","same","red","(179, 0, 0)","lowProb","lowProb3","rectangular","uniform","1","undefined","0.104166666667","1","1","176.802083333","1","20","33946","0","0","0","0","0","0","0","0","46","0","1","0.104166666667","176.802083333","20","33946","46","46","46","08/24/17 14:06:50","Default description","yes","<openexp._canvas.legacy.legacy object at 0x047927F0>","<openexp._canvas.legacy.legacy object at 0x0479E7B0>","<openexp._canvas.legacy.legacy object at 0x0478A370>","<openexp._canvas.legacy.legacy object at 0x048809D0>","<openexp._canvas.legacy.legacy object at 0x048514B0>","<openexp._canvas.legacy.legacy object at 0x0478E070>","<openexp._canvas.legacy.legacy object at 0x04852A50>","75","IndividualPriorityWithDis_v1.osexp","C:/Userdata/Michel/SpatialProb/IndividualPriorityMaps/Experiment2","no","mono","no","18","no","white","no","yes","0.09","98","1050","legacy","315","21","21","1","C:/Userdata/Michel/SpatialProb/IndividualPriorityMaps/Experiment2/data/subject-22.csv","legacy","9","192","25","Jazzy James","3.1.3","yes","598477b2b83f69022949e7e9","47","green","rectangular","red","rectangular","0","/","1966","space","11300","11300","(80, 80, 80)","(0, 122, 0)","(179, 0, 0)","(155, 155, 155)","2","legacy","experiment","[5, 6, 7, 0, 1, 2, 3, 4]","/","2500","3000","0","8","252.758751519","1024","2","48000","-16","main","[(0, -252), (178, -178), (252, 0), (178, 178), (0, 252), (-178, 178), (-252, 0), (-178, -178)]","[]","22","even","0","285542","320182","320182","183054","182047","1774","206314","206314","1774","1774","194355","389858","1773","320182","387889","386912","386912","NA","971","study_X","0","11300","1","yes","1680"
"undefined","undefined","11300","11300","black","no","legacy","legacy","legacy","0","green","(0, 122, 0)","color","present","highProb","circular","same","swap","same","swap","red","(179, 0, 0)","lowProb","lowProb4","circular","uniform","1","undefined","0.109375","1","1","184.328125","1","21","35391","0","0","0","0","0","0","0","0","47","0","1","0.109375","184.328125","21","35391","47","47","47","08/24/17 14:06:50","Default description","yes","<openexp._canvas.legacy.legacy object at 0x047927F0>","<openexp._canvas.legacy.legacy object at 0x0479E7B0>","<openexp._canvas.legacy.legacy object at 0x0478A370>","<openexp._canvas.legacy.legacy object at 0x048809D0>","<openexp._canvas.legacy.legacy object at 0x048514B0>","<openexp._canvas.legacy.legacy object at 0x04799970>","<openexp._canvas.legacy.legacy object at 0x04852A50>","75","IndividualPriorityWithDis_v1.osexp","C:/Userdata/Michel/SpatialProb/IndividualPriorityMaps/Experiment2","no","mono","no","18","no","white","no","yes","0.09","98","1050","legacy","45","22","22","1","C:/Userdata/Michel/SpatialProb/IndividualPriorityMaps/Experiment2/data/subject-22.csv","legacy","9","192","25","Jazzy James","3.1.3","yes","598477b2b83f69022949e7e9","47","green","circular","red","circular","0","\","1445","space","11300","11300","(80, 80, 80)","(0, 122, 0)","(179, 0, 0)","(155, 155, 155)","2","legacy","experiment","[5, 6, 7, 0, 1, 2, 3, 4]","\","2500","3000","0","8","252.758751519","1024","2","48000","-16","main","[(0, -252), (178, -178), (252, 0), (178, 178), (0, 252), (-178, 178), (-252, 0), (-178, -178)]","[]","22","even","2","285542","320182","320182","183054","182047","1774","206314","206314","1774","1774","194355","392698","1773","320182","391250","390273","390273","NA","971","study_X","0","11300","1","yes","1680"
"undefined","undefined","11300","11300","black","no","legacy","legacy","legacy","0","red","(179, 0, 0)","color","present","highProb","rectangular","swap","swap","swap","swap","green","(0, 122, 0)","lowProb","lowProb5","rectangular","uniform","1","undefined","0.114583333333","1","1","194.260416667","1","22","37298","0","0","0","0","0","0","0","0","48","0","1","0.114583333333","194.260416667","22","37298","48","48","48","08/24/17 14:06:50","Default description","yes","<openexp._canvas.legacy.legacy object at 0x047927F0>","<openexp._canvas.legacy.legacy object at 0x0479E7B0>","<openexp._canvas.legacy.legacy object at 0x0478A370>","<openexp._canvas.legacy.legacy object at 0x048809D0>","<openexp._canvas.legacy.legacy object at 0x048514B0>","<openexp._canvas.legacy.legacy object at 0x0478E410>","<openexp._canvas.legacy.legacy object at 0x04852A50>","75","IndividualPriorityWithDis_v1.osexp","C:/Userdata/Michel/SpatialProb/IndividualPriorityMaps/Experiment2","no","mono","no","18","no","white","no","yes","0.09","98","1050","legacy","315","23","23","1","C:/Userdata/Michel/SpatialProb/IndividualPriorityMaps/Experiment2/data/subject-22.csv","legacy","9","192","25","Jazzy James","3.1.3","yes","598477b2b83f69022949e7e9","47","red","rectangular","green","rectangular","0","/","1907","space","11300","11300","(80, 80, 80)","(0, 122, 0)","(179, 0, 0)","(155, 155, 155)","2","legacy","experiment","[5, 6, 7, 0, 1, 2, 3, 4]","/","2500","3000","0","8","252.758751519","1024","2","48000","-16","main","[(0, -252), (178, -178), (252, 0), (178, 178), (0, 252), (-178, 178), (-252, 0), (-178, -178)]","[]","22","even","3","285542","320182","320182","183054","182047","1774","206314","206314","1774","1774","194355","395994","1773","320182","394083","393106","393106","NA","971","study_X","0","11300","1","yes","1680"
"undefined","undefined","11300","11300","black","no","legacy","legacy","legacy","0","green","(0, 122, 0)","shape","absent","lowProb4","rectangular","swap","same","same","same","green","(0, 122, 0)","lowProb","lowProb6","rectangular","uniform","1","undefined","0.119791666667","1","1","201.244791667","1","23","38639","0","0","0","0","0","0","0","0","49","0","1","0.119791666667","201.244791667","23","38639","49","49","49","08/24/17 14:06:50","Default description","yes","<openexp._canvas.legacy.legacy object at 0x047927F0>","<openexp._canvas.legacy.legacy object at 0x0479E7B0>","<openexp._canvas.legacy.legacy object at 0x0478A370>","<openexp._canvas.legacy.legacy object at 0x048809D0>","<openexp._canvas.legacy.legacy object at 0x048514B0>","<openexp._canvas.legacy.legacy object at 0x047A2910>","<openexp._canvas.legacy.legacy object at 0x04852A50>","75","IndividualPriorityWithDis_v1.osexp","C:/Userdata/Michel/SpatialProb/IndividualPriorityMaps/Experiment2","no","mono","no","18","no","white","no","yes","0.09","98","1050","legacy","45","24","24","1","C:/Userdata/Michel/SpatialProb/IndividualPriorityMaps/Experiment2/data/subject-22.csv","legacy","9","192","25","Jazzy James","3.1.3","yes","598477b2b83f69022949e7e9","47","green","rectangular","green","rectangular","0","\","1341","space","11300","11300","(80, 80, 80)","(0, 122, 0)","(179, 0, 0)","(155, 155, 155)","2","legacy","experiment","[5, 6, 7, 0, 1, 2, 3, 4]","\","2500","3000","0","8","252.758751519","1024","2","48000","-16","main","[(0, -252), (178, -178), (252, 0), (178, 178), (0, 252), (-178, 178), (-252, 0), (-178, -178)]","[]","22","even","4","285542","320182","320182","183054","182047","1774","206314","206314","1774","1774","194355","398730","1773","320182","397385","396408","396408","NA","971","study_X","0","11300","1","yes","1680"
"undefined","undefined","11300","11300","black","no","legacy","legacy","legacy","0","green","(0, 122, 0)","shape","present","highProb","circular","same","swap","same","same","green","(0, 122, 0)","lowProb","lowProb6","rectangular","uniform","0","undefined","0.119791666667","1","1","208.067708333","1","23","39949","0","0","0","0","0","0","0","0","50","0","1","0.119791666667","208.067708333","23","39949","50","50","50","08/24/17 14:06:50","Default description","yes","<openexp._canvas.legacy.legacy object at 0x047927F0>","<openexp._canvas.legacy.legacy object at 0x0479E7B0>","<openexp._canvas.legacy.legacy object at 0x0478A370>","<openexp._canvas.legacy.legacy object at 0x048809D0>","<openexp._canvas.legacy.legacy object at 0x048514B0>","<openexp._canvas.legacy.legacy object at 0x0478E050>","<openexp._canvas.legacy.legacy object at 0x04852A50>","75","IndividualPriorityWithDis_v1.osexp","C:/Userdata/Michel/SpatialProb/IndividualPriorityMaps/Experiment2","no","mono","no","18","no","white","no","yes","0.09","98","1050","legacy","315","25","25","1","C:/Userdata/Michel/SpatialProb/IndividualPriorityMaps/Experiment2/data/subject-22.csv","legacy","9","192","25","Jazzy James","3.1.3","yes","598477b2b83f69022949e7e9","47","green","circular","green","rectangular","0","\","1310","space","11300","11300","(80, 80, 80)","(0, 122, 0)","(179, 0, 0)","(155, 155, 155)","2","legacy","experiment","[5, 6, 7, 0, 1, 2, 3, 4]","/","2500","3000","0","8","252.758751519","1024","2","48000","-16","main","[(0, -252), (178, -178), (252, 0), (178, 178), (0, 252), (-178, 178), (-252, 0), (-178, -178)]","[]","22","even","4","285542","320182","320182","183054","182047","1774","206314","206314","1774","1774","194355","401433","1773","320182","400120","399144","399144","NA","971","study_X","0","11300","1","yes","1680"
"undefined","undefined","11300","11300","black","no","legacy","legacy","legacy","0","green","(0, 122, 0)","color","present","highProb","circular","same","same","swap","swap","red","(179, 0, 0)","lowProb","lowProb1","circular","uniform","1","undefined","0.125","1","1","213.828125","1","24","41055","0","0","0","0","0","0","0","0","51","0","1","0.125","213.828125","24","41055","51","51","51","08/24/17 14:06:50","Default description","yes","<openexp._canvas.legacy.legacy object at 0x047927F0>","<openexp._canvas.legacy.legacy object at 0x0479E7B0>","<openexp._canvas.legacy.legacy object at 0x0478A370>","<openexp._canvas.legacy.legacy object at 0x048809D0>","<openexp._canvas.legacy.legacy object at 0x048514B0>","<openexp._canvas.legacy.legacy object at 0x0478A030>","<openexp._canvas.legacy.legacy object at 0x04852A50>","75","IndividualPriorityWithDis_v1.osexp","C:/Userdata/Michel/SpatialProb/IndividualPriorityMaps/Experiment2","no","mono","no","18","no","white","no","yes","0.09","98","1050","legacy","45","26","26","1","C:/Userdata/Michel/SpatialProb/IndividualPriorityMaps/Experiment2/data/subject-22.csv","legacy","9","192","25","Jazzy James","3.1.3","yes","598477b2b83f69022949e7e9","47","green","circular","red","circular","0","\","1106","space","11300","11300","(80, 80, 80)","(0, 122, 0)","(179, 0, 0)","(155, 155, 155)","2","legacy","experiment","[5, 6, 7, 0, 1, 2, 3, 4]","\","2500","3000","0","8","252.758751519","1024","2","48000","-16","main","[(0, -252), (178, -178), (252, 0), (178, 178), (0, 252), (-178, 178), (-252, 0), (-178, -178)]","[]","22","even","6","285542","320182","320182","183054","182047","1774","206314","206314","1774","1774","194355","403937","1773","320182","402829","401852","401852","NA","971","study_X","0","11300","1","yes","1680"
"undefined","undefined","11300","11300","black","no","legacy","legacy","legacy","0","red","(179, 0, 0)","color","present","lowProb4","rectangular","swap","swap","swap","swap","green","(0, 122, 0)","lowProb","lowProb5","rectangular","uniform","1","undefined","0.130208333333","1","1","220.375","1","25","42312","0","0","0","0","0","0","0","0","52","0","1","0.130208333333","220.375","25","42312","52","52","52","08/24/17 14:06:50","Default description","yes","<openexp._canvas.legacy.legacy object at 0x047927F0>","<openexp._canvas.legacy.legacy object at 0x0479E7B0>","<openexp._canvas.legacy.legacy object at 0x0478A370>","<openexp._canvas.legacy.legacy object at 0x048809D0>","<openexp._canvas.legacy.legacy object at 0x048514B0>","<openexp._canvas.legacy.legacy object at 0x0478E0B0>","<openexp._canvas.legacy.legacy object at 0x04852A50>","75","IndividualPriorityWithDis_v1.osexp","C:/Userdata/Michel/SpatialProb/IndividualPriorityMaps/Experiment2","no","mono","no","18","no","white","no","yes","0.09","98","1050","legacy","315","27","27","1","C:/Userdata/Michel/SpatialProb/IndividualPriorityMaps/Experiment2/data/subject-22.csv","legacy","9","192","25","Jazzy James","3.1.3","yes","598477b2b83f69022949e7e9","47","red","rectangular","green","rectangular","0","/","1257","space","11300","11300","(80, 80, 80)","(0, 122, 0)","(179, 0, 0)","(155, 155, 155)","2","legacy","experiment","[5, 6, 7, 0, 1, 2, 3, 4]","/","2500","3000","0","8","252.758751519","1024","2","48000","-16","main","[(0, -252), (178, -178), (252, 0), (178, 178), (0, 252), (-178, 178), (-252, 0), (-178, -178)]","[]","22","even","3","285542","320182","320182","183054","182047","1774","206314","206314","1774","1774","194355","406602","1773","320182","405342","404365","404365","NA","971","study_X","0","11300","1","yes","1680"
"undefined","undefined","11300","11300","black","no","legacy","legacy","legacy","0","green","(0, 122, 0)","color","present","highProb","rectangular","swap","same","swap","same","red","(179, 0, 0)","lowProb","lowProb2","rectangular","uniform","1","undefined","0.135416666667","1","1","225.666666667","1","26","43328","0","0","0","0","0","0","0","0","53","0","1","0.135416666667","225.666666667","26","43328","53","53","53","08/24/17 14:06:50","Default description","yes","<openexp._canvas.legacy.legacy object at 0x047927F0>","<openexp._canvas.legacy.legacy object at 0x0479E7B0>","<openexp._canvas.legacy.legacy object at 0x0478A370>","<openexp._canvas.legacy.legacy object at 0x048809D0>","<openexp._canvas.legacy.legacy object at 0x048514B0>","<openexp._canvas.legacy.legacy object at 0x0478AF10>","<openexp._canvas.legacy.legacy object at 0x04852A50>","75","IndividualPriorityWithDis_v1.osexp","C:/Userdata/Michel/SpatialProb/IndividualPriorityMaps/Experiment2","no","mono","no","18","no","white","no","yes","0.09","98","1050","legacy","315","28","28","1","C:/Userdata/Michel/SpatialProb/IndividualPriorityMaps/Experiment2/data/subject-22.csv","legacy","9","192","25","Jazzy James","3.1.3","yes","598477b2b83f69022949e7e9","47","green","rectangular","red","rectangular","0","/","1016","space","11300","11300","(80, 80, 80)","(0, 122, 0)","(179, 0, 0)","(155, 155, 155)","2","legacy","experiment","[5, 6, 7, 0, 1, 2, 3, 4]","/","2500","3000","0","8","252.758751519","1024","2","48000","-16","main","[(0, -252), (178, -178), (252, 0), (178, 178), (0, 252), (-178, 178), (-252, 0), (-178, -178)]","[]","22","even","7","285542","320182","320182","183054","182047","1774","206314","206314","1774","1774","194355","409010","1773","320182","407991","407014","407014","NA","971","study_X","0","11300","1","yes","1680"
"undefined","undefined","11300","11300","black","no","legacy","legacy","legacy","0","green","(0, 122, 0)","color","absent","lowProb4","circular","same","swap","swap","swap","green","(0, 122, 0)","lowProb","lowProb2","circular","uniform","1","undefined","0.140625","1","1","230.036458333","1","27","44167","0","0","0","0","0","0","0","0","54","0","1","0.140625","230.036458333","27","44167","54","54","54","08/24/17 14:06:50","Default description","yes","<openexp._canvas.legacy.legacy object at 0x047927F0>","<openexp._canvas.legacy.legacy object at 0x0479E7B0>","<openexp._canvas.legacy.legacy object at 0x0478A370>","<openexp._canvas.legacy.legacy object at 0x048809D0>","<openexp._canvas.legacy.legacy object at 0x048514B0>","<openexp._canvas.legacy.legacy object at 0x04881670>","<openexp._canvas.legacy.legacy object at 0x04852A50>","75","IndividualPriorityWithDis_v1.osexp","C:/Userdata/Michel/SpatialProb/IndividualPriorityMaps/Experiment2","no","mono","no","18","no","white","no","yes","0.09","98","1050","legacy","45","29","29","1","C:/Userdata/Michel/SpatialProb/IndividualPriorityMaps/Experiment2/data/subject-22.csv","legacy","9","192","25","Jazzy James","3.1.3","yes","598477b2b83f69022949e7e9","47","green","circular","green","circular","0","\","839","space","11300","11300","(80, 80, 80)","(0, 122, 0)","(179, 0, 0)","(155, 155, 155)","2","legacy","experiment","[5, 6, 7, 0, 1, 2, 3, 4]","\","2500","3000","0","8","252.758751519","1024","2","48000","-16","main","[(0, -252), (178, -178), (252, 0), (178, 178), (0, 252), (-178, 178), (-252, 0), (-178, -178)]","[]","22","even","7","285542","320182","320182","183054","182047","1774","206314","206314","1774","1774","194355","411274","1773","320182","410431","409454","409454","NA","971","study_X","0","11300","1","yes","1680"
"undefined","undefined","11300","11300","black","no","legacy","legacy","legacy","0","red","(179, 0, 0)","color","present","highProb","circular","swap","same","same","same","green","(0, 122, 0)","lowProb","lowProb3","circular","uniform","1","undefined","0.145833333333","1","1","237.947916667","1","28","45686","0","0","0","0","0","0","0","0","55","0","1","0.145833333333","237.947916667","28","45686","55","55","55","08/24/17 14:06:50","Default description","yes","<openexp._canvas.legacy.legacy object at 0x047927F0>","<openexp._canvas.legacy.legacy object at 0x0479E7B0>","<openexp._canvas.legacy.legacy object at 0x0478A370>","<openexp._canvas.legacy.legacy object at 0x048809D0>","<openexp._canvas.legacy.legacy object at 0x048514B0>","<openexp._canvas.legacy.legacy object at 0x0487BE90>","<openexp._canvas.legacy.legacy object at 0x04852A50>","75","IndividualPriorityWithDis_v1.osexp","C:/Userdata/Michel/SpatialProb/IndividualPriorityMaps/Experiment2","no","mono","no","18","no","white","no","yes","0.09","98","1050","legacy","45","30","30","1","C:/Userdata/Michel/SpatialProb/IndividualPriorityMaps/Experiment2/data/subject-22.csv","legacy","9","192","25","Jazzy James","3.1.3","yes","598477b2b83f69022949e7e9","47","red","circular","green","circular","0","\","1519","space","11300","11300","(80, 80, 80)","(0, 122, 0)","(179, 0, 0)","(155, 155, 155)","2","legacy","experiment","[5, 6, 7, 0, 1, 2, 3, 4]","\","2500","3000","0","8","252.758751519","1024","2","48000","-16","main","[(0, -252), (178, -178), (252, 0), (178, 178), (0, 252), (-178, 178), (-252, 0), (-178, -178)]","[]","22","even","0","285542","320182","320182","183054","182047","1774","206314","206314","1774","1774","194355","414282","1773","320182","412759","411782","411782","NA","971","study_X","0","11300","1","yes","1680"
"undefined","undefined","11300","11300","black","no","legacy","legacy","legacy","0","red","(179, 0, 0)","shape","present","highProb","rectangular","same","swap","swap","same","red","(179, 0, 0)","lowProb","lowProb5","circular","uniform","1","undefined","0.151041666667","1","1","246.484375","1","29","47325","0","0","0","0","0","0","0","0","56","0","1","0.151041666667","246.484375","29","47325","56","56","56","08/24/17 14:06:50","Default description","yes","<openexp._canvas.legacy.legacy object at 0x047927F0>","<openexp._canvas.legacy.legacy object at 0x0479E7B0>","<openexp._canvas.legacy.legacy object at 0x0478A370>","<openexp._canvas.legacy.legacy object at 0x048809D0>","<openexp._canvas.legacy.legacy object at 0x048514B0>","<openexp._canvas.legacy.legacy object at 0x04792250>","<openexp._canvas.legacy.legacy object at 0x04852A50>","75","IndividualPriorityWithDis_v1.osexp","C:/Userdata/Michel/SpatialProb/IndividualPriorityMaps/Experiment2","no","mono","no","18","no","white","no","yes","0.09","98","1050","legacy","315","31","31","1","C:/Userdata/Michel/SpatialProb/IndividualPriorityMaps/Experiment2/data/subject-22.csv","legacy","9","192","25","Jazzy James","3.1.3","yes","598477b2b83f69022949e7e9","47","red","rectangular","red","circular","0","/","1639","space","11300","11300","(80, 80, 80)","(0, 122, 0)","(179, 0, 0)","(155, 155, 155)","2","legacy","experiment","[5, 6, 7, 0, 1, 2, 3, 4]","/","2500","3000","0","8","252.758751519","1024","2","48000","-16","main","[(0, -252), (178, -178), (252, 0), (178, 178), (0, 252), (-178, 178), (-252, 0), (-178, -178)]","[]","22","even","3","285542","320182","320182","183054","182047","1774","206314","206314","1774","1774","194355","417337","1773","320182","415695","414719","414719","NA","971","study_X","0","11300","1","yes","1680"
"undefined","undefined","11300","11300","black","no","legacy","legacy","legacy","0","green","(0, 122, 0)","color","present","highProb","rectangular","swap","same","same","swap","red","(179, 0, 0)","lowProb","lowProb5","rectangular","uniform","1","undefined","0.15625","1","1","251.682291667","1","30","48323","0","0","0","0","0","0","0","0","57","0","1","0.15625","251.682291667","30","48323","57","57","57","08/24/17 14:06:50","Default description","yes","<openexp._canvas.legacy.legacy object at 0x047927F0>","<openexp._canvas.legacy.legacy object at 0x0479E7B0>","<openexp._canvas.legacy.legacy object at 0x0478A370>","<openexp._canvas.legacy.legacy object at 0x048809D0>","<openexp._canvas.legacy.legacy object at 0x048514B0>","<openexp._canvas.legacy.legacy object at 0x0478ADD0>","<openexp._canvas.legacy.legacy object at 0x04852A50>","75","IndividualPriorityWithDis_v1.osexp","C:/Userdata/Michel/SpatialProb/IndividualPriorityMaps/Experiment2","no","mono","no","18","no","white","no","yes","0.09","98","1050","legacy","315","32","32","1","C:/Userdata/Michel/SpatialProb/IndividualPriorityMaps/Experiment2/data/subject-22.csv","legacy","9","192","25","Jazzy James","3.1.3","yes","598477b2b83f69022949e7e9","47","green","rectangular","red","rectangular","0","/","998","space","11300","11300","(80, 80, 80)","(0, 122, 0)","(179, 0, 0)","(155, 155, 155)","2","legacy","experiment","[5, 6, 7, 0, 1, 2, 3, 4]","/","2500","3000","0","8","252.758751519","1024","2","48000","-16","main","[(0, -252), (178, -178), (252, 0), (178, 178), (0, 252), (-178, 178), (-252, 0), (-178, -178)]","[]","22","even","3","285542","320182","320182","183054","182047","1774","206314","206314","1774","1774","194355","419721","1773","320182","418720","417743","417743","NA","971","study_X","0","11300","1","yes","1680"
"undefined","undefined","11300","11300","black","no","legacy","legacy","legacy","0","red","(179, 0, 0)","color","present","highProb","rectangular","swap","same","swap","same","green","(0, 122, 0)","lowProb","lowProb4","rectangular","uniform","1","undefined","0.161458333333","1","1","261.46875","1","31","50202","0","0","0","0","0","0","0","0","58","0","1","0.161458333333","261.46875","31","50202","58","58","58","08/24/17 14:06:50","Default description","yes","<openexp._canvas.legacy.legacy object at 0x047927F0>","<openexp._canvas.legacy.legacy object at 0x0479E7B0>","<openexp._canvas.legacy.legacy object at 0x0478A370>","<openexp._canvas.legacy.legacy object at 0x048809D0>","<openexp._canvas.legacy.legacy object at 0x048514B0>","<openexp._canvas.legacy.legacy object at 0x04880830>","<openexp._canvas.legacy.legacy object at 0x04852A50>","75","IndividualPriorityWithDis_v1.osexp","C:/Userdata/Michel/SpatialProb/IndividualPriorityMaps/Experiment2","no","mono","no","18","no","white","no","yes","0.09","98","1050","legacy","45","33","33","1","C:/Userdata/Michel/SpatialProb/IndividualPriorityMaps/Experiment2/data/subject-22.csv","legacy","9","192","25","Jazzy James","3.1.3","yes","598477b2b83f69022949e7e9","47","red","rectangular","green","rectangular","0","\","1879","space","11300","11300","(80, 80, 80)","(0, 122, 0)","(179, 0, 0)","(155, 155, 155)","2","legacy","experiment","[5, 6, 7, 0, 1, 2, 3, 4]","\","2500","3000","0","8","252.758751519","1024","2","48000","-16","main","[(0, -252), (178, -178), (252, 0), (178, 178), (0, 252), (-178, 178), (-252, 0), (-178, -178)]","[]","22","even","2","285542","320182","320182","183054","182047","1774","206314","206314","1774","1774","194355","422977","1773","320182","421095","420118","420118","NA","971","study_X","0","11300","1","yes","1680"
"undefined","undefined","11300","11300","black","no","legacy","legacy","legacy","0","green","(0, 122, 0)","color","present","lowProb4","rectangular","swap","same","swap","same","red","(179, 0, 0)","highProbShape","highProbShape","rectangular","uniform","1","undefined","0.166666666667","1","1","267.1875","1","32","51300","0","0","0","0","0","0","0","0","59","0","1","0.166666666667","267.1875","32","51300","59","59","59","08/24/17 14:06:50","Default description","yes","<openexp._canvas.legacy.legacy object at 0x047927F0>","<openexp._canvas.legacy.legacy object at 0x0479E7B0>","<openexp._canvas.legacy.legacy object at 0x0478A370>","<openexp._canvas.legacy.legacy object at 0x048809D0>","<openexp._canvas.legacy.legacy object at 0x048514B0>","<openexp._canvas.legacy.legacy object at 0x0478E9B0>","<openexp._canvas.legacy.legacy object at 0x04852A50>","75","IndividualPriorityWithDis_v1.osexp","C:/Userdata/Michel/SpatialProb/IndividualPriorityMaps/Experiment2","no","mono","no","18","no","white","no","yes","0.09","98","1050","legacy","45","34","34","1","C:/Userdata/Michel/SpatialProb/IndividualPriorityMaps/Experiment2/data/subject-22.csv","legacy","9","192","25","Jazzy James","3.1.3","yes","598477b2b83f69022949e7e9","47","green","rectangular","red","rectangular","0","\","1098","space","11300","11300","(80, 80, 80)","(0, 122, 0)","(179, 0, 0)","(155, 155, 155)","2","legacy","experiment","[5, 6, 7, 0, 1, 2, 3, 4]","\","2500","3000","0","8","252.758751519","1024","2","48000","-16","main","[(0, -252), (178, -178), (252, 0), (178, 178), (0, 252), (-178, 178), (-252, 0), (-178, -178)]","[]","22","even","1","285542","320182","320182","183054","182047","1774","206314","206314","1774","1774","194355","425466","1773","320182","424365","423388","423388","NA","971","study_X","0","11300","1","yes","1680"
"undefined","undefined","11300","11300","black","no","legacy","legacy","legacy","0","red","(179, 0, 0)","shape","present","lowProb3","circular","swap","swap","same","same","red","(179, 0, 0)","lowProb","lowProb4","rectangular","uniform","1","undefined","0.171875","1","1","277.552083333","1","33","53290","0","0","0","0","0","0","0","0","60","0","1","0.171875","277.552083333","33","53290","60","60","60","08/24/17 14:06:50","Default description","yes","<openexp._canvas.legacy.legacy object at 0x047927F0>","<openexp._canvas.legacy.legacy object at 0x0479E7B0>","<openexp._canvas.legacy.legacy object at 0x0478A370>","<openexp._canvas.legacy.legacy object at 0x048809D0>","<openexp._canvas.legacy.legacy object at 0x048514B0>","<openexp._canvas.legacy.legacy object at 0x048819F0>","<openexp._canvas.legacy.legacy object at 0x04852A50>","75","IndividualPriorityWithDis_v1.osexp","C:/Userdata/Michel/SpatialProb/IndividualPriorityMaps/Experiment2","no","mono","no","18","no","white","no","yes","0.09","98","1050","legacy","45","35","35","1","C:/Userdata/Michel/SpatialProb/IndividualPriorityMaps/Experiment2/data/subject-22.csv","legacy","9","192","25","Jazzy James","3.1.3","yes","598477b2b83f69022949e7e9","47","red","circular","red","rectangular","0","\","1990","space","11300","11300","(80, 80, 80)","(0, 122, 0)","(179, 0, 0)","(155, 155, 155)","2","legacy","experiment","[5, 6, 7, 0, 1, 2, 3, 4]","\","2500","3000","0","8","252.758751519","1024","2","48000","-16","main","[(0, -252), (178, -178), (252, 0), (178, 178), (0, 252), (-178, 178), (-252, 0), (-178, -178)]","[]","22","even","2","285542","320182","320182","183054","182047","1774","206314","206314","1774","1774","194355","428842","1773","320182","426848","425871","425871","NA","971","study_X","0","11300","1","yes","1680"
"undefined","undefined","11300","11300","black","no","legacy","legacy","legacy","0","green","(0, 122, 0)","color","absent","highProbOther","rectangular","swap","swap","swap","same","green","(0, 122, 0)","lowProb","lowProb5","rectangular","uniform","1","undefined","0.177083333333","1","1","287","1","34","55104","0","0","0","0","0","0","0","0","61","0","1","0.177083333333","287","34","55104","61","61","61","08/24/17 14:06:50","Default description","yes","<openexp._canvas.legacy.legacy object at 0x047927F0>","<openexp._canvas.legacy.legacy object at 0x0479E7B0>","<openexp._canvas.legacy.legacy object at 0x0478A370>","<openexp._canvas.legacy.legacy object at 0x048809D0>","<openexp._canvas.legacy.legacy object at 0x048514B0>","<openexp._canvas.legacy.legacy object at 0x0478A3D0>","<openexp._canvas.legacy.legacy object at 0x04852A50>","75","IndividualPriorityWithDis_v1.osexp","C:/Userdata/Michel/SpatialProb/IndividualPriorityMaps/Experiment2","no","mono","no","18","no","white","no","yes","0.09","98","1050","legacy","315","36","36","1","C:/Userdata/Michel/SpatialProb/IndividualPriorityMaps/Experiment2/data/subject-22.csv","legacy","9","192","25","Jazzy James","3.1.3","yes","598477b2b83f69022949e7e9","47","green","rectangular","green","rectangular","0","/","1814","space","11300","11300","(80, 80, 80)","(0, 122, 0)","(179, 0, 0)","(155, 155, 155)","2","legacy","experiment","[5, 6, 7, 0, 1, 2, 3, 4]","/","2500","3000","0","8","252.758751519","1024","2","48000","-16","main","[(0, -252), (178, -178), (252, 0), (178, 178), (0, 252), (-178, 178), (-252, 0), (-178, -178)]","[]","22","even","3","285542","320182","320182","183054","182047","1774","206314","206314","1774","1774","194355","432057","1773","320182","430240","429263","429263","NA","971","study_X","0","11300","1","yes","1680"
"undefined","undefined","11300","11300","black","no","legacy","legacy","legacy","0","green","(0, 122, 0)","color","absent","lowProb3","circular","same","swap","same","swap","green","(0, 122, 0)","lowProb","lowProb6","circular","uniform","1","undefined","0.182291666667","1","1","294.364583333","1","35","56518","0","0","0","0","0","0","0","0","62","0","1","0.182291666667","294.364583333","35","56518","62","62","62","08/24/17 14:06:50","Default description","yes","<openexp._canvas.legacy.legacy object at 0x047927F0>","<openexp._canvas.legacy.legacy object at 0x0479E7B0>","<openexp._canvas.legacy.legacy object at 0x0478A370>","<openexp._canvas.legacy.legacy object at 0x048809D0>","<openexp._canvas.legacy.legacy object at 0x048514B0>","<openexp._canvas.legacy.legacy object at 0x04880F70>","<openexp._canvas.legacy.legacy object at 0x04852A50>","75","IndividualPriorityWithDis_v1.osexp","C:/Userdata/Michel/SpatialProb/IndividualPriorityMaps/Experiment2","no","mono","no","18","no","white","no","yes","0.09","98","1050","legacy","315","37","37","1","C:/Userdata/Michel/SpatialProb/IndividualPriorityMaps/Experiment2/data/subject-22.csv","legacy","9","192","25","Jazzy James","3.1.3","yes","598477b2b83f69022949e7e9","47","green","circular","green","circular","0","/","1414","space","11300","11300","(80, 80, 80)","(0, 122, 0)","(179, 0, 0)","(155, 155, 155)","2","legacy","experiment","[5, 6, 7, 0, 1, 2, 3, 4]","/","2500","3000","0","8","252.758751519","1024","2","48000","-16","main","[(0, -252), (178, -178), (252, 0), (178, 178), (0, 252), (-178, 178), (-252, 0), (-178, -178)]","[]","22","even","4","285542","320182","320182","183054","182047","1774","206314","206314","1774","1774","194355","434857","1773","320182","433440","432463","432463","NA","971","study_X","0","11300","1","yes","1680"
"undefined","undefined","11300","11300","black","no","legacy","legacy","legacy","0","green","(0, 122, 0)","color","present","lowProb3","circular","same","same","swap","same","red","(179, 0, 0)","highProbShape","highProbShape","circular","uniform","1","undefined","0.1875","1","1","303.338541667","1","36","58241","0","0","0","0","0","0","0","0","63","0","1","0.1875","303.338541667","36","58241","63","63","63","08/24/17 14:06:50","Default description","yes","<openexp._canvas.legacy.legacy object at 0x047927F0>","<openexp._canvas.legacy.legacy object at 0x0479E7B0>","<openexp._canvas.legacy.legacy object at 0x0478A370>","<openexp._canvas.legacy.legacy object at 0x048809D0>","<openexp._canvas.legacy.legacy object at 0x048514B0>","<openexp._canvas.legacy.legacy object at 0x0478EC70>","<openexp._canvas.legacy.legacy object at 0x04852A50>","75","IndividualPriorityWithDis_v1.osexp","C:/Userdata/Michel/SpatialProb/IndividualPriorityMaps/Experiment2","no","mono","no","18","no","white","no","yes","0.09","98","1050","legacy","45","38","38","1","C:/Userdata/Michel/SpatialProb/IndividualPriorityMaps/Experiment2/data/subject-22.csv","legacy","9","192","25","Jazzy James","3.1.3","yes","598477b2b83f69022949e7e9","47","green","circular","red","circular","0","\","1723","space","11300","11300","(80, 80, 80)","(0, 122, 0)","(179, 0, 0)","(155, 155, 155)","2","legacy","experiment","[5, 6, 7, 0, 1, 2, 3, 4]","\","2500","3000","0","8","252.758751519","1024","2","48000","-16","main","[(0, -252), (178, -178), (252, 0), (178, 178), (0, 252), (-178, 178), (-252, 0), (-178, -178)]","[]","22","even","1","285542","320182","320182","183054","182047","1774","206314","206314","1774","1774","194355","437969","1773","320182","436243","435266","435266","NA","971","study_X","0","11300","1","yes","1680"
"undefined","undefined","11300","11300","black","no","legacy","legacy","legacy","0","red","(179, 0, 0)","color","present","lowProb1","circular","swap","same","swap","same","green","(0, 122, 0)","highProbColor","highProbColor","circular","uniform","1","undefined","0.192708333333","1","1","311.84375","1","37","59874","0","0","0","0","0","0","0","0","64","0","1","0.192708333333","311.84375","37","59874","64","64","64","08/24/17 14:06:50","Default description","yes","<openexp._canvas.legacy.legacy object at 0x047927F0>","<openexp._canvas.legacy.legacy object at 0x0479E7B0>","<openexp._canvas.legacy.legacy object at 0x0478A370>","<openexp._canvas.legacy.legacy object at 0x048809D0>","<openexp._canvas.legacy.legacy object at 0x048514B0>","<openexp._canvas.legacy.legacy object at 0x0478F070>","<openexp._canvas.legacy.legacy object at 0x04852A50>","75","IndividualPriorityWithDis_v1.osexp","C:/Userdata/Michel/SpatialProb/IndividualPriorityMaps/Experiment2","no","mono","no","18","no","white","no","yes","0.09","98","1050","legacy","45","39","39","1","C:/Userdata/Michel/SpatialProb/IndividualPriorityMaps/Experiment2/data/subject-22.csv","legacy","9","192","25","Jazzy James","3.1.3","yes","598477b2b83f69022949e7e9","47","red","circular","green","circular","0","\","1633","space","11300","11300","(80, 80, 80)","(0, 122, 0)","(179, 0, 0)","(155, 155, 155)","2","legacy","experiment","[5, 6, 7, 0, 1, 2, 3, 4]","\","2500","3000","0","8","252.758751519","1024","2","48000","-16","main","[(0, -252), (178, -178), (252, 0), (178, 178), (0, 252), (-178, 178), (-252, 0), (-178, -178)]","[]","22","even","5","285542","320182","320182","183054","182047","1774","206314","206314","1774","1774","194355","440994","1773","320182","439358","438381","438381","NA","971","study_X","0","11300","1","yes","1680"
"undefined","undefined","11300","11300","black","no","legacy","legacy","legacy","0","green","(0, 122, 0)","color","absent","highProb","circular","swap","same","same","same","green","(0, 122, 0)","lowProb","lowProb5","circular","uniform","1","undefined","0.197916666667","1","1","317.276041667","1","38","60917","0","0","0","0","0","0","0","0","65","0","1","0.197916666667","317.276041667","38","60917","65","65","65","08/24/17 14:06:50","Default description","yes","<openexp._canvas.legacy.legacy object at 0x047927F0>","<openexp._canvas.legacy.legacy object at 0x0479E7B0>","<openexp._canvas.legacy.legacy object at 0x0478A370>","<openexp._canvas.legacy.legacy object at 0x048809D0>","<openexp._canvas.legacy.legacy object at 0x048514B0>","<openexp._canvas.legacy.legacy object at 0x04799450>","<openexp._canvas.legacy.legacy object at 0x04852A50>","75","IndividualPriorityWithDis_v1.osexp","C:/Userdata/Michel/SpatialProb/IndividualPriorityMaps/Experiment2","no","mono","no","18","no","white","no","yes","0.09","98","1050","legacy","315","40","40","1","C:/Userdata/Michel/SpatialProb/IndividualPriorityMaps/Experiment2/data/subject-22.csv","legacy","9","192","25","Jazzy James","3.1.3","yes","598477b2b83f69022949e7e9","47","green","circular","green","circular","0","/","1043","space","11300","11300","(80, 80, 80)","(0, 122, 0)","(179, 0, 0)","(155, 155, 155)","2","legacy","experiment","[5, 6, 7, 0, 1, 2, 3, 4]","/","2500","3000","0","8","252.758751519","1024","2","48000","-16","main","[(0, -252), (178, -178), (252, 0), (178, 178), (0, 252), (-178, 178), (-252, 0), (-178, -178)]","[]","22","even","3","285542","320182","320182","183054","182047","1774","206314","206314","1774","1774","194355","443434","1773","320182","442387","441410","441410","NA","971","study_X","0","11300","1","yes","1680"
"undefined","undefined","11300","11300","black","no","legacy","legacy","legacy","0","green","(0, 122, 0)","shape","present","lowProb3","rectangular","same","swap","same","same","green","(0, 122, 0)","highProbColor","highProbColor","circular","uniform","0","undefined","0.197916666667","1","1","330.296875","1","38","63417","0","0","0","0","0","0","0","0","66","0","1","0.197916666667","330.296875","38","63417","66","66","66","08/24/17 14:06:50","Default description","yes","<openexp._canvas.legacy.legacy object at 0x047927F0>","<openexp._canvas.legacy.legacy object at 0x0479E7B0>","<openexp._canvas.legacy.legacy object at 0x0478A370>","<openexp._canvas.legacy.legacy object at 0x048809D0>","<openexp._canvas.legacy.legacy object at 0x048514B0>","<openexp._canvas.legacy.legacy object at 0x04881FF0>","<openexp._canvas.legacy.legacy object at 0x04852A50>","75","IndividualPriorityWithDis_v1.osexp","C:/Userdata/Michel/SpatialProb/IndividualPriorityMaps/Experiment2","no","mono","no","18","no","white","no","yes","0.09","98","1050","legacy","45","41","41","1","C:/Userdata/Michel/SpatialProb/IndividualPriorityMaps/Experiment2/data/subject-22.csv","legacy","9","192","25","Jazzy James","3.1.3","yes","598477b2b83f69022949e7e9","47","green","rectangular","green","circular","0","None","2500","space","11300","11300","(80, 80, 80)","(0, 122, 0)","(179, 0, 0)","(155, 155, 155)","2","legacy","experiment","[5, 6, 7, 0, 1, 2, 3, 4]","\","2500","3000","0","8","252.758751519","1024","2","48000","-16","main","[(0, -252), (178, -178), (252, 0), (178, 178), (0, 252), (-178, 178), (-252, 0), (-178, -178)]","[]","22","even","5","285542","320182","320182","183054","182047","1774","206314","206314","1774","1774","194355","447334","1773","320182","444831","443854","443854","NA","971","study_X","0","11300","1","yes","1680"
"undefined","undefined","11300","11300","black","no","legacy","legacy","legacy","0","red","(179, 0, 0)","shape","absent","lowProb4","circular","swap","swap","swap","same","red","(179, 0, 0)","lowProb","lowProb4","circular","uniform","1","undefined","0.203125","1","1","337.578125","1","39","64815","0","0","0","0","0","0","0","0","67","0","1","0.203125","337.578125","39","64815","67","67","67","08/24/17 14:06:50","Default description","yes","<openexp._canvas.legacy.legacy object at 0x047927F0>","<openexp._canvas.legacy.legacy object at 0x0479E7B0>","<openexp._canvas.legacy.legacy object at 0x0478A370>","<openexp._canvas.legacy.legacy object at 0x048809D0>","<openexp._canvas.legacy.legacy object at 0x048514B0>","<openexp._canvas.legacy.legacy object at 0x047A2A90>","<openexp._canvas.legacy.legacy object at 0x04852A50>","75","IndividualPriorityWithDis_v1.osexp","C:/Userdata/Michel/SpatialProb/IndividualPriorityMaps/Experiment2","no","mono","no","18","no","white","no","yes","0.09","98","1050","legacy","315","42","42","1","C:/Userdata/Michel/SpatialProb/IndividualPriorityMaps/Experiment2/data/subject-22.csv","legacy","9","192","25","Jazzy James","3.1.3","yes","598477b2b83f69022949e7e9","47","red","circular","red","circular","0","/","1398","space","11300","11300","(80, 80, 80)","(0, 122, 0)","(179, 0, 0)","(155, 155, 155)","2","legacy","experiment","[5, 6, 7, 0, 1, 2, 3, 4]","/","2500","3000","0","8","252.758751519","1024","2","48000","-16","main","[(0, -252), (178, -178), (252, 0), (178, 178), (0, 252), (-178, 178), (-252, 0), (-178, -178)]","[]","22","even","2","285542","320182","320182","183054","182047","1774","206314","206314","1774","1774","194355","450121","1773","320182","448720","447743","447743","NA","971","study_X","0","11300","1","yes","1680"
"undefined","undefined","11300","11300","black","no","legacy","legacy","legacy","0","green","(0, 122, 0)","shape","absent","lowProb3","circular","swap","same","swap","same","green","(0, 122, 0)","lowProb","lowProb6","circular","uniform","1","undefined","0.208333333333","1","1","348.598958333","1","40","66931","0","0","0","0","0","0","0","0","68","0","1","0.208333333333","348.598958333","40","66931","68","68","68","08/24/17 14:06:50","Default description","yes","<openexp._canvas.legacy.legacy object at 0x047927F0>","<openexp._canvas.legacy.legacy object at 0x0479E7B0>","<openexp._canvas.legacy.legacy object at 0x0478A370>","<openexp._canvas.legacy.legacy object at 0x048809D0>","<openexp._canvas.legacy.legacy object at 0x048514B0>","<openexp._canvas.legacy.legacy object at 0x047A9550>","<openexp._canvas.legacy.legacy object at 0x04852A50>","75","IndividualPriorityWithDis_v1.osexp","C:/Userdata/Michel/SpatialProb/IndividualPriorityMaps/Experiment2","no","mono","no","18","no","white","no","yes","0.09","98","1050","legacy","315","43","43","1","C:/Userdata/Michel/SpatialProb/IndividualPriorityMaps/Experiment2/data/subject-22.csv","legacy","9","192","25","Jazzy James","3.1.3","yes","598477b2b83f69022949e7e9","47","green","circular","green","circular","0","/","2116","space","11300","11300","(80, 80, 80)","(0, 122, 0)","(179, 0, 0)","(155, 155, 155)","2","legacy","experiment","[5, 6, 7, 0, 1, 2, 3, 4]","/","2500","3000","0","8","252.758751519","1024","2","48000","-16","main","[(0, -252), (178, -178), (252, 0), (178, 178), (0, 252), (-178, 178), (-252, 0), (-178, -178)]","[]","22","even","4","285542","320182","320182","183054","182047","1774","206314","206314","1774","1774","194355","453625","1773","320182","451506","450529","450529","NA","971","study_X","0","11300","1","yes","1680"
"undefined","undefined","11300","11300","black","no","legacy","legacy","legacy","0","red","(179, 0, 0)","color","present","lowProb3","rectangular","swap","swap","same","swap","green","(0, 122, 0)","highProbColor","highProbColor","rectangular","uniform","1","undefined","0.213541666667","1","1","355.151041667","1","41","68189","0","0","0","0","0","0","0","0","69","0","1","0.213541666667","355.151041667","41","68189","69","69","69","08/24/17 14:06:50","Default description","yes","<openexp._canvas.legacy.legacy object at 0x047927F0>","<openexp._canvas.legacy.legacy object at 0x0479E7B0>","<openexp._canvas.legacy.legacy object at 0x0478A370>","<openexp._canvas.legacy.legacy object at 0x048809D0>","<openexp._canvas.legacy.legacy object at 0x048514B0>","<openexp._canvas.legacy.legacy object at 0x047A9AF0>","<openexp._canvas.legacy.legacy object at 0x04852A50>","75","IndividualPriorityWithDis_v1.osexp","C:/Userdata/Michel/SpatialProb/IndividualPriorityMaps/Experiment2","no","mono","no","18","no","white","no","yes","0.09","98","1050","legacy","315","44","44","1","C:/Userdata/Michel/SpatialProb/IndividualPriorityMaps/Experiment2/data/subject-22.csv","legacy","9","192","25","Jazzy James","3.1.3","yes","598477b2b83f69022949e7e9","47","red","rectangular","green","rectangular","0","/","1258","space","11300","11300","(80, 80, 80)","(0, 122, 0)","(179, 0, 0)","(155, 155, 155)","2","legacy","experiment","[5, 6, 7, 0, 1, 2, 3, 4]","/","2500","3000","0","8","252.758751519","1024","2","48000","-16","main","[(0, -252), (178, -178), (252, 0), (178, 178), (0, 252), (-178, 178), (-252, 0), (-178, -178)]","[]","22","even","5","285542","320182","320182","183054","182047","1774","206314","206314","1774","1774","194355","456265","1773","320182","455005","454029","454029","NA","971","study_X","0","11300","1","yes","1680"
"undefined","undefined","11300","11300","black","no","legacy","legacy","legacy","0","red","(179, 0, 0)","shape","absent","highProb","rectangular","same","same","swap","same","red","(179, 0, 0)","lowProb","lowProb6","rectangular","uniform","1","undefined","0.21875","1","1","362.911458333","1","42","69679","0","0","0","0","0","0","0","0","70","0","1","0.21875","362.911458333","42","69679","70","70","70","08/24/17 14:06:50","Default description","yes","<openexp._canvas.legacy.legacy object at 0x047927F0>","<openexp._canvas.legacy.legacy object at 0x0479E7B0>","<openexp._canvas.legacy.legacy object at 0x0478A370>","<openexp._canvas.legacy.legacy object at 0x048809D0>","<openexp._canvas.legacy.legacy object at 0x048514B0>","<openexp._canvas.legacy.legacy object at 0x047A2250>","<openexp._canvas.legacy.legacy object at 0x04852A50>","75","IndividualPriorityWithDis_v1.osexp","C:/Userdata/Michel/SpatialProb/IndividualPriorityMaps/Experiment2","no","mono","no","18","no","white","no","yes","0.09","98","1050","legacy","45","45","45","1","C:/Userdata/Michel/SpatialProb/IndividualPriorityMaps/Experiment2/data/subject-22.csv","legacy","9","192","25","Jazzy James","3.1.3","yes","598477b2b83f69022949e7e9","47","red","rectangular","red","rectangular","0","\","1490","space","11300","11300","(80, 80, 80)","(0, 122, 0)","(179, 0, 0)","(155, 155, 155)","2","legacy","experiment","[5, 6, 7, 0, 1, 2, 3, 4]","\","2500","3000","0","8","252.758751519","1024","2","48000","-16","main","[(0, -252), (178, -178), (252, 0), (178, 178), (0, 252), (-178, 178), (-252, 0), (-178, -178)]","[]","22","even","4","285542","320182","320182","183054","182047","1774","206314","206314","1774","1774","194355","459146","1773","320182","457652","456675","456676","NA","971","study_X","0","11300","1","yes","1680"
"undefined","undefined","11300","11300","black","no","legacy","legacy","legacy","0","red","(179, 0, 0)","color","present","highProb","circular","same","swap","swap","swap","green","(0, 122, 0)","lowProb","lowProb3","circular","uniform","1","undefined","0.223958333333","1","1","374.614583333","1","43","71926","0","0","0","0","0","0","0","0","71","0","1","0.223958333333","374.614583333","43","71926","71","71","71","08/24/17 14:06:50","Default description","yes","<openexp._canvas.legacy.legacy object at 0x047927F0>","<openexp._canvas.legacy.legacy object at 0x0479E7B0>","<openexp._canvas.legacy.legacy object at 0x0478A370>","<openexp._canvas.legacy.legacy object at 0x048809D0>","<openexp._canvas.legacy.legacy object at 0x048514B0>","<openexp._canvas.legacy.legacy object at 0x0478E690>","<openexp._canvas.legacy.legacy object at 0x04852A50>","75","IndividualPriorityWithDis_v1.osexp","C:/Userdata/Michel/SpatialProb/IndividualPriorityMaps/Experiment2","no","mono","no","18","no","white","no","yes","0.09","98","1050","legacy","45","46","46","1","C:/Userdata/Michel/SpatialProb/IndividualPriorityMaps/Experiment2/data/subject-22.csv","legacy","9","192","25","Jazzy James","3.1.3","yes","598477b2b83f69022949e7e9","47","red","circular","green","circular","0","\","2247","space","11300","11300","(80, 80, 80)","(0, 122, 0)","(179, 0, 0)","(155, 155, 155)","2","legacy","experiment","[5, 6, 7, 0, 1, 2, 3, 4]","\","2500","3000","0","8","252.758751519","1024","2","48000","-16","main","[(0, -252), (178, -178), (252, 0), (178, 178), (0, 252), (-178, 178), (-252, 0), (-178, -178)]","[]","22","even","0","285542","320182","320182","183054","182047","1774","206314","206314","1774","1774","194355","462786","1773","320182","460535","459558","459558","NA","971","study_X","0","11300","1","yes","1680"
"undefined","undefined","11300","11300","black","no","legacy","legacy","legacy","0","red","(179, 0, 0)","shape","present","highProb","rectangular","same","swap","swap","same","red","(179, 0, 0)","lowProb","lowProb6","circular","uniform","1","undefined","0.229166666667","1","1","386.5","1","44","74208","0","0","0","0","0","0","0","0","72","0","1","0.229166666667","386.5","44","74208","72","72","72","08/24/17 14:06:50","Default description","yes","<openexp._canvas.legacy.legacy object at 0x047927F0>","<openexp._canvas.legacy.legacy object at 0x0479E7B0>","<openexp._canvas.legacy.legacy object at 0x0478A370>","<openexp._canvas.legacy.legacy object at 0x048809D0>","<openexp._canvas.legacy.legacy object at 0x048514B0>","<openexp._canvas.legacy.legacy object at 0x04880A50>","<openexp._canvas.legacy.legacy object at 0x04852A50>","75","IndividualPriorityWithDis_v1.osexp","C:/Userdata/Michel/SpatialProb/IndividualPriorityMaps/Experiment2","no","mono","no","18","no","white","no","yes","0.09","98","1050","legacy","45","47","47","1","C:/Userdata/Michel/SpatialProb/IndividualPriorityMaps/Experiment2/data/subject-22.csv","legacy","9","192","25","Jazzy James","3.1.3","yes","598477b2b83f69022949e7e9","47","red","rectangular","red","circular","0","\","2282","space","11300","11300","(80, 80, 80)","(0, 122, 0)","(179, 0, 0)","(155, 155, 155)","2","legacy","experiment","[5, 6, 7, 0, 1, 2, 3, 4]","\","2500","3000","0","8","252.758751519","1024","2","48000","-16","main","[(0, -252), (178, -178), (252, 0), (178, 178), (0, 252), (-178, 178), (-252, 0), (-178, -178)]","[]","22","even","4","285542","320182","320182","183054","182047","1774","206314","206314","1774","1774","194355","466457","1773","320182","464172","463195","463195","NA","971","study_X","0","11300","1","yes","1680"
"undefined","undefined","11300","11300","black","no","legacy","legacy","legacy","0","green","(0, 122, 0)","color","present","lowProb3","rectangular","swap","same","same","swap","red","(179, 0, 0)","lowProb","lowProb1","rectangular","uniform","1","undefined","0.234375","1","1","394.359375","1","45","75717","0","0","0","0","0","0","0","0","73","0","1","0.234375","394.359375","45","75717","73","73","73","08/24/17 14:06:50","Default description","yes","<openexp._canvas.legacy.legacy object at 0x047927F0>","<openexp._canvas.legacy.legacy object at 0x0479E7B0>","<openexp._canvas.legacy.legacy object at 0x0478A370>","<openexp._canvas.legacy.legacy object at 0x048809D0>","<openexp._canvas.legacy.legacy object at 0x048514B0>","<openexp._canvas.legacy.legacy object at 0x047A2510>","<openexp._canvas.legacy.legacy object at 0x04852A50>","75","IndividualPriorityWithDis_v1.osexp","C:/Userdata/Michel/SpatialProb/IndividualPriorityMaps/Experiment2","no","mono","no","18","no","white","no","yes","0.09","98","1050","legacy","45","48","48","1","C:/Userdata/Michel/SpatialProb/IndividualPriorityMaps/Experiment2/data/subject-22.csv","legacy","9","192","25","Jazzy James","3.1.3","yes","598477b2b83f69022949e7e9","47","green","rectangular","red","rectangular","0","\","1509","space","11300","11300","(80, 80, 80)","(0, 122, 0)","(179, 0, 0)","(155, 155, 155)","2","legacy","experiment","[5, 6, 7, 0, 1, 2, 3, 4]","\","2500","3000","0","8","252.758751519","1024","2","48000","-16","main","[(0, -252), (178, -178), (252, 0), (178, 178), (0, 252), (-178, 178), (-252, 0), (-178, -178)]","[]","22","even","6","285542","320182","320182","183054","182047","1774","206314","206314","1774","1774","194355","469353","1773","320182","467842","466865","466866","NA","971","study_X","0","11300","1","yes","1680"
"undefined","undefined","11300","11300","black","no","legacy","legacy","legacy","0","red","(179, 0, 0)","color","present","highProb","rectangular","swap","same","swap","same","green","(0, 122, 0)","lowProb","lowProb3","rectangular","uniform","1","undefined","0.239583333333","1","1","403.197916667","1","46","77414","0","0","0","0","0","0","0","0","74","0","1","0.239583333333","403.197916667","46","77414","74","74","74","08/24/17 14:06:50","Default description","yes","<openexp._canvas.legacy.legacy object at 0x047927F0>","<openexp._canvas.legacy.legacy object at 0x0479E7B0>","<openexp._canvas.legacy.legacy object at 0x0478A370>","<openexp._canvas.legacy.legacy object at 0x048809D0>","<openexp._canvas.legacy.legacy object at 0x048514B0>","<openexp._canvas.legacy.legacy object at 0x0478E810>","<openexp._canvas.legacy.legacy object at 0x04852A50>","75","IndividualPriorityWithDis_v1.osexp","C:/Userdata/Michel/SpatialProb/IndividualPriorityMaps/Experiment2","no","mono","no","18","no","white","no","yes","0.09","98","1050","legacy","45","49","49","1","C:/Userdata/Michel/SpatialProb/IndividualPriorityMaps/Experiment2/data/subject-22.csv","legacy","9","192","25","Jazzy James","3.1.3","yes","598477b2b83f69022949e7e9","47","red","rectangular","green","rectangular","0","\","1697","space","11300","11300","(80, 80, 80)","(0, 122, 0)","(179, 0, 0)","(155, 155, 155)","2","legacy","experiment","[5, 6, 7, 0, 1, 2, 3, 4]","\","2500","3000","0","8","252.758751519","1024","2","48000","-16","main","[(0, -252), (178, -178), (252, 0), (178, 178), (0, 252), (-178, 178), (-252, 0), (-178, -178)]","[]","22","even","0","285542","320182","320182","183054","182047","1774","206314","206314","1774","1774","194355","472433","1773","320182","470733","469756","469756","NA","971","study_X","0","11300","1","yes","1680"
"undefined","undefined","11300","11300","black","no","legacy","legacy","legacy","0","red","(179, 0, 0)","shape","present","highProb","rectangular","same","same","swap","swap","red","(179, 0, 0)","lowProb","lowProb6","circular","uniform","0","undefined","0.239583333333","1","1","416.21875","1","46","79914","0","0","0","0","0","0","0","0","75","0","1","0.239583333333","416.21875","46","79914","75","75","75","08/24/17 14:06:50","Default description","yes","<openexp._canvas.legacy.legacy object at 0x047927F0>","<openexp._canvas.legacy.legacy object at 0x0479E7B0>","<openexp._canvas.legacy.legacy object at 0x0478A370>","<openexp._canvas.legacy.legacy object at 0x048809D0>","<openexp._canvas.legacy.legacy object at 0x048514B0>","<openexp._canvas.legacy.legacy object at 0x04880F70>","<openexp._canvas.legacy.legacy object at 0x04852A50>","75","IndividualPriorityWithDis_v1.osexp","C:/Userdata/Michel/SpatialProb/IndividualPriorityMaps/Experiment2","no","mono","no","18","no","white","no","yes","0.09","98","1050","legacy","45","50","50","1","C:/Userdata/Michel/SpatialProb/IndividualPriorityMaps/Experiment2/data/subject-22.csv","legacy","9","192","25","Jazzy James","3.1.3","yes","598477b2b83f69022949e7e9","47","red","rectangular","red","circular","0","None","2500","space","11300","11300","(80, 80, 80)","(0, 122, 0)","(179, 0, 0)","(155, 155, 155)","2","legacy","experiment","[5, 6, 7, 0, 1, 2, 3, 4]","\","2500","3000","0","8","252.758751519","1024","2","48000","-16","main","[(0, -252), (178, -178), (252, 0), (178, 178), (0, 252), (-178, 178), (-252, 0), (-178, -178)]","[]","22","even","4","285542","320182","320182","183054","182047","1774","206314","206314","1774","1774","194355","476329","1773","320182","473826","472849","472849","NA","971","study_X","0","11300","1","yes","1680"
"undefined","undefined","11300","11300","black","no","legacy","legacy","legacy","0","green","(0, 122, 0)","shape","present","highProb","rectangular","swap","same","swap","same","green","(0, 122, 0)","lowProb","lowProb6","circular","uniform","1","undefined","0.244791666667","1","1","428.645833333","1","47","82300","0","0","0","0","0","0","0","0","76","0","1","0.244791666667","428.645833333","47","82300","76","76","76","08/24/17 14:06:50","Default description","yes","<openexp._canvas.legacy.legacy object at 0x047927F0>","<openexp._canvas.legacy.legacy object at 0x0479E7B0>","<openexp._canvas.legacy.legacy object at 0x0478A370>","<openexp._canvas.legacy.legacy object at 0x048809D0>","<openexp._canvas.legacy.legacy object at 0x048514B0>","<openexp._canvas.legacy.legacy object at 0x04881230>","<openexp._canvas.legacy.legacy object at 0x04852A50>","75","IndividualPriorityWithDis_v1.osexp","C:/Userdata/Michel/SpatialProb/IndividualPriorityMaps/Experiment2","no","mono","no","18","no","white","no","yes","0.09","98","1050","legacy","45","51","51","1","C:/Userdata/Michel/SpatialProb/IndividualPriorityMaps/Experiment2/data/subject-22.csv","legacy","9","192","25","Jazzy James","3.1.3","yes","598477b2b83f69022949e7e9","47","green","rectangular","green","circular","0","\","2386","space","11300","11300","(80, 80, 80)","(0, 122, 0)","(179, 0, 0)","(155, 155, 155)","2","legacy","experiment","[5, 6, 7, 0, 1, 2, 3, 4]","\","2500","3000","0","8","252.758751519","1024","2","48000","-16","main","[(0, -252), (178, -178), (252, 0), (178, 178), (0, 252), (-178, 178), (-252, 0), (-178, -178)]","[]","22","even","4","285542","320182","320182","183054","182047","1774","206314","206314","1774","1774","194355","480105","1773","320182","477716","476740","476740","NA","971","study_X","0","11300","1","yes","1680"
"undefined","undefined","11300","11300","black","no","legacy","legacy","legacy","0","red","(179, 0, 0)","shape","present","lowProb4","circular","swap","swap","swap","swap","red","(179, 0, 0)","lowProb","lowProb2","rectangular","uniform","0","undefined","0.244791666667","1","1","441.666666667","1","47","84800","0","0","0","0","0","0","0","0","77","0","1","0.244791666667","441.666666667","47","84800","77","77","77","08/24/17 14:06:50","Default description","yes","<openexp._canvas.legacy.legacy object at 0x047927F0>","<openexp._canvas.legacy.legacy object at 0x0479E7B0>","<openexp._canvas.legacy.legacy object at 0x0478A370>","<openexp._canvas.legacy.legacy object at 0x048809D0>","<openexp._canvas.legacy.legacy object at 0x048514B0>","<openexp._canvas.legacy.legacy object at 0x04799070>","<openexp._canvas.legacy.legacy object at 0x04852A50>","75","IndividualPriorityWithDis_v1.osexp","C:/Userdata/Michel/SpatialProb/IndividualPriorityMaps/Experiment2","no","mono","no","18","no","white","no","yes","0.09","98","1050","legacy","45","52","52","1","C:/Userdata/Michel/SpatialProb/IndividualPriorityMaps/Experiment2/data/subject-22.csv","legacy","9","192","25","Jazzy James","3.1.3","yes","598477b2b83f69022949e7e9","47","red","circular","red","rectangular","0","None","2500","space","11300","11300","(80, 80, 80)","(0, 122, 0)","(179, 0, 0)","(155, 155, 155)","2","legacy","experiment","[5, 6, 7, 0, 1, 2, 3, 4]","\","2500","3000","0","8","252.758751519","1024","2","48000","-16","main","[(0, -252), (178, -178), (252, 0), (178, 178), (0, 252), (-178, 178), (-252, 0), (-178, -178)]","[]","22","even","7","285542","320182","320182","183054","182047","1774","206314","206314","1774","1774","194355","483989","1773","320182","481486","480509","480509","NA","971","study_X","0","11300","1","yes","1680"
"undefined","undefined","11300","11300","black","no","legacy","legacy","legacy","0","green","(0, 122, 0)","shape","present","highProb","circular","swap","same","swap","same","green","(0, 122, 0)","lowProb","lowProb5","rectangular","uniform","1","undefined","0.25","1","1","451.609375","1","48","86709","0","0","0","0","0","0","0","0","78","0","1","0.25","451.609375","48","86709","78","78","78","08/24/17 14:06:50","Default description","yes","<openexp._canvas.legacy.legacy object at 0x047927F0>","<openexp._canvas.legacy.legacy object at 0x0479E7B0>","<openexp._canvas.legacy.legacy object at 0x0478A370>","<openexp._canvas.legacy.legacy object at 0x048809D0>","<openexp._canvas.legacy.legacy object at 0x048514B0>","<openexp._canvas.legacy.legacy object at 0x04852A70>","<openexp._canvas.legacy.legacy object at 0x04852A50>","75","IndividualPriorityWithDis_v1.osexp","C:/Userdata/Michel/SpatialProb/IndividualPriorityMaps/Experiment2","no","mono","no","18","no","white","no","yes","0.09","98","1050","legacy","45","53","53","1","C:/Userdata/Michel/SpatialProb/IndividualPriorityMaps/Experiment2/data/subject-22.csv","legacy","9","192","25","Jazzy James","3.1.3","yes","598477b2b83f69022949e7e9","47","green","circular","green","rectangular","0","\","1909","space","11300","11300","(80, 80, 80)","(0, 122, 0)","(179, 0, 0)","(155, 155, 155)","2","legacy","experiment","[5, 6, 7, 0, 1, 2, 3, 4]","\","2500","3000","0","8","252.758751519","1024","2","48000","-16","main","[(0, -252), (178, -178), (252, 0), (178, 178), (0, 252), (-178, 178), (-252, 0), (-178, -178)]","[]","22","even","3","285542","320182","320182","183054","182047","1774","206314","206314","1774","1774","194355","487281","1773","320182","485369","484392","484392","NA","971","study_X","0","11300","1","yes","1680"
