acc,accuracy,answerQ1,answerQ2,answerQ3,average_response_time,avg_rt,background,bidi,canvas_backend,clock_backend,color_backend,compensation,cond_disColor,cond_disColorRGB,cond_disFeature,cond_disPresent,cond_disProbability,cond_disShape,cond_primingDisColor,cond_primingDisShape,cond_primingTarColor,cond_primingTarShape,cond_tarColor,cond_tarColorRGB,cond_tarLocation,cond_tarLocationLong,cond_tarShape,coordinates,correct,correct_continuePress,count_Questions,count_blockAcc,count_blockFeed,count_blockLoop,count_blockRT,count_blockSeq,count_blockSumCorrect,count_blockSumRT,count_continuePress,count_example,count_expSettings,count_exp_mainLoop,count_experiment,count_instructions,count_instructions1,count_instructions2,count_log,count_main,count_prepCanvas,count_totalAcc,count_totalRT,count_totalSumCorrect,count_totalSumRT,count_trialResp,count_trialSeq,count_trialTask,datetime,description,disable_garbage_collection,dispBlank,dispBlockStart,dispFeedBlock,dispFix,dispInstructions,dispQuestions,dispSearch,dispStartScreen,distance2screen,experiment_file,experiment_path,font_bold,font_family,font_italic,font_size,font_underline,foreground,form_clicks,fullscreen,gaborFreq,gaborSize,height,keyboard_backend,lineOriTar,live_row,live_row_blockLoop,live_row_exp_mainLoop,logfile,mouse_backend,noExpBlocks,noExpTrials,noPracTrials,opensesame_codename,opensesame_version,osf_always_upload_experiment,osf_id,physical_screensize,previousDisColor,previousDisShape,previousTarColor,previousTarShape,repeat_cycle,response,responseTime,response_continuePress,response_time,response_time_continuePress,rgb_gray,rgb_green,rgb_red,rgb_white,round_decimals,sampler_backend,set_blockType,set_counterPositions,set_respCorrect,set_respTimeoutExp,set_respTimeoutPrac,set_rotation,set_setSize,sizeImaginary,sound_buf_size,sound_channels,sound_freq,sound_sample_size,start,stimPositions,stimuli,subject_nr,subject_parity,tarIdx,time_Questions,time_blockFeed,time_blockLoop,time_blockSeq,time_continuePress,time_example,time_expSettings,time_exp_mainLoop,time_experiment,time_instructions,time_instructions1,time_instructions2,time_log,time_main,time_prepCanvas,time_trialResp,time_trialSeq,time_trialTask,timing_EEGwait,timing_fix,title,total_correct,total_response_time,total_responses,uniform_coordinates,width
undefined,undefined,NA,NA,NA,4134,4134,black,no,legacy,legacy,legacy,0,green,"(0, 123, 0)",shape,present,highProb,rectangular,swap,swap,swap,same,green,"(0, 123, 0)",lowProb,lowProb2,circular,uniform,1,undefined,0,0.005208333,1,1,4.098958333,1,1,787,0,0,0,0,0,0,0,0,26,0,1,0.005208333,4.098958333,1,787,25,25,25,11/21/2018 14:16,Default description,yes,<openexp._canvas.legacy.Legacy object at 0x05CB88D0>,<openexp._canvas.legacy.Legacy object at 0x05D4E9F0>,<openexp._canvas.legacy.Legacy object at 0x05CD08F0>,<openexp._canvas.legacy.Legacy object at 0x05B32930>,<openexp._canvas.legacy.Legacy object at 0x05B22190>,<openexp._canvas.legacy.Legacy object at 0x05CAC290>,<openexp._canvas.legacy.Legacy object at 0x05D4ED50>,<openexp._canvas.legacy.Legacy object at 0x05B87E90>,75,SpatProbMultiple3.osexp,C:/Userdata/Michel/SpatProbMultiple3,no,mono,no,18,no,white,no,yes,0.09,98,1050,legacy,315,0,0,1,C:/Userdata/Michel/SpatProbMultiple3/beh/subject-9.csv,legacy,12,192,25,Kafkaesque Koffka,3.2.5,yes,598477b2b83f69022949e7e9,47,green,rectangular,green,circular,0,/,787,space,4134,4134,"(80, 80, 80)","(0, 123, 0)","(177, 0, 0)","(155, 155, 155)",2,legacy,experiment,"[0, 1, 2, 3, 4, 5, 6, 7]",/,2500,3000,0,8,252.7587515,1024,2,48000,-16,main,"[(0, -252), (178, -178), (252, 0), (178, 178), (0, 252), (-178, 178), (-252, 0), (-178, -178)]",[],33,odd,2,NA,95992,148163,148163,24864,23855,1924,29705,29704,1924,1924,28998,155293,1923,148163,154504,148565,148565,NA,778,study_X,0,4134,1,yes,1680
undefined,undefined,NA,NA,NA,4134,4134,black,no,legacy,legacy,legacy,0,red,"(177, 0, 0)",shape,present,lowProb4,rectangular,swap,same,swap,same,red,"(177, 0, 0)",lowProb,lowProb5,circular,uniform,1,undefined,0,0.010416667,1,1,11.94791667,1,2,2294,0,0,0,0,0,0,0,0,27,0,1,0.010416667,11.94791667,2,2294,26,26,26,11/21/2018 14:16,Default description,yes,<openexp._canvas.legacy.Legacy object at 0x05CB88D0>,<openexp._canvas.legacy.Legacy object at 0x05D4E9F0>,<openexp._canvas.legacy.Legacy object at 0x05CD08F0>,<openexp._canvas.legacy.Legacy object at 0x05B32930>,<openexp._canvas.legacy.Legacy object at 0x05B22190>,<openexp._canvas.legacy.Legacy object at 0x05CAC290>,<openexp._canvas.legacy.Legacy object at 0x05D55810>,<openexp._canvas.legacy.Legacy object at 0x05B87E90>,75,SpatProbMultiple3.osexp,C:/Userdata/Michel/SpatProbMultiple3,no,mono,no,18,no,white,no,yes,0.09,98,1050,legacy,315,1,1,1,C:/Userdata/Michel/SpatProbMultiple3/beh/subject-9.csv,legacy,12,192,25,Kafkaesque Koffka,3.2.5,yes,598477b2b83f69022949e7e9,47,red,rectangular,red,circular,0,/,1507,space,4134,4134,"(80, 80, 80)","(0, 123, 0)","(177, 0, 0)","(155, 155, 155)",2,legacy,experiment,"[0, 1, 2, 3, 4, 5, 6, 7]",/,2500,3000,0,8,252.7587515,1024,2,48000,-16,main,"[(0, -252), (178, -178), (252, 0), (178, 178), (0, 252), (-178, 178), (-252, 0), (-178, -178)]",[],33,odd,6,NA,95992,148163,148163,24864,23855,1924,29705,29704,1924,1924,28998,158038,1923,148163,156529,155742,155742,NA,778,study_X,0,4134,1,yes,1680
undefined,undefined,NA,NA,NA,4134,4134,black,no,legacy,legacy,legacy,0,red,"(177, 0, 0)",color,present,lowProb6,rectangular,same,same,swap,swap,green,"(0, 123, 0)",lowProb,lowProb2,rectangular,uniform,1,undefined,0,0.015625,1,1,19.80729167,1,3,3803,0,0,0,0,0,0,0,0,28,0,1,0.015625,19.80729167,3,3803,27,27,27,11/21/2018 14:16,Default description,yes,<openexp._canvas.legacy.Legacy object at 0x05CB88D0>,<openexp._canvas.legacy.Legacy object at 0x05D4E9F0>,<openexp._canvas.legacy.Legacy object at 0x05CD08F0>,<openexp._canvas.legacy.Legacy object at 0x05B32930>,<openexp._canvas.legacy.Legacy object at 0x05B22190>,<openexp._canvas.legacy.Legacy object at 0x05CAC290>,<openexp._canvas.legacy.Legacy object at 0x05D4EAD0>,<openexp._canvas.legacy.Legacy object at 0x05B87E90>,75,SpatProbMultiple3.osexp,C:/Userdata/Michel/SpatProbMultiple3,no,mono,no,18,no,white,no,yes,0.09,98,1050,legacy,315,2,2,1,C:/Userdata/Michel/SpatProbMultiple3/beh/subject-9.csv,legacy,12,192,25,Kafkaesque Koffka,3.2.5,yes,598477b2b83f69022949e7e9,47,red,rectangular,green,rectangular,0,/,1509,space,4134,4134,"(80, 80, 80)","(0, 123, 0)","(177, 0, 0)","(155, 155, 155)",2,legacy,experiment,"[0, 1, 2, 3, 4, 5, 6, 7]",/,2500,3000,0,8,252.7587515,1024,2,48000,-16,main,"[(0, -252), (178, -178), (252, 0), (178, 178), (0, 252), (-178, 178), (-252, 0), (-178, -178)]",[],33,odd,2,NA,95992,148163,148163,24864,23855,1924,29705,29704,1924,1924,28998,160766,1923,148163,159253,158466,158466,NA,778,study_X,0,4134,1,yes,1680
undefined,undefined,NA,NA,NA,4134,4134,black,no,legacy,legacy,legacy,0,green,"(0, 123, 0)",color,present,highProbOther,circular,swap,swap,swap,swap,red,"(177, 0, 0)",lowProb,lowProb4,circular,uniform,0,undefined,0,0.015625,1,1,32.828125,1,3,6303,0,0,0,0,0,0,0,0,29,0,1,0.015625,32.828125,3,6303,28,28,28,11/21/2018 14:16,Default description,yes,<openexp._canvas.legacy.Legacy object at 0x05CB88D0>,<openexp._canvas.legacy.Legacy object at 0x05D4E9F0>,<openexp._canvas.legacy.Legacy object at 0x05CD08F0>,<openexp._canvas.legacy.Legacy object at 0x05B32930>,<openexp._canvas.legacy.Legacy object at 0x05B22190>,<openexp._canvas.legacy.Legacy object at 0x05CAC290>,<openexp._canvas.legacy.Legacy object at 0x05CC4BF0>,<openexp._canvas.legacy.Legacy object at 0x05B87E90>,75,SpatProbMultiple3.osexp,C:/Userdata/Michel/SpatProbMultiple3,no,mono,no,18,no,white,no,yes,0.09,98,1050,legacy,45,3,3,1,C:/Userdata/Michel/SpatProbMultiple3/beh/subject-9.csv,legacy,12,192,25,Kafkaesque Koffka,3.2.5,yes,598477b2b83f69022949e7e9,47,green,circular,red,circular,0,None,2500,space,4134,4134,"(80, 80, 80)","(0, 123, 0)","(177, 0, 0)","(155, 155, 155)",2,legacy,experiment,"[0, 1, 2, 3, 4, 5, 6, 7]",\,2500,3000,0,8,252.7587515,1024,2,48000,-16,main,"[(0, -252), (178, -178), (252, 0), (178, 178), (0, 252), (-178, 178), (-252, 0), (-178, -178)]",[],33,odd,5,NA,95992,148163,148163,24864,23855,1924,29705,29704,1924,1924,28998,164478,1923,148163,161976,161189,161189,NA,778,study_X,0,4134,1,yes,1680
undefined,undefined,NA,NA,NA,4134,4134,black,no,legacy,legacy,legacy,0,green,"(0, 123, 0)",color,present,highProbOther,circular,same,same,same,same,red,"(177, 0, 0)",lowProb,lowProb1,circular,uniform,1,undefined,0,0.020833333,1,1,38.38020833,1,4,7369,0,0,0,0,0,0,0,0,30,0,1,0.020833333,38.38020833,4,7369,29,29,29,11/21/2018 14:16,Default description,yes,<openexp._canvas.legacy.Legacy object at 0x05CB88D0>,<openexp._canvas.legacy.Legacy object at 0x05D4E9F0>,<openexp._canvas.legacy.Legacy object at 0x05CD08F0>,<openexp._canvas.legacy.Legacy object at 0x05B32930>,<openexp._canvas.legacy.Legacy object at 0x05B22190>,<openexp._canvas.legacy.Legacy object at 0x05CAC290>,<openexp._canvas.legacy.Legacy object at 0x05D55D70>,<openexp._canvas.legacy.Legacy object at 0x05B87E90>,75,SpatProbMultiple3.osexp,C:/Userdata/Michel/SpatProbMultiple3,no,mono,no,18,no,white,no,yes,0.09,98,1050,legacy,315,4,4,1,C:/Userdata/Michel/SpatProbMultiple3/beh/subject-9.csv,legacy,12,192,25,Kafkaesque Koffka,3.2.5,yes,598477b2b83f69022949e7e9,47,green,circular,red,circular,0,/,1066,space,4134,4134,"(80, 80, 80)","(0, 123, 0)","(177, 0, 0)","(155, 155, 155)",2,legacy,experiment,"[0, 1, 2, 3, 4, 5, 6, 7]",/,2500,3000,0,8,252.7587515,1024,2,48000,-16,main,"[(0, -252), (178, -178), (252, 0), (178, 178), (0, 252), (-178, 178), (-252, 0), (-178, -178)]",[],33,odd,1,NA,95992,148163,148163,24864,23855,1924,29705,29704,1924,1924,28998,166766,1923,148163,165696,164908,164908,NA,778,study_X,0,4134,1,yes,1680
undefined,undefined,NA,NA,NA,4134,4134,black,no,legacy,legacy,legacy,0,green,"(0, 123, 0)",shape,present,lowProb4,circular,same,same,swap,swap,green,"(0, 123, 0)",highProbColor,highProbColor,rectangular,uniform,1,undefined,0,0.026041667,1,1,45.48958333,1,5,8734,0,0,0,0,0,0,0,0,31,0,1,0.026041667,45.48958333,5,8734,30,30,30,11/21/2018 14:16,Default description,yes,<openexp._canvas.legacy.Legacy object at 0x05CB88D0>,<openexp._canvas.legacy.Legacy object at 0x05D4E9F0>,<openexp._canvas.legacy.Legacy object at 0x05CD08F0>,<openexp._canvas.legacy.Legacy object at 0x05B32930>,<openexp._canvas.legacy.Legacy object at 0x05B22190>,<openexp._canvas.legacy.Legacy object at 0x05CAC290>,<openexp._canvas.legacy.Legacy object at 0x05D4EB10>,<openexp._canvas.legacy.Legacy object at 0x05B87E90>,75,SpatProbMultiple3.osexp,C:/Userdata/Michel/SpatProbMultiple3,no,mono,no,18,no,white,no,yes,0.09,98,1050,legacy,315,5,5,1,C:/Userdata/Michel/SpatProbMultiple3/beh/subject-9.csv,legacy,12,192,25,Kafkaesque Koffka,3.2.5,yes,598477b2b83f69022949e7e9,47,green,circular,green,rectangular,0,/,1365,space,4134,4134,"(80, 80, 80)","(0, 123, 0)","(177, 0, 0)","(155, 155, 155)",2,legacy,experiment,"[0, 1, 2, 3, 4, 5, 6, 7]",/,2500,3000,0,8,252.7587515,1024,2,48000,-16,main,"[(0, -252), (178, -178), (252, 0), (178, 178), (0, 252), (-178, 178), (-252, 0), (-178, -178)]",[],33,odd,0,NA,95992,148163,148163,24864,23855,1924,29705,29704,1924,1924,28998,169349,1923,148163,167982,167194,167194,NA,778,study_X,0,4134,1,yes,1680
undefined,undefined,NA,NA,NA,4134,4134,black,no,legacy,legacy,legacy,0,green,"(0, 123, 0)",shape,absent,lowProb4,circular,same,same,same,swap,green,"(0, 123, 0)",highProbShape,highProbShape,circular,uniform,1,undefined,0,0.03125,1,1,52.10416667,1,6,10004,0,0,0,0,0,0,0,0,32,0,1,0.03125,52.10416667,6,10004,31,31,31,11/21/2018 14:16,Default description,yes,<openexp._canvas.legacy.Legacy object at 0x05CB88D0>,<openexp._canvas.legacy.Legacy object at 0x05D4E9F0>,<openexp._canvas.legacy.Legacy object at 0x05CD08F0>,<openexp._canvas.legacy.Legacy object at 0x05B32930>,<openexp._canvas.legacy.Legacy object at 0x05B22190>,<openexp._canvas.legacy.Legacy object at 0x05CAC290>,<openexp._canvas.legacy.Legacy object at 0x05CC4BD0>,<openexp._canvas.legacy.Legacy object at 0x05B87E90>,75,SpatProbMultiple3.osexp,C:/Userdata/Michel/SpatProbMultiple3,no,mono,no,18,no,white,no,yes,0.09,98,1050,legacy,45,6,6,1,C:/Userdata/Michel/SpatProbMultiple3/beh/subject-9.csv,legacy,12,192,25,Kafkaesque Koffka,3.2.5,yes,598477b2b83f69022949e7e9,47,green,circular,green,circular,0,\,1270,space,4134,4134,"(80, 80, 80)","(0, 123, 0)","(177, 0, 0)","(155, 155, 155)",2,legacy,experiment,"[0, 1, 2, 3, 4, 5, 6, 7]",\,2500,3000,0,8,252.7587515,1024,2,48000,-16,main,"[(0, -252), (178, -178), (252, 0), (178, 178), (0, 252), (-178, 178), (-252, 0), (-178, -178)]",[],33,odd,4,NA,95992,148163,148163,24864,23855,1924,29705,29704,1924,1924,28998,171845,1923,148163,170573,169787,169787,NA,778,study_X,0,4134,1,yes,1680
undefined,undefined,NA,NA,NA,4134,4134,black,no,legacy,legacy,legacy,0,green,"(0, 123, 0)",shape,present,highProb,circular,same,same,same,swap,green,"(0, 123, 0)",lowProb,lowProb1,rectangular,uniform,1,undefined,0,0.036458333,1,1,58.60416667,1,7,11252,0,0,0,0,0,0,0,0,33,0,1,0.036458333,58.60416667,7,11252,32,32,32,11/21/2018 14:16,Default description,yes,<openexp._canvas.legacy.Legacy object at 0x05CB88D0>,<openexp._canvas.legacy.Legacy object at 0x05D4E9F0>,<openexp._canvas.legacy.Legacy object at 0x05CD08F0>,<openexp._canvas.legacy.Legacy object at 0x05B32930>,<openexp._canvas.legacy.Legacy object at 0x05B22190>,<openexp._canvas.legacy.Legacy object at 0x05CAC290>,<openexp._canvas.legacy.Legacy object at 0x05D1D6D0>,<openexp._canvas.legacy.Legacy object at 0x05B87E90>,75,SpatProbMultiple3.osexp,C:/Userdata/Michel/SpatProbMultiple3,no,mono,no,18,no,white,no,yes,0.09,98,1050,legacy,315,7,7,1,C:/Userdata/Michel/SpatProbMultiple3/beh/subject-9.csv,legacy,12,192,25,Kafkaesque Koffka,3.2.5,yes,598477b2b83f69022949e7e9,47,green,circular,green,rectangular,0,/,1248,space,4134,4134,"(80, 80, 80)","(0, 123, 0)","(177, 0, 0)","(155, 155, 155)",2,legacy,experiment,"[0, 1, 2, 3, 4, 5, 6, 7]",/,2500,3000,0,8,252.7587515,1024,2,48000,-16,main,"[(0, -252), (178, -178), (252, 0), (178, 178), (0, 252), (-178, 178), (-252, 0), (-178, -178)]",[],33,odd,1,NA,95992,148163,148163,24864,23855,1924,29705,29704,1924,1924,28998,174309,1923,148163,173059,172273,172273,NA,778,study_X,0,4134,1,yes,1680
undefined,undefined,NA,NA,NA,4134,4134,black,no,legacy,legacy,legacy,0,green,"(0, 123, 0)",color,present,highProb,rectangular,same,swap,swap,same,red,"(177, 0, 0)",lowProb,lowProb5,rectangular,uniform,1,undefined,0,0.041666667,1,1,65.78645833,1,8,12631,0,0,0,0,0,0,0,0,34,0,1,0.041666667,65.78645833,8,12631,33,33,33,11/21/2018 14:16,Default description,yes,<openexp._canvas.legacy.Legacy object at 0x05CB88D0>,<openexp._canvas.legacy.Legacy object at 0x05D4E9F0>,<openexp._canvas.legacy.Legacy object at 0x05CD08F0>,<openexp._canvas.legacy.Legacy object at 0x05B32930>,<openexp._canvas.legacy.Legacy object at 0x05B22190>,<openexp._canvas.legacy.Legacy object at 0x05CAC290>,<openexp._canvas.legacy.Legacy object at 0x05D4EE30>,<openexp._canvas.legacy.Legacy object at 0x05B87E90>,75,SpatProbMultiple3.osexp,C:/Userdata/Michel/SpatProbMultiple3,no,mono,no,18,no,white,no,yes,0.09,98,1050,legacy,45,8,8,1,C:/Userdata/Michel/SpatProbMultiple3/beh/subject-9.csv,legacy,12,192,25,Kafkaesque Koffka,3.2.5,yes,598477b2b83f69022949e7e9,47,green,rectangular,red,rectangular,0,\,1379,space,4134,4134,"(80, 80, 80)","(0, 123, 0)","(177, 0, 0)","(155, 155, 155)",2,legacy,experiment,"[0, 1, 2, 3, 4, 5, 6, 7]",\,2500,3000,0,8,252.7587515,1024,2,48000,-16,main,"[(0, -252), (178, -178), (252, 0), (178, 178), (0, 252), (-178, 178), (-252, 0), (-178, -178)]",[],33,odd,6,NA,95992,148163,148163,24864,23855,1924,29705,29704,1924,1924,28998,176910,1923,148163,175528,174740,174741,NA,778,study_X,0,4134,1,yes,1680
undefined,undefined,NA,NA,NA,4134,4134,black,no,legacy,legacy,legacy,0,red,"(177, 0, 0)",shape,present,highProb,circular,swap,swap,same,same,red,"(177, 0, 0)",lowProb,lowProb2,rectangular,uniform,1,undefined,0,0.046875,1,1,76.36979167,1,9,14663,0,0,0,0,0,0,0,0,35,0,1,0.046875,76.36979167,9,14663,34,34,34,11/21/2018 14:16,Default description,yes,<openexp._canvas.legacy.Legacy object at 0x05CB88D0>,<openexp._canvas.legacy.Legacy object at 0x05D4E9F0>,<openexp._canvas.legacy.Legacy object at 0x05CD08F0>,<openexp._canvas.legacy.Legacy object at 0x05B32930>,<openexp._canvas.legacy.Legacy object at 0x05B22190>,<openexp._canvas.legacy.Legacy object at 0x05CAC290>,<openexp._canvas.legacy.Legacy object at 0x05CB8EB0>,<openexp._canvas.legacy.Legacy object at 0x05B87E90>,75,SpatProbMultiple3.osexp,C:/Userdata/Michel/SpatProbMultiple3,no,mono,no,18,no,white,no,yes,0.09,98,1050,legacy,315,9,9,1,C:/Userdata/Michel/SpatProbMultiple3/beh/subject-9.csv,legacy,12,192,25,Kafkaesque Koffka,3.2.5,yes,598477b2b83f69022949e7e9,47,red,circular,red,rectangular,0,/,2032,space,4134,4134,"(80, 80, 80)","(0, 123, 0)","(177, 0, 0)","(155, 155, 155)",2,legacy,experiment,"[0, 1, 2, 3, 4, 5, 6, 7]",/,2500,3000,0,8,252.7587515,1024,2,48000,-16,main,"[(0, -252), (178, -178), (252, 0), (178, 178), (0, 252), (-178, 178), (-252, 0), (-178, -178)]",[],33,odd,2,NA,95992,148163,148163,24864,23855,1924,29705,29704,1924,1924,28998,180158,1923,148163,178122,177334,177335,NA,778,study_X,0,4134,1,yes,1680
undefined,undefined,NA,NA,NA,4134,4134,black,no,legacy,legacy,legacy,0,green,"(0, 123, 0)",shape,present,highProb,circular,swap,same,swap,same,green,"(0, 123, 0)",highProbColor,highProbColor,rectangular,uniform,1,undefined,0,0.052083333,1,1,80.9375,1,10,15540,0,0,0,0,0,0,0,0,36,0,1,0.052083333,80.9375,10,15540,35,35,35,11/21/2018 14:16,Default description,yes,<openexp._canvas.legacy.Legacy object at 0x05CB88D0>,<openexp._canvas.legacy.Legacy object at 0x05D4E9F0>,<openexp._canvas.legacy.Legacy object at 0x05CD08F0>,<openexp._canvas.legacy.Legacy object at 0x05B32930>,<openexp._canvas.legacy.Legacy object at 0x05B22190>,<openexp._canvas.legacy.Legacy object at 0x05CAC290>,<openexp._canvas.legacy.Legacy object at 0x05D55F30>,<openexp._canvas.legacy.Legacy object at 0x05B87E90>,75,SpatProbMultiple3.osexp,C:/Userdata/Michel/SpatProbMultiple3,no,mono,no,18,no,white,no,yes,0.09,98,1050,legacy,45,10,10,1,C:/Userdata/Michel/SpatProbMultiple3/beh/subject-9.csv,legacy,12,192,25,Kafkaesque Koffka,3.2.5,yes,598477b2b83f69022949e7e9,47,green,circular,green,rectangular,0,\,877,space,4134,4134,"(80, 80, 80)","(0, 123, 0)","(177, 0, 0)","(155, 155, 155)",2,legacy,experiment,"[0, 1, 2, 3, 4, 5, 6, 7]",\,2500,3000,0,8,252.7587515,1024,2,48000,-16,main,"[(0, -252), (178, -178), (252, 0), (178, 178), (0, 252), (-178, 178), (-252, 0), (-178, -178)]",[],33,odd,0,NA,95992,148163,148163,24864,23855,1924,29705,29704,1924,1924,28998,182246,1923,148163,181366,180579,180579,NA,778,study_X,0,4134,1,yes,1680
undefined,undefined,NA,NA,NA,4134,4134,black,no,legacy,legacy,legacy,0,red,"(177, 0, 0)",shape,present,highProb,circular,swap,same,swap,same,red,"(177, 0, 0)",lowProb,lowProb5,rectangular,uniform,0,undefined,0,0.052083333,1,1,93.95833333,1,10,18040,0,0,0,0,0,0,0,0,37,0,1,0.052083333,93.95833333,10,18040,36,36,36,11/21/2018 14:16,Default description,yes,<openexp._canvas.legacy.Legacy object at 0x05CB88D0>,<openexp._canvas.legacy.Legacy object at 0x05D4E9F0>,<openexp._canvas.legacy.Legacy object at 0x05CD08F0>,<openexp._canvas.legacy.Legacy object at 0x05B32930>,<openexp._canvas.legacy.Legacy object at 0x05B22190>,<openexp._canvas.legacy.Legacy object at 0x05CAC290>,<openexp._canvas.legacy.Legacy object at 0x05B37BB0>,<openexp._canvas.legacy.Legacy object at 0x05B87E90>,75,SpatProbMultiple3.osexp,C:/Userdata/Michel/SpatProbMultiple3,no,mono,no,18,no,white,no,yes,0.09,98,1050,legacy,315,11,11,1,C:/Userdata/Michel/SpatProbMultiple3/beh/subject-9.csv,legacy,12,192,25,Kafkaesque Koffka,3.2.5,yes,598477b2b83f69022949e7e9,47,red,circular,red,rectangular,0,None,2500,space,4134,4134,"(80, 80, 80)","(0, 123, 0)","(177, 0, 0)","(155, 155, 155)",2,legacy,experiment,"[0, 1, 2, 3, 4, 5, 6, 7]",/,2500,3000,0,8,252.7587515,1024,2,48000,-16,main,"[(0, -252), (178, -178), (252, 0), (178, 178), (0, 252), (-178, 178), (-252, 0), (-178, -178)]",[],33,odd,6,NA,95992,148163,148163,24864,23855,1924,29705,29704,1924,1924,28998,185961,1923,148163,183458,182670,182670,NA,778,study_X,0,4134,1,yes,1680
undefined,undefined,NA,NA,NA,4134,4134,black,no,legacy,legacy,legacy,0,red,"(177, 0, 0)",color,present,highProb,circular,same,same,swap,swap,green,"(0, 123, 0)",lowProb,lowProb5,circular,uniform,1,undefined,0,0.057291667,1,1,106.5989583,1,11,20467,0,0,0,0,0,0,0,0,38,0,1,0.057291667,106.5989583,11,20467,37,37,37,11/21/2018 14:16,Default description,yes,<openexp._canvas.legacy.Legacy object at 0x05CB88D0>,<openexp._canvas.legacy.Legacy object at 0x05D4E9F0>,<openexp._canvas.legacy.Legacy object at 0x05CD08F0>,<openexp._canvas.legacy.Legacy object at 0x05B32930>,<openexp._canvas.legacy.Legacy object at 0x05B22190>,<openexp._canvas.legacy.Legacy object at 0x05CAC290>,<openexp._canvas.legacy.Legacy object at 0x05CC4D10>,<openexp._canvas.legacy.Legacy object at 0x05B87E90>,75,SpatProbMultiple3.osexp,C:/Userdata/Michel/SpatProbMultiple3,no,mono,no,18,no,white,no,yes,0.09,98,1050,legacy,315,12,12,1,C:/Userdata/Michel/SpatProbMultiple3/beh/subject-9.csv,legacy,12,192,25,Kafkaesque Koffka,3.2.5,yes,598477b2b83f69022949e7e9,47,red,circular,green,circular,0,/,2427,space,4134,4134,"(80, 80, 80)","(0, 123, 0)","(177, 0, 0)","(155, 155, 155)",2,legacy,experiment,"[0, 1, 2, 3, 4, 5, 6, 7]",/,2500,3000,0,8,252.7587515,1024,2,48000,-16,main,"[(0, -252), (178, -178), (252, 0), (178, 178), (0, 252), (-178, 178), (-252, 0), (-178, -178)]",[],33,odd,6,NA,95992,148163,148163,24864,23855,1924,29705,29704,1924,1924,28998,189613,1923,148163,187184,186397,186397,NA,778,study_X,0,4134,1,yes,1680
undefined,undefined,NA,NA,NA,4134,4134,black,no,legacy,legacy,legacy,0,green,"(0, 123, 0)",shape,present,highProb,circular,swap,same,same,swap,green,"(0, 123, 0)",lowProb,lowProb1,rectangular,uniform,1,undefined,0,0.0625,1,1,111.921875,1,12,21489,0,0,0,0,0,0,0,0,39,0,1,0.0625,111.921875,12,21489,38,38,38,11/21/2018 14:16,Default description,yes,<openexp._canvas.legacy.Legacy object at 0x05CB88D0>,<openexp._canvas.legacy.Legacy object at 0x05D4E9F0>,<openexp._canvas.legacy.Legacy object at 0x05CD08F0>,<openexp._canvas.legacy.Legacy object at 0x05B32930>,<openexp._canvas.legacy.Legacy object at 0x05B22190>,<openexp._canvas.legacy.Legacy object at 0x05CAC290>,<openexp._canvas.legacy.Legacy object at 0x05CB4B70>,<openexp._canvas.legacy.Legacy object at 0x05B87E90>,75,SpatProbMultiple3.osexp,C:/Userdata/Michel/SpatProbMultiple3,no,mono,no,18,no,white,no,yes,0.09,98,1050,legacy,315,13,13,1,C:/Userdata/Michel/SpatProbMultiple3/beh/subject-9.csv,legacy,12,192,25,Kafkaesque Koffka,3.2.5,yes,598477b2b83f69022949e7e9,47,green,circular,green,rectangular,0,/,1022,space,4134,4134,"(80, 80, 80)","(0, 123, 0)","(177, 0, 0)","(155, 155, 155)",2,legacy,experiment,"[0, 1, 2, 3, 4, 5, 6, 7]",/,2500,3000,0,8,252.7587515,1024,2,48000,-16,main,"[(0, -252), (178, -178), (252, 0), (178, 178), (0, 252), (-178, 178), (-252, 0), (-178, -178)]",[],33,odd,1,NA,95992,148163,148163,24864,23855,1924,29705,29704,1924,1924,28998,191853,1923,148163,190827,190040,190040,NA,778,study_X,0,4134,1,yes,1680
undefined,undefined,NA,NA,NA,4134,4134,black,no,legacy,legacy,legacy,0,green,"(0, 123, 0)",color,present,highProb,circular,same,same,swap,swap,red,"(177, 0, 0)",lowProb,lowProb1,circular,uniform,1,undefined,0,0.067708333,1,1,116.84375,1,13,22434,0,0,0,0,0,0,0,0,40,0,1,0.067708333,116.84375,13,22434,39,39,39,11/21/2018 14:16,Default description,yes,<openexp._canvas.legacy.Legacy object at 0x05CB88D0>,<openexp._canvas.legacy.Legacy object at 0x05D4E9F0>,<openexp._canvas.legacy.Legacy object at 0x05CD08F0>,<openexp._canvas.legacy.Legacy object at 0x05B32930>,<openexp._canvas.legacy.Legacy object at 0x05B22190>,<openexp._canvas.legacy.Legacy object at 0x05CAC290>,<openexp._canvas.legacy.Legacy object at 0x05D55350>,<openexp._canvas.legacy.Legacy object at 0x05B87E90>,75,SpatProbMultiple3.osexp,C:/Userdata/Michel/SpatProbMultiple3,no,mono,no,18,no,white,no,yes,0.09,98,1050,legacy,45,14,14,1,C:/Userdata/Michel/SpatProbMultiple3/beh/subject-9.csv,legacy,12,192,25,Kafkaesque Koffka,3.2.5,yes,598477b2b83f69022949e7e9,47,green,circular,red,circular,0,\,945,space,4134,4134,"(80, 80, 80)","(0, 123, 0)","(177, 0, 0)","(155, 155, 155)",2,legacy,experiment,"[0, 1, 2, 3, 4, 5, 6, 7]",\,2500,3000,0,8,252.7587515,1024,2,48000,-16,main,"[(0, -252), (178, -178), (252, 0), (178, 178), (0, 252), (-178, 178), (-252, 0), (-178, -178)]",[],33,odd,1,NA,95992,148163,148163,24864,23855,1924,29705,29704,1924,1924,28998,194022,1923,148163,193073,192287,192287,NA,778,study_X,0,4134,1,yes,1680
undefined,undefined,NA,NA,NA,4134,4134,black,no,legacy,legacy,legacy,0,green,"(0, 123, 0)",color,present,highProb,circular,same,same,same,same,red,"(177, 0, 0)",lowProb,lowProb1,circular,uniform,1,undefined,0,0.072916667,1,1,120.1666667,1,14,23072,0,0,0,0,0,0,0,0,41,0,1,0.072916667,120.1666667,14,23072,40,40,40,11/21/2018 14:16,Default description,yes,<openexp._canvas.legacy.Legacy object at 0x05CB88D0>,<openexp._canvas.legacy.Legacy object at 0x05D4E9F0>,<openexp._canvas.legacy.Legacy object at 0x05CD08F0>,<openexp._canvas.legacy.Legacy object at 0x05B32930>,<openexp._canvas.legacy.Legacy object at 0x05B22190>,<openexp._canvas.legacy.Legacy object at 0x05CAC290>,<openexp._canvas.legacy.Legacy object at 0x05CB8F70>,<openexp._canvas.legacy.Legacy object at 0x05B87E90>,75,SpatProbMultiple3.osexp,C:/Userdata/Michel/SpatProbMultiple3,no,mono,no,18,no,white,no,yes,0.09,98,1050,legacy,315,15,15,1,C:/Userdata/Michel/SpatProbMultiple3/beh/subject-9.csv,legacy,12,192,25,Kafkaesque Koffka,3.2.5,yes,598477b2b83f69022949e7e9,47,green,circular,red,circular,0,/,638,space,4134,4134,"(80, 80, 80)","(0, 123, 0)","(177, 0, 0)","(155, 155, 155)",2,legacy,experiment,"[0, 1, 2, 3, 4, 5, 6, 7]",/,2500,3000,0,8,252.7587515,1024,2,48000,-16,main,"[(0, -252), (178, -178), (252, 0), (178, 178), (0, 252), (-178, 178), (-252, 0), (-178, -178)]",[],33,odd,1,NA,95992,148163,148163,24864,23855,1924,29705,29704,1924,1924,28998,195902,1923,148163,195260,194473,194473,NA,778,study_X,0,4134,1,yes,1680
undefined,undefined,NA,NA,NA,4134,4134,black,no,legacy,legacy,legacy,0,red,"(177, 0, 0)",shape,present,highProb,rectangular,swap,swap,same,same,red,"(177, 0, 0)",lowProb,lowProb1,circular,uniform,1,undefined,0,0.078125,1,1,124.8385417,1,15,23969,0,0,0,0,0,0,0,0,42,0,1,0.078125,124.8385417,15,23969,41,41,41,11/21/2018 14:16,Default description,yes,<openexp._canvas.legacy.Legacy object at 0x05CB88D0>,<openexp._canvas.legacy.Legacy object at 0x05D4E9F0>,<openexp._canvas.legacy.Legacy object at 0x05CD08F0>,<openexp._canvas.legacy.Legacy object at 0x05B32930>,<openexp._canvas.legacy.Legacy object at 0x05B22190>,<openexp._canvas.legacy.Legacy object at 0x05CAC290>,<openexp._canvas.legacy.Legacy object at 0x05D449F0>,<openexp._canvas.legacy.Legacy object at 0x05B87E90>,75,SpatProbMultiple3.osexp,C:/Userdata/Michel/SpatProbMultiple3,no,mono,no,18,no,white,no,yes,0.09,98,1050,legacy,45,16,16,1,C:/Userdata/Michel/SpatProbMultiple3/beh/subject-9.csv,legacy,12,192,25,Kafkaesque Koffka,3.2.5,yes,598477b2b83f69022949e7e9,47,red,rectangular,red,circular,0,\,897,space,4134,4134,"(80, 80, 80)","(0, 123, 0)","(177, 0, 0)","(155, 155, 155)",2,legacy,experiment,"[0, 1, 2, 3, 4, 5, 6, 7]",\,2500,3000,0,8,252.7587515,1024,2,48000,-16,main,"[(0, -252), (178, -178), (252, 0), (178, 178), (0, 252), (-178, 178), (-252, 0), (-178, -178)]",[],33,odd,1,NA,95992,148163,148163,24864,23855,1924,29705,29704,1924,1924,28998,198014,1923,148163,197113,196326,196326,NA,778,study_X,0,4134,1,yes,1680
undefined,undefined,NA,NA,NA,4134,4134,black,no,legacy,legacy,legacy,0,green,"(0, 123, 0)",shape,absent,lowProb3,circular,swap,swap,swap,same,green,"(0, 123, 0)",lowProb,lowProb5,circular,uniform,1,undefined,0,0.083333333,1,1,135.109375,1,16,25941,0,0,0,0,0,0,0,0,43,0,1,0.083333333,135.109375,16,25941,42,42,42,11/21/2018 14:16,Default description,yes,<openexp._canvas.legacy.Legacy object at 0x05CB88D0>,<openexp._canvas.legacy.Legacy object at 0x05D4E9F0>,<openexp._canvas.legacy.Legacy object at 0x05CD08F0>,<openexp._canvas.legacy.Legacy object at 0x05B32930>,<openexp._canvas.legacy.Legacy object at 0x05B22190>,<openexp._canvas.legacy.Legacy object at 0x05CAC290>,<openexp._canvas.legacy.Legacy object at 0x05D518D0>,<openexp._canvas.legacy.Legacy object at 0x05B87E90>,75,SpatProbMultiple3.osexp,C:/Userdata/Michel/SpatProbMultiple3,no,mono,no,18,no,white,no,yes,0.09,98,1050,legacy,315,17,17,1,C:/Userdata/Michel/SpatProbMultiple3/beh/subject-9.csv,legacy,12,192,25,Kafkaesque Koffka,3.2.5,yes,598477b2b83f69022949e7e9,47,green,circular,green,circular,0,/,1972,space,4134,4134,"(80, 80, 80)","(0, 123, 0)","(177, 0, 0)","(155, 155, 155)",2,legacy,experiment,"[0, 1, 2, 3, 4, 5, 6, 7]",/,2500,3000,0,8,252.7587515,1024,2,48000,-16,main,"[(0, -252), (178, -178), (252, 0), (178, 178), (0, 252), (-178, 178), (-252, 0), (-178, -178)]",[],33,odd,6,NA,95992,148163,148163,24864,23855,1924,29705,29704,1924,1924,28998,201205,1923,148163,199231,198444,198444,NA,778,study_X,0,4134,1,yes,1680
undefined,undefined,NA,NA,NA,4134,4134,black,no,legacy,legacy,legacy,0,red,"(177, 0, 0)",color,present,highProb,rectangular,swap,swap,same,swap,green,"(0, 123, 0)",lowProb,lowProb5,rectangular,uniform,1,undefined,0,0.088541667,1,1,145.1822917,1,17,27875,0,0,0,0,0,0,0,0,44,0,1,0.088541667,145.1822917,17,27875,43,43,43,11/21/2018 14:16,Default description,yes,<openexp._canvas.legacy.Legacy object at 0x05CB88D0>,<openexp._canvas.legacy.Legacy object at 0x05D4E9F0>,<openexp._canvas.legacy.Legacy object at 0x05CD08F0>,<openexp._canvas.legacy.Legacy object at 0x05B32930>,<openexp._canvas.legacy.Legacy object at 0x05B22190>,<openexp._canvas.legacy.Legacy object at 0x05CAC290>,<openexp._canvas.legacy.Legacy object at 0x05D1D330>,<openexp._canvas.legacy.Legacy object at 0x05B87E90>,75,SpatProbMultiple3.osexp,C:/Userdata/Michel/SpatProbMultiple3,no,mono,no,18,no,white,no,yes,0.09,98,1050,legacy,315,18,18,1,C:/Userdata/Michel/SpatProbMultiple3/beh/subject-9.csv,legacy,12,192,25,Kafkaesque Koffka,3.2.5,yes,598477b2b83f69022949e7e9,47,red,rectangular,green,rectangular,0,/,1934,space,4134,4134,"(80, 80, 80)","(0, 123, 0)","(177, 0, 0)","(155, 155, 155)",2,legacy,experiment,"[0, 1, 2, 3, 4, 5, 6, 7]",/,2500,3000,0,8,252.7587515,1024,2,48000,-16,main,"[(0, -252), (178, -178), (252, 0), (178, 178), (0, 252), (-178, 178), (-252, 0), (-178, -178)]",[],33,odd,6,NA,95992,148163,148163,24864,23855,1924,29705,29704,1924,1924,28998,204357,1923,148163,202420,201633,201633,NA,778,study_X,0,4134,1,yes,1680
undefined,undefined,NA,NA,NA,4134,4134,black,no,legacy,legacy,legacy,0,red,"(177, 0, 0)",shape,absent,highProb,rectangular,same,same,swap,same,red,"(177, 0, 0)",lowProb,lowProb1,rectangular,uniform,1,undefined,0,0.09375,1,1,150.1822917,1,18,28835,0,0,0,0,0,0,0,0,45,0,1,0.09375,150.1822917,18,28835,44,44,44,11/21/2018 14:16,Default description,yes,<openexp._canvas.legacy.Legacy object at 0x05CB88D0>,<openexp._canvas.legacy.Legacy object at 0x05D4E9F0>,<openexp._canvas.legacy.Legacy object at 0x05CD08F0>,<openexp._canvas.legacy.Legacy object at 0x05B32930>,<openexp._canvas.legacy.Legacy object at 0x05B22190>,<openexp._canvas.legacy.Legacy object at 0x05CAC290>,<openexp._canvas.legacy.Legacy object at 0x05CD0870>,<openexp._canvas.legacy.Legacy object at 0x05B87E90>,75,SpatProbMultiple3.osexp,C:/Userdata/Michel/SpatProbMultiple3,no,mono,no,18,no,white,no,yes,0.09,98,1050,legacy,45,19,19,1,C:/Userdata/Michel/SpatProbMultiple3/beh/subject-9.csv,legacy,12,192,25,Kafkaesque Koffka,3.2.5,yes,598477b2b83f69022949e7e9,47,red,rectangular,red,rectangular,0,\,960,space,4134,4134,"(80, 80, 80)","(0, 123, 0)","(177, 0, 0)","(155, 155, 155)",2,legacy,experiment,"[0, 1, 2, 3, 4, 5, 6, 7]",\,2500,3000,0,8,252.7587515,1024,2,48000,-16,main,"[(0, -252), (178, -178), (252, 0), (178, 178), (0, 252), (-178, 178), (-252, 0), (-178, -178)]",[],33,odd,1,NA,95992,148163,148163,24864,23855,1924,29705,29704,1924,1924,28998,206533,1923,148163,205570,204783,204783,NA,778,study_X,0,4134,1,yes,1680
undefined,undefined,NA,NA,NA,4134,4134,black,no,legacy,legacy,legacy,0,green,"(0, 123, 0)",shape,present,highProbOther,rectangular,swap,same,swap,swap,green,"(0, 123, 0)",lowProb,lowProb4,circular,uniform,1,undefined,0,0.098958333,1,1,157.6510417,1,19,30269,0,0,0,0,0,0,0,0,46,0,1,0.098958333,157.6510417,19,30269,45,45,45,11/21/2018 14:16,Default description,yes,<openexp._canvas.legacy.Legacy object at 0x05CB88D0>,<openexp._canvas.legacy.Legacy object at 0x05D4E9F0>,<openexp._canvas.legacy.Legacy object at 0x05CD08F0>,<openexp._canvas.legacy.Legacy object at 0x05B32930>,<openexp._canvas.legacy.Legacy object at 0x05B22190>,<openexp._canvas.legacy.Legacy object at 0x05CAC290>,<openexp._canvas.legacy.Legacy object at 0x05D1DF70>,<openexp._canvas.legacy.Legacy object at 0x05B87E90>,75,SpatProbMultiple3.osexp,C:/Userdata/Michel/SpatProbMultiple3,no,mono,no,18,no,white,no,yes,0.09,98,1050,legacy,315,20,20,1,C:/Userdata/Michel/SpatProbMultiple3/beh/subject-9.csv,legacy,12,192,25,Kafkaesque Koffka,3.2.5,yes,598477b2b83f69022949e7e9,47,green,rectangular,green,circular,0,/,1434,space,4134,4134,"(80, 80, 80)","(0, 123, 0)","(177, 0, 0)","(155, 155, 155)",2,legacy,experiment,"[0, 1, 2, 3, 4, 5, 6, 7]",/,2500,3000,0,8,252.7587515,1024,2,48000,-16,main,"[(0, -252), (178, -178), (252, 0), (178, 178), (0, 252), (-178, 178), (-252, 0), (-178, -178)]",[],33,odd,5,NA,95992,148163,148163,24864,23855,1924,29705,29704,1924,1924,28998,209213,1923,148163,207775,206987,206987,NA,778,study_X,0,4134,1,yes,1680
undefined,undefined,NA,NA,NA,4134,4134,black,no,legacy,legacy,legacy,0,green,"(0, 123, 0)",shape,present,highProbOther,rectangular,same,same,same,same,green,"(0, 123, 0)",highProbShape,highProbShape,circular,uniform,1,undefined,0,0.104166667,1,1,164.8020833,1,20,31642,0,0,0,0,0,0,0,0,47,0,1,0.104166667,164.8020833,20,31642,46,46,46,11/21/2018 14:16,Default description,yes,<openexp._canvas.legacy.Legacy object at 0x05CB88D0>,<openexp._canvas.legacy.Legacy object at 0x05D4E9F0>,<openexp._canvas.legacy.Legacy object at 0x05CD08F0>,<openexp._canvas.legacy.Legacy object at 0x05B32930>,<openexp._canvas.legacy.Legacy object at 0x05B22190>,<openexp._canvas.legacy.Legacy object at 0x05CAC290>,<openexp._canvas.legacy.Legacy object at 0x05D4E810>,<openexp._canvas.legacy.Legacy object at 0x05B87E90>,75,SpatProbMultiple3.osexp,C:/Userdata/Michel/SpatProbMultiple3,no,mono,no,18,no,white,no,yes,0.09,98,1050,legacy,315,21,21,1,C:/Userdata/Michel/SpatProbMultiple3/beh/subject-9.csv,legacy,12,192,25,Kafkaesque Koffka,3.2.5,yes,598477b2b83f69022949e7e9,47,green,rectangular,green,circular,0,/,1373,space,4134,4134,"(80, 80, 80)","(0, 123, 0)","(177, 0, 0)","(155, 155, 155)",2,legacy,experiment,"[0, 1, 2, 3, 4, 5, 6, 7]",/,2500,3000,0,8,252.7587515,1024,2,48000,-16,main,"[(0, -252), (178, -178), (252, 0), (178, 178), (0, 252), (-178, 178), (-252, 0), (-178, -178)]",[],33,odd,4,NA,95992,148163,148163,24864,23855,1924,29705,29704,1924,1924,28998,211806,1923,148163,210429,209641,209641,NA,778,study_X,0,4134,1,yes,1680
undefined,undefined,NA,NA,NA,4134,4134,black,no,legacy,legacy,legacy,0,red,"(177, 0, 0)",color,present,highProb,circular,swap,swap,same,same,green,"(0, 123, 0)",lowProb,lowProb6,circular,uniform,1,undefined,0,0.109375,1,1,174.71875,1,21,33546,0,0,0,0,0,0,0,0,48,0,1,0.109375,174.71875,21,33546,47,47,47,11/21/2018 14:16,Default description,yes,<openexp._canvas.legacy.Legacy object at 0x05CB88D0>,<openexp._canvas.legacy.Legacy object at 0x05D4E9F0>,<openexp._canvas.legacy.Legacy object at 0x05CD08F0>,<openexp._canvas.legacy.Legacy object at 0x05B32930>,<openexp._canvas.legacy.Legacy object at 0x05B22190>,<openexp._canvas.legacy.Legacy object at 0x05CAC290>,<openexp._canvas.legacy.Legacy object at 0x05D44B30>,<openexp._canvas.legacy.Legacy object at 0x05B87E90>,75,SpatProbMultiple3.osexp,C:/Userdata/Michel/SpatProbMultiple3,no,mono,no,18,no,white,no,yes,0.09,98,1050,legacy,45,22,22,1,C:/Userdata/Michel/SpatProbMultiple3/beh/subject-9.csv,legacy,12,192,25,Kafkaesque Koffka,3.2.5,yes,598477b2b83f69022949e7e9,47,red,circular,green,circular,0,\,1904,space,4134,4134,"(80, 80, 80)","(0, 123, 0)","(177, 0, 0)","(155, 155, 155)",2,legacy,experiment,"[0, 1, 2, 3, 4, 5, 6, 7]",\,2500,3000,0,8,252.7587515,1024,2,48000,-16,main,"[(0, -252), (178, -178), (252, 0), (178, 178), (0, 252), (-178, 178), (-252, 0), (-178, -178)]",[],33,odd,7,NA,95992,148163,148163,24864,23855,1924,29705,29704,1924,1924,28998,214925,1923,148163,213018,212232,212232,NA,778,study_X,0,4134,1,yes,1680
undefined,undefined,NA,NA,NA,4134,4134,black,no,legacy,legacy,legacy,0,red,"(177, 0, 0)",shape,present,highProb,circular,same,same,swap,swap,red,"(177, 0, 0)",lowProb,lowProb4,rectangular,uniform,1,undefined,0,0.114583333,1,1,182.2708333,1,22,34996,0,0,0,0,0,0,0,0,49,0,1,0.114583333,182.2708333,22,34996,48,48,48,11/21/2018 14:16,Default description,yes,<openexp._canvas.legacy.Legacy object at 0x05CB88D0>,<openexp._canvas.legacy.Legacy object at 0x05D4E9F0>,<openexp._canvas.legacy.Legacy object at 0x05CD08F0>,<openexp._canvas.legacy.Legacy object at 0x05B32930>,<openexp._canvas.legacy.Legacy object at 0x05B22190>,<openexp._canvas.legacy.Legacy object at 0x05CAC290>,<openexp._canvas.legacy.Legacy object at 0x05D1DF70>,<openexp._canvas.legacy.Legacy object at 0x05B87E90>,75,SpatProbMultiple3.osexp,C:/Userdata/Michel/SpatProbMultiple3,no,mono,no,18,no,white,no,yes,0.09,98,1050,legacy,315,23,23,1,C:/Userdata/Michel/SpatProbMultiple3/beh/subject-9.csv,legacy,12,192,25,Kafkaesque Koffka,3.2.5,yes,598477b2b83f69022949e7e9,47,red,circular,red,rectangular,0,/,1450,space,4134,4134,"(80, 80, 80)","(0, 123, 0)","(177, 0, 0)","(155, 155, 155)",2,legacy,experiment,"[0, 1, 2, 3, 4, 5, 6, 7]",/,2500,3000,0,8,252.7587515,1024,2,48000,-16,main,"[(0, -252), (178, -178), (252, 0), (178, 178), (0, 252), (-178, 178), (-252, 0), (-178, -178)]",[],33,odd,5,NA,95992,148163,148163,24864,23855,1924,29705,29704,1924,1924,28998,217589,1923,148163,216136,215349,215349,NA,778,study_X,0,4134,1,yes,1680
undefined,undefined,NA,NA,NA,4134,4134,black,no,legacy,legacy,legacy,0,red,"(177, 0, 0)",shape,present,highProb,circular,same,same,same,same,red,"(177, 0, 0)",lowProb,lowProb6,rectangular,uniform,1,undefined,0,0.119791667,1,1,187.7395833,1,23,36046,0,0,0,0,0,0,0,0,50,0,1,0.119791667,187.7395833,23,36046,49,49,49,11/21/2018 14:16,Default description,yes,<openexp._canvas.legacy.Legacy object at 0x05CB88D0>,<openexp._canvas.legacy.Legacy object at 0x05D4E9F0>,<openexp._canvas.legacy.Legacy object at 0x05CD08F0>,<openexp._canvas.legacy.Legacy object at 0x05B32930>,<openexp._canvas.legacy.Legacy object at 0x05B22190>,<openexp._canvas.legacy.Legacy object at 0x05CAC290>,<openexp._canvas.legacy.Legacy object at 0x05D4EC50>,<openexp._canvas.legacy.Legacy object at 0x05B87E90>,75,SpatProbMultiple3.osexp,C:/Userdata/Michel/SpatProbMultiple3,no,mono,no,18,no,white,no,yes,0.09,98,1050,legacy,315,24,24,1,C:/Userdata/Michel/SpatProbMultiple3/beh/subject-9.csv,legacy,12,192,25,Kafkaesque Koffka,3.2.5,yes,598477b2b83f69022949e7e9,47,red,circular,red,rectangular,0,/,1050,space,4134,4134,"(80, 80, 80)","(0, 123, 0)","(177, 0, 0)","(155, 155, 155)",2,legacy,experiment,"[0, 1, 2, 3, 4, 5, 6, 7]",/,2500,3000,0,8,252.7587515,1024,2,48000,-16,main,"[(0, -252), (178, -178), (252, 0), (178, 178), (0, 252), (-178, 178), (-252, 0), (-178, -178)]",[],33,odd,7,NA,95992,148163,148163,24864,23855,1924,29705,29704,1924,1924,28998,219861,1923,148163,218808,218021,218021,NA,778,study_X,0,4134,1,yes,1680
undefined,undefined,NA,NA,NA,4134,4134,black,no,legacy,legacy,legacy,0,green,"(0, 123, 0)",color,present,highProb,rectangular,swap,swap,same,same,red,"(177, 0, 0)",lowProb,lowProb5,rectangular,uniform,1,undefined,0,0.125,1,1,198.4739583,1,24,38107,0,0,0,0,0,0,0,0,51,0,1,0.125,198.4739583,24,38107,50,50,50,11/21/2018 14:16,Default description,yes,<openexp._canvas.legacy.Legacy object at 0x05CB88D0>,<openexp._canvas.legacy.Legacy object at 0x05D4E9F0>,<openexp._canvas.legacy.Legacy object at 0x05CD08F0>,<openexp._canvas.legacy.Legacy object at 0x05B32930>,<openexp._canvas.legacy.Legacy object at 0x05B22190>,<openexp._canvas.legacy.Legacy object at 0x05CAC290>,<openexp._canvas.legacy.Legacy object at 0x05D44C90>,<openexp._canvas.legacy.Legacy object at 0x05B87E90>,75,SpatProbMultiple3.osexp,C:/Userdata/Michel/SpatProbMultiple3,no,mono,no,18,no,white,no,yes,0.09,98,1050,legacy,315,25,25,1,C:/Userdata/Michel/SpatProbMultiple3/beh/subject-9.csv,legacy,12,192,25,Kafkaesque Koffka,3.2.5,yes,598477b2b83f69022949e7e9,47,green,rectangular,red,rectangular,0,/,2061,space,4134,4134,"(80, 80, 80)","(0, 123, 0)","(177, 0, 0)","(155, 155, 155)",2,legacy,experiment,"[0, 1, 2, 3, 4, 5, 6, 7]",/,2500,3000,0,8,252.7587515,1024,2,48000,-16,main,"[(0, -252), (178, -178), (252, 0), (178, 178), (0, 252), (-178, 178), (-252, 0), (-178, -178)]",[],33,odd,6,NA,95992,148163,148163,24864,23855,1924,29705,29704,1924,1924,28998,223149,1923,148163,221086,220298,220298,NA,778,study_X,0,4134,1,yes,1680
undefined,undefined,NA,NA,NA,4134,4134,black,no,legacy,legacy,legacy,0,red,"(177, 0, 0)",color,present,lowProb6,circular,swap,swap,swap,swap,green,"(0, 123, 0)",lowProb,lowProb2,circular,uniform,1,undefined,0,0.130208333,1,1,207.4635417,1,25,39833,0,0,0,0,0,0,0,0,52,0,1,0.130208333,207.4635417,25,39833,51,51,51,11/21/2018 14:16,Default description,yes,<openexp._canvas.legacy.Legacy object at 0x05CB88D0>,<openexp._canvas.legacy.Legacy object at 0x05D4E9F0>,<openexp._canvas.legacy.Legacy object at 0x05CD08F0>,<openexp._canvas.legacy.Legacy object at 0x05B32930>,<openexp._canvas.legacy.Legacy object at 0x05B22190>,<openexp._canvas.legacy.Legacy object at 0x05CAC290>,<openexp._canvas.legacy.Legacy object at 0x05CB8610>,<openexp._canvas.legacy.Legacy object at 0x05B87E90>,75,SpatProbMultiple3.osexp,C:/Userdata/Michel/SpatProbMultiple3,no,mono,no,18,no,white,no,yes,0.09,98,1050,legacy,45,26,26,1,C:/Userdata/Michel/SpatProbMultiple3/beh/subject-9.csv,legacy,12,192,25,Kafkaesque Koffka,3.2.5,yes,598477b2b83f69022949e7e9,47,red,circular,green,circular,0,\,1726,space,4134,4134,"(80, 80, 80)","(0, 123, 0)","(177, 0, 0)","(155, 155, 155)",2,legacy,experiment,"[0, 1, 2, 3, 4, 5, 6, 7]",\,2500,3000,0,8,252.7587515,1024,2,48000,-16,main,"[(0, -252), (178, -178), (252, 0), (178, 178), (0, 252), (-178, 178), (-252, 0), (-178, -178)]",[],33,odd,2,NA,95992,148163,148163,24864,23855,1924,29705,29704,1924,1924,28998,226085,1923,148163,224356,223569,223569,NA,778,study_X,0,4134,1,yes,1680
undefined,undefined,NA,NA,NA,4134,4134,black,no,legacy,legacy,legacy,0,green,"(0, 123, 0)",color,present,lowProb6,circular,swap,same,swap,same,red,"(177, 0, 0)",lowProb,lowProb5,circular,uniform,1,undefined,0,0.135416667,1,1,213.8229167,1,26,41054,0,0,0,0,0,0,0,0,53,0,1,0.135416667,213.8229167,26,41054,52,52,52,11/21/2018 14:16,Default description,yes,<openexp._canvas.legacy.Legacy object at 0x05CB88D0>,<openexp._canvas.legacy.Legacy object at 0x05D4E9F0>,<openexp._canvas.legacy.Legacy object at 0x05CD08F0>,<openexp._canvas.legacy.Legacy object at 0x05B32930>,<openexp._canvas.legacy.Legacy object at 0x05B22190>,<openexp._canvas.legacy.Legacy object at 0x05CAC290>,<openexp._canvas.legacy.Legacy object at 0x05D4E8F0>,<openexp._canvas.legacy.Legacy object at 0x05B87E90>,75,SpatProbMultiple3.osexp,C:/Userdata/Michel/SpatProbMultiple3,no,mono,no,18,no,white,no,yes,0.09,98,1050,legacy,45,27,27,1,C:/Userdata/Michel/SpatProbMultiple3/beh/subject-9.csv,legacy,12,192,25,Kafkaesque Koffka,3.2.5,yes,598477b2b83f69022949e7e9,47,green,circular,red,circular,0,\,1221,space,4134,4134,"(80, 80, 80)","(0, 123, 0)","(177, 0, 0)","(155, 155, 155)",2,legacy,experiment,"[0, 1, 2, 3, 4, 5, 6, 7]",\,2500,3000,0,8,252.7587515,1024,2,48000,-16,main,"[(0, -252), (178, -178), (252, 0), (178, 178), (0, 252), (-178, 178), (-252, 0), (-178, -178)]",[],33,odd,6,NA,95992,148163,148163,24864,23855,1924,29705,29704,1924,1924,28998,228526,1923,148163,227302,226513,226513,NA,778,study_X,0,4134,1,yes,1680
undefined,undefined,NA,NA,NA,4134,4134,black,no,legacy,legacy,legacy,0,green,"(0, 123, 0)",shape,present,highProb,circular,same,same,swap,swap,green,"(0, 123, 0)",lowProb,lowProb2,rectangular,uniform,1,undefined,0,0.140625,1,1,220.9375,1,27,42420,0,0,0,0,0,0,0,0,54,0,1,0.140625,220.9375,27,42420,53,53,53,11/21/2018 14:16,Default description,yes,<openexp._canvas.legacy.Legacy object at 0x05CB88D0>,<openexp._canvas.legacy.Legacy object at 0x05D4E9F0>,<openexp._canvas.legacy.Legacy object at 0x05CD08F0>,<openexp._canvas.legacy.Legacy object at 0x05B32930>,<openexp._canvas.legacy.Legacy object at 0x05B22190>,<openexp._canvas.legacy.Legacy object at 0x05CAC290>,<openexp._canvas.legacy.Legacy object at 0x05CB8E50>,<openexp._canvas.legacy.Legacy object at 0x05B87E90>,75,SpatProbMultiple3.osexp,C:/Userdata/Michel/SpatProbMultiple3,no,mono,no,18,no,white,no,yes,0.09,98,1050,legacy,315,28,28,1,C:/Userdata/Michel/SpatProbMultiple3/beh/subject-9.csv,legacy,12,192,25,Kafkaesque Koffka,3.2.5,yes,598477b2b83f69022949e7e9,47,green,circular,green,rectangular,0,/,1366,space,4134,4134,"(80, 80, 80)","(0, 123, 0)","(177, 0, 0)","(155, 155, 155)",2,legacy,experiment,"[0, 1, 2, 3, 4, 5, 6, 7]",/,2500,3000,0,8,252.7587515,1024,2,48000,-16,main,"[(0, -252), (178, -178), (252, 0), (178, 178), (0, 252), (-178, 178), (-252, 0), (-178, -178)]",[],33,odd,2,NA,95992,148163,148163,24864,23855,1924,29705,29704,1924,1924,28998,231109,1923,148163,229740,228952,228952,NA,778,study_X,0,4134,1,yes,1680
undefined,undefined,NA,NA,NA,4134,4134,black,no,legacy,legacy,legacy,0,red,"(177, 0, 0)",shape,present,highProb,rectangular,swap,swap,swap,swap,red,"(177, 0, 0)",lowProb,lowProb2,circular,uniform,1,undefined,0,0.145833333,1,1,225.28125,1,28,43254,0,0,0,0,0,0,0,0,55,0,1,0.145833333,225.28125,28,43254,54,54,54,11/21/2018 14:16,Default description,yes,<openexp._canvas.legacy.Legacy object at 0x05CB88D0>,<openexp._canvas.legacy.Legacy object at 0x05D4E9F0>,<openexp._canvas.legacy.Legacy object at 0x05CD08F0>,<openexp._canvas.legacy.Legacy object at 0x05B32930>,<openexp._canvas.legacy.Legacy object at 0x05B22190>,<openexp._canvas.legacy.Legacy object at 0x05CAC290>,<openexp._canvas.legacy.Legacy object at 0x05CB8D90>,<openexp._canvas.legacy.Legacy object at 0x05B87E90>,75,SpatProbMultiple3.osexp,C:/Userdata/Michel/SpatProbMultiple3,no,mono,no,18,no,white,no,yes,0.09,98,1050,legacy,45,29,29,1,C:/Userdata/Michel/SpatProbMultiple3/beh/subject-9.csv,legacy,12,192,25,Kafkaesque Koffka,3.2.5,yes,598477b2b83f69022949e7e9,47,red,rectangular,red,circular,0,\,834,space,4134,4134,"(80, 80, 80)","(0, 123, 0)","(177, 0, 0)","(155, 155, 155)",2,legacy,experiment,"[0, 1, 2, 3, 4, 5, 6, 7]",\,2500,3000,0,8,252.7587515,1024,2,48000,-16,main,"[(0, -252), (178, -178), (252, 0), (178, 178), (0, 252), (-178, 178), (-252, 0), (-178, -178)]",[],33,odd,2,NA,95992,148163,148163,24864,23855,1924,29705,29704,1924,1924,28998,233165,1923,148163,232329,231541,231541,NA,778,study_X,0,4134,1,yes,1680
undefined,undefined,NA,NA,NA,4134,4134,black,no,legacy,legacy,legacy,0,green,"(0, 123, 0)",shape,present,lowProb1,rectangular,swap,same,swap,same,green,"(0, 123, 0)",lowProb,lowProb2,circular,uniform,1,undefined,0,0.151041667,1,1,230.4322917,1,29,44243,0,0,0,0,0,0,0,0,56,0,1,0.151041667,230.4322917,29,44243,55,55,55,11/21/2018 14:16,Default description,yes,<openexp._canvas.legacy.Legacy object at 0x05CB88D0>,<openexp._canvas.legacy.Legacy object at 0x05D4E9F0>,<openexp._canvas.legacy.Legacy object at 0x05CD08F0>,<openexp._canvas.legacy.Legacy object at 0x05B32930>,<openexp._canvas.legacy.Legacy object at 0x05B22190>,<openexp._canvas.legacy.Legacy object at 0x05CAC290>,<openexp._canvas.legacy.Legacy object at 0x05D1DA30>,<openexp._canvas.legacy.Legacy object at 0x05B87E90>,75,SpatProbMultiple3.osexp,C:/Userdata/Michel/SpatProbMultiple3,no,mono,no,18,no,white,no,yes,0.09,98,1050,legacy,315,30,30,1,C:/Userdata/Michel/SpatProbMultiple3/beh/subject-9.csv,legacy,12,192,25,Kafkaesque Koffka,3.2.5,yes,598477b2b83f69022949e7e9,47,green,rectangular,green,circular,0,/,989,space,4134,4134,"(80, 80, 80)","(0, 123, 0)","(177, 0, 0)","(155, 155, 155)",2,legacy,experiment,"[0, 1, 2, 3, 4, 5, 6, 7]",/,2500,3000,0,8,252.7587515,1024,2,48000,-16,main,"[(0, -252), (178, -178), (252, 0), (178, 178), (0, 252), (-178, 178), (-252, 0), (-178, -178)]",[],33,odd,2,NA,95992,148163,148163,24864,23855,1924,29705,29704,1924,1924,28998,235373,1923,148163,234381,233594,233594,NA,778,study_X,0,4134,1,yes,1680
undefined,undefined,NA,NA,NA,4134,4134,black,no,legacy,legacy,legacy,0,green,"(0, 123, 0)",color,present,lowProb2,rectangular,same,same,swap,swap,red,"(177, 0, 0)",lowProb,lowProb5,rectangular,uniform,1,undefined,0,0.15625,1,1,239.265625,1,30,45939,0,0,0,0,0,0,0,0,57,0,1,0.15625,239.265625,30,45939,56,56,56,11/21/2018 14:16,Default description,yes,<openexp._canvas.legacy.Legacy object at 0x05CB88D0>,<openexp._canvas.legacy.Legacy object at 0x05D4E9F0>,<openexp._canvas.legacy.Legacy object at 0x05CD08F0>,<openexp._canvas.legacy.Legacy object at 0x05B32930>,<openexp._canvas.legacy.Legacy object at 0x05B22190>,<openexp._canvas.legacy.Legacy object at 0x05CAC290>,<openexp._canvas.legacy.Legacy object at 0x05B37BF0>,<openexp._canvas.legacy.Legacy object at 0x05B87E90>,75,SpatProbMultiple3.osexp,C:/Userdata/Michel/SpatProbMultiple3,no,mono,no,18,no,white,no,yes,0.09,98,1050,legacy,45,31,31,1,C:/Userdata/Michel/SpatProbMultiple3/beh/subject-9.csv,legacy,12,192,25,Kafkaesque Koffka,3.2.5,yes,598477b2b83f69022949e7e9,47,green,rectangular,red,rectangular,0,\,1696,space,4134,4134,"(80, 80, 80)","(0, 123, 0)","(177, 0, 0)","(155, 155, 155)",2,legacy,experiment,"[0, 1, 2, 3, 4, 5, 6, 7]",\,2500,3000,0,8,252.7587515,1024,2,48000,-16,main,"[(0, -252), (178, -178), (252, 0), (178, 178), (0, 252), (-178, 178), (-252, 0), (-178, -178)]",[],33,odd,6,NA,95992,148163,148163,24864,23855,1924,29705,29704,1924,1924,28998,238293,1923,148163,236594,235806,235806,NA,778,study_X,0,4134,1,yes,1680
undefined,undefined,NA,NA,NA,4134,4134,black,no,legacy,legacy,legacy,0,green,"(0, 123, 0)",color,present,highProb,circular,same,swap,same,swap,red,"(177, 0, 0)",lowProb,lowProb4,circular,uniform,0,undefined,0,0.15625,1,1,246.6666667,1,30,47360,0,0,0,0,0,0,0,0,58,0,1,0.15625,246.6666667,30,47360,57,57,57,11/21/2018 14:16,Default description,yes,<openexp._canvas.legacy.Legacy object at 0x05CB88D0>,<openexp._canvas.legacy.Legacy object at 0x05D4E9F0>,<openexp._canvas.legacy.Legacy object at 0x05CD08F0>,<openexp._canvas.legacy.Legacy object at 0x05B32930>,<openexp._canvas.legacy.Legacy object at 0x05B22190>,<openexp._canvas.legacy.Legacy object at 0x05CAC290>,<openexp._canvas.legacy.Legacy object at 0x05CB82F0>,<openexp._canvas.legacy.Legacy object at 0x05B87E90>,75,SpatProbMultiple3.osexp,C:/Userdata/Michel/SpatProbMultiple3,no,mono,no,18,no,white,no,yes,0.09,98,1050,legacy,315,32,32,1,C:/Userdata/Michel/SpatProbMultiple3/beh/subject-9.csv,legacy,12,192,25,Kafkaesque Koffka,3.2.5,yes,598477b2b83f69022949e7e9,47,green,circular,red,circular,0,\,1421,space,4134,4134,"(80, 80, 80)","(0, 123, 0)","(177, 0, 0)","(155, 155, 155)",2,legacy,experiment,"[0, 1, 2, 3, 4, 5, 6, 7]",/,2500,3000,0,8,252.7587515,1024,2,48000,-16,main,"[(0, -252), (178, -178), (252, 0), (178, 178), (0, 252), (-178, 178), (-252, 0), (-178, -178)]",[],33,odd,5,NA,95992,148163,148163,24864,23855,1924,29705,29704,1924,1924,28998,240933,1923,148163,239509,238722,238722,NA,778,study_X,0,4134,1,yes,1680
undefined,undefined,NA,NA,NA,4134,4134,black,no,legacy,legacy,legacy,0,red,"(177, 0, 0)",shape,present,highProb,rectangular,swap,swap,same,same,red,"(177, 0, 0)",highProbColor,highProbColor,circular,uniform,0,undefined,0,0.15625,1,1,259.6875,1,30,49860,0,0,0,0,0,0,0,0,59,0,1,0.15625,259.6875,30,49860,58,58,58,11/21/2018 14:16,Default description,yes,<openexp._canvas.legacy.Legacy object at 0x05CB88D0>,<openexp._canvas.legacy.Legacy object at 0x05D4E9F0>,<openexp._canvas.legacy.Legacy object at 0x05CD08F0>,<openexp._canvas.legacy.Legacy object at 0x05B32930>,<openexp._canvas.legacy.Legacy object at 0x05B22190>,<openexp._canvas.legacy.Legacy object at 0x05CAC290>,<openexp._canvas.legacy.Legacy object at 0x05CC42F0>,<openexp._canvas.legacy.Legacy object at 0x05B87E90>,75,SpatProbMultiple3.osexp,C:/Userdata/Michel/SpatProbMultiple3,no,mono,no,18,no,white,no,yes,0.09,98,1050,legacy,315,33,33,1,C:/Userdata/Michel/SpatProbMultiple3/beh/subject-9.csv,legacy,12,192,25,Kafkaesque Koffka,3.2.5,yes,598477b2b83f69022949e7e9,47,red,rectangular,red,circular,0,None,2500,space,4134,4134,"(80, 80, 80)","(0, 123, 0)","(177, 0, 0)","(155, 155, 155)",2,legacy,experiment,"[0, 1, 2, 3, 4, 5, 6, 7]",/,2500,3000,0,8,252.7587515,1024,2,48000,-16,main,"[(0, -252), (178, -178), (252, 0), (178, 178), (0, 252), (-178, 178), (-252, 0), (-178, -178)]",[],33,odd,0,NA,95992,148163,148163,24864,23855,1924,29705,29704,1924,1924,28998,244651,1923,148163,242149,241363,241363,NA,778,study_X,0,4134,1,yes,1680
undefined,undefined,NA,NA,NA,4134,4134,black,no,legacy,legacy,legacy,0,red,"(177, 0, 0)",shape,absent,lowProb3,circular,same,swap,same,same,red,"(177, 0, 0)",lowProb,lowProb1,circular,uniform,0,undefined,0,0.15625,1,1,263.7395833,1,30,50638,0,0,0,0,0,0,0,0,60,0,1,0.15625,263.7395833,30,50638,59,59,59,11/21/2018 14:16,Default description,yes,<openexp._canvas.legacy.Legacy object at 0x05CB88D0>,<openexp._canvas.legacy.Legacy object at 0x05D4E9F0>,<openexp._canvas.legacy.Legacy object at 0x05CD08F0>,<openexp._canvas.legacy.Legacy object at 0x05B32930>,<openexp._canvas.legacy.Legacy object at 0x05B22190>,<openexp._canvas.legacy.Legacy object at 0x05CAC290>,<openexp._canvas.legacy.Legacy object at 0x05D1DA30>,<openexp._canvas.legacy.Legacy object at 0x05B87E90>,75,SpatProbMultiple3.osexp,C:/Userdata/Michel/SpatProbMultiple3,no,mono,no,18,no,white,no,yes,0.09,98,1050,legacy,315,34,34,1,C:/Userdata/Michel/SpatProbMultiple3/beh/subject-9.csv,legacy,12,192,25,Kafkaesque Koffka,3.2.5,yes,598477b2b83f69022949e7e9,47,red,circular,red,circular,0,\,778,space,4134,4134,"(80, 80, 80)","(0, 123, 0)","(177, 0, 0)","(155, 155, 155)",2,legacy,experiment,"[0, 1, 2, 3, 4, 5, 6, 7]",/,2500,3000,0,8,252.7587515,1024,2,48000,-16,main,"[(0, -252), (178, -178), (252, 0), (178, 178), (0, 252), (-178, 178), (-252, 0), (-178, -178)]",[],33,odd,1,NA,95992,148163,148163,24864,23855,1924,29705,29704,1924,1924,28998,246653,1923,148163,245872,245085,245085,NA,778,study_X,0,4134,1,yes,1680
undefined,undefined,NA,NA,NA,4134,4134,black,no,legacy,legacy,legacy,0,green,"(0, 123, 0)",color,present,highProb,rectangular,swap,swap,same,swap,red,"(177, 0, 0)",lowProb,lowProb4,rectangular,uniform,1,undefined,0,0.161458333,1,1,269.4114583,1,31,51727,0,0,0,0,0,0,0,0,61,0,1,0.161458333,269.4114583,31,51727,60,60,60,11/21/2018 14:16,Default description,yes,<openexp._canvas.legacy.Legacy object at 0x05CB88D0>,<openexp._canvas.legacy.Legacy object at 0x05D4E9F0>,<openexp._canvas.legacy.Legacy object at 0x05CD08F0>,<openexp._canvas.legacy.Legacy object at 0x05B32930>,<openexp._canvas.legacy.Legacy object at 0x05B22190>,<openexp._canvas.legacy.Legacy object at 0x05CAC290>,<openexp._canvas.legacy.Legacy object at 0x05B37670>,<openexp._canvas.legacy.Legacy object at 0x05B87E90>,75,SpatProbMultiple3.osexp,C:/Userdata/Michel/SpatProbMultiple3,no,mono,no,18,no,white,no,yes,0.09,98,1050,legacy,315,35,35,1,C:/Userdata/Michel/SpatProbMultiple3/beh/subject-9.csv,legacy,12,192,25,Kafkaesque Koffka,3.2.5,yes,598477b2b83f69022949e7e9,47,green,rectangular,red,rectangular,0,/,1089,space,4134,4134,"(80, 80, 80)","(0, 123, 0)","(177, 0, 0)","(155, 155, 155)",2,legacy,experiment,"[0, 1, 2, 3, 4, 5, 6, 7]",/,2500,3000,0,8,252.7587515,1024,2,48000,-16,main,"[(0, -252), (178, -178), (252, 0), (178, 178), (0, 252), (-178, 178), (-252, 0), (-178, -178)]",[],33,odd,5,NA,95992,148163,148163,24864,23855,1924,29705,29704,1924,1924,28998,248965,1923,148163,247873,247086,247086,NA,778,study_X,0,4134,1,yes,1680
undefined,undefined,NA,NA,NA,4134,4134,black,no,legacy,legacy,legacy,0,green,"(0, 123, 0)",color,present,lowProb4,circular,same,swap,same,swap,red,"(177, 0, 0)",lowProb,lowProb2,circular,uniform,1,undefined,0,0.166666667,1,1,277.796875,1,32,53337,0,0,0,0,0,0,0,0,62,0,1,0.166666667,277.796875,32,53337,61,61,61,11/21/2018 14:16,Default description,yes,<openexp._canvas.legacy.Legacy object at 0x05CB88D0>,<openexp._canvas.legacy.Legacy object at 0x05D4E9F0>,<openexp._canvas.legacy.Legacy object at 0x05CD08F0>,<openexp._canvas.legacy.Legacy object at 0x05B32930>,<openexp._canvas.legacy.Legacy object at 0x05B22190>,<openexp._canvas.legacy.Legacy object at 0x05CAC290>,<openexp._canvas.legacy.Legacy object at 0x05D44850>,<openexp._canvas.legacy.Legacy object at 0x05B87E90>,75,SpatProbMultiple3.osexp,C:/Userdata/Michel/SpatProbMultiple3,no,mono,no,18,no,white,no,yes,0.09,98,1050,legacy,45,36,36,1,C:/Userdata/Michel/SpatProbMultiple3/beh/subject-9.csv,legacy,12,192,25,Kafkaesque Koffka,3.2.5,yes,598477b2b83f69022949e7e9,47,green,circular,red,circular,0,\,1610,space,4134,4134,"(80, 80, 80)","(0, 123, 0)","(177, 0, 0)","(155, 155, 155)",2,legacy,experiment,"[0, 1, 2, 3, 4, 5, 6, 7]",\,2500,3000,0,8,252.7587515,1024,2,48000,-16,main,"[(0, -252), (178, -178), (252, 0), (178, 178), (0, 252), (-178, 178), (-252, 0), (-178, -178)]",[],33,odd,2,NA,95992,148163,148163,24864,23855,1924,29705,29704,1924,1924,28998,251797,1923,148163,250185,249397,249397,NA,778,study_X,0,4134,1,yes,1680
undefined,undefined,NA,NA,NA,4134,4134,black,no,legacy,legacy,legacy,0,green,"(0, 123, 0)",color,present,highProb,rectangular,same,swap,same,swap,red,"(177, 0, 0)",lowProb,lowProb6,rectangular,uniform,1,undefined,0,0.171875,1,1,284.4270833,1,33,54610,0,0,0,0,0,0,0,0,63,0,1,0.171875,284.4270833,33,54610,62,62,62,11/21/2018 14:16,Default description,yes,<openexp._canvas.legacy.Legacy object at 0x05CB88D0>,<openexp._canvas.legacy.Legacy object at 0x05D4E9F0>,<openexp._canvas.legacy.Legacy object at 0x05CD08F0>,<openexp._canvas.legacy.Legacy object at 0x05B32930>,<openexp._canvas.legacy.Legacy object at 0x05B22190>,<openexp._canvas.legacy.Legacy object at 0x05CAC290>,<openexp._canvas.legacy.Legacy object at 0x05CD02D0>,<openexp._canvas.legacy.Legacy object at 0x05B87E90>,75,SpatProbMultiple3.osexp,C:/Userdata/Michel/SpatProbMultiple3,no,mono,no,18,no,white,no,yes,0.09,98,1050,legacy,315,37,37,1,C:/Userdata/Michel/SpatProbMultiple3/beh/subject-9.csv,legacy,12,192,25,Kafkaesque Koffka,3.2.5,yes,598477b2b83f69022949e7e9,47,green,rectangular,red,rectangular,0,/,1273,space,4134,4134,"(80, 80, 80)","(0, 123, 0)","(177, 0, 0)","(155, 155, 155)",2,legacy,experiment,"[0, 1, 2, 3, 4, 5, 6, 7]",/,2500,3000,0,8,252.7587515,1024,2,48000,-16,main,"[(0, -252), (178, -178), (252, 0), (178, 178), (0, 252), (-178, 178), (-252, 0), (-178, -178)]",[],33,odd,7,NA,95992,148163,148163,24864,23855,1924,29705,29704,1924,1924,28998,254285,1923,148163,253009,252223,252223,NA,778,study_X,0,4134,1,yes,1680
undefined,undefined,NA,NA,NA,4134,4134,black,no,legacy,legacy,legacy,0,green,"(0, 123, 0)",color,absent,lowProb6,rectangular,same,same,swap,same,green,"(0, 123, 0)",lowProb,lowProb4,rectangular,uniform,1,undefined,0,0.177083333,1,1,288.640625,1,34,55419,0,0,0,0,0,0,0,0,64,0,1,0.177083333,288.640625,34,55419,63,63,63,11/21/2018 14:16,Default description,yes,<openexp._canvas.legacy.Legacy object at 0x05CB88D0>,<openexp._canvas.legacy.Legacy object at 0x05D4E9F0>,<openexp._canvas.legacy.Legacy object at 0x05CD08F0>,<openexp._canvas.legacy.Legacy object at 0x05B32930>,<openexp._canvas.legacy.Legacy object at 0x05B22190>,<openexp._canvas.legacy.Legacy object at 0x05CAC290>,<openexp._canvas.legacy.Legacy object at 0x05CC48B0>,<openexp._canvas.legacy.Legacy object at 0x05B87E90>,75,SpatProbMultiple3.osexp,C:/Userdata/Michel/SpatProbMultiple3,no,mono,no,18,no,white,no,yes,0.09,98,1050,legacy,315,38,38,1,C:/Userdata/Michel/SpatProbMultiple3/beh/subject-9.csv,legacy,12,192,25,Kafkaesque Koffka,3.2.5,yes,598477b2b83f69022949e7e9,47,green,rectangular,green,rectangular,0,/,809,space,4134,4134,"(80, 80, 80)","(0, 123, 0)","(177, 0, 0)","(155, 155, 155)",2,legacy,experiment,"[0, 1, 2, 3, 4, 5, 6, 7]",/,2500,3000,0,8,252.7587515,1024,2,48000,-16,main,"[(0, -252), (178, -178), (252, 0), (178, 178), (0, 252), (-178, 178), (-252, 0), (-178, -178)]",[],33,odd,5,NA,95992,148163,148163,24864,23855,1924,29705,29704,1924,1924,28998,256309,1923,148163,255497,254709,254709,NA,778,study_X,0,4134,1,yes,1680
undefined,undefined,NA,NA,NA,4134,4134,black,no,legacy,legacy,legacy,0,green,"(0, 123, 0)",shape,present,highProb,rectangular,same,same,same,swap,green,"(0, 123, 0)",lowProb,lowProb3,circular,uniform,1,undefined,0,0.182291667,1,1,296.2916667,1,35,56888,0,0,0,0,0,0,0,0,65,0,1,0.182291667,296.2916667,35,56888,64,64,64,11/21/2018 14:16,Default description,yes,<openexp._canvas.legacy.Legacy object at 0x05CB88D0>,<openexp._canvas.legacy.Legacy object at 0x05D4E9F0>,<openexp._canvas.legacy.Legacy object at 0x05CD08F0>,<openexp._canvas.legacy.Legacy object at 0x05B32930>,<openexp._canvas.legacy.Legacy object at 0x05B22190>,<openexp._canvas.legacy.Legacy object at 0x05CAC290>,<openexp._canvas.legacy.Legacy object at 0x05D44B90>,<openexp._canvas.legacy.Legacy object at 0x05B87E90>,75,SpatProbMultiple3.osexp,C:/Userdata/Michel/SpatProbMultiple3,no,mono,no,18,no,white,no,yes,0.09,98,1050,legacy,45,39,39,1,C:/Userdata/Michel/SpatProbMultiple3/beh/subject-9.csv,legacy,12,192,25,Kafkaesque Koffka,3.2.5,yes,598477b2b83f69022949e7e9,47,green,rectangular,green,circular,0,\,1469,space,4134,4134,"(80, 80, 80)","(0, 123, 0)","(177, 0, 0)","(155, 155, 155)",2,legacy,experiment,"[0, 1, 2, 3, 4, 5, 6, 7]",\,2500,3000,0,8,252.7587515,1024,2,48000,-16,main,"[(0, -252), (178, -178), (252, 0), (178, 178), (0, 252), (-178, 178), (-252, 0), (-178, -178)]",[],33,odd,3,NA,95992,148163,148163,24864,23855,1924,29705,29704,1924,1924,28998,259013,1923,148163,257541,256756,256756,NA,778,study_X,0,4134,1,yes,1680
undefined,undefined,NA,NA,NA,4134,4134,black,no,legacy,legacy,legacy,0,green,"(0, 123, 0)",shape,present,highProb,circular,same,swap,same,swap,green,"(0, 123, 0)",lowProb,lowProb4,rectangular,uniform,1,undefined,0,0.1875,1,1,301.0416667,1,36,57800,0,0,0,0,0,0,0,0,66,0,1,0.1875,301.0416667,36,57800,65,65,65,11/21/2018 14:16,Default description,yes,<openexp._canvas.legacy.Legacy object at 0x05CB88D0>,<openexp._canvas.legacy.Legacy object at 0x05D4E9F0>,<openexp._canvas.legacy.Legacy object at 0x05CD08F0>,<openexp._canvas.legacy.Legacy object at 0x05B32930>,<openexp._canvas.legacy.Legacy object at 0x05B22190>,<openexp._canvas.legacy.Legacy object at 0x05CAC290>,<openexp._canvas.legacy.Legacy object at 0x05D1D670>,<openexp._canvas.legacy.Legacy object at 0x05B87E90>,75,SpatProbMultiple3.osexp,C:/Userdata/Michel/SpatProbMultiple3,no,mono,no,18,no,white,no,yes,0.09,98,1050,legacy,315,40,40,1,C:/Userdata/Michel/SpatProbMultiple3/beh/subject-9.csv,legacy,12,192,25,Kafkaesque Koffka,3.2.5,yes,598477b2b83f69022949e7e9,47,green,circular,green,rectangular,0,/,912,space,4134,4134,"(80, 80, 80)","(0, 123, 0)","(177, 0, 0)","(155, 155, 155)",2,legacy,experiment,"[0, 1, 2, 3, 4, 5, 6, 7]",/,2500,3000,0,8,252.7587515,1024,2,48000,-16,main,"[(0, -252), (178, -178), (252, 0), (178, 178), (0, 252), (-178, 178), (-252, 0), (-178, -178)]",[],33,odd,5,NA,95992,148163,148163,24864,23855,1924,29705,29704,1924,1924,28998,261140,1923,148163,260226,259438,259438,NA,778,study_X,0,4134,1,yes,1680
undefined,undefined,NA,NA,NA,4134,4134,black,no,legacy,legacy,legacy,0,green,"(0, 123, 0)",color,present,highProb,rectangular,same,swap,swap,same,red,"(177, 0, 0)",lowProb,lowProb6,rectangular,uniform,1,undefined,0,0.192708333,1,1,313.3125,1,37,60156,0,0,0,0,0,0,0,0,67,0,1,0.192708333,313.3125,37,60156,66,66,66,11/21/2018 14:16,Default description,yes,<openexp._canvas.legacy.Legacy object at 0x05CB88D0>,<openexp._canvas.legacy.Legacy object at 0x05D4E9F0>,<openexp._canvas.legacy.Legacy object at 0x05CD08F0>,<openexp._canvas.legacy.Legacy object at 0x05B32930>,<openexp._canvas.legacy.Legacy object at 0x05B22190>,<openexp._canvas.legacy.Legacy object at 0x05CAC290>,<openexp._canvas.legacy.Legacy object at 0x05CB80B0>,<openexp._canvas.legacy.Legacy object at 0x05B87E90>,75,SpatProbMultiple3.osexp,C:/Userdata/Michel/SpatProbMultiple3,no,mono,no,18,no,white,no,yes,0.09,98,1050,legacy,315,41,41,1,C:/Userdata/Michel/SpatProbMultiple3/beh/subject-9.csv,legacy,12,192,25,Kafkaesque Koffka,3.2.5,yes,598477b2b83f69022949e7e9,47,green,rectangular,red,rectangular,0,/,2356,space,4134,4134,"(80, 80, 80)","(0, 123, 0)","(177, 0, 0)","(155, 155, 155)",2,legacy,experiment,"[0, 1, 2, 3, 4, 5, 6, 7]",/,2500,3000,0,8,252.7587515,1024,2,48000,-16,main,"[(0, -252), (178, -178), (252, 0), (178, 178), (0, 252), (-178, 178), (-252, 0), (-178, -178)]",[],33,odd,7,NA,95992,148163,148163,24864,23855,1924,29705,29704,1924,1924,28998,264709,1923,148163,262350,261562,261562,NA,778,study_X,0,4134,1,yes,1680
undefined,undefined,NA,NA,NA,4134,4134,black,no,legacy,legacy,legacy,0,red,"(177, 0, 0)",shape,present,highProb,rectangular,swap,same,same,swap,red,"(177, 0, 0)",lowProb,lowProb4,circular,uniform,0,undefined,0,0.192708333,1,1,326.3333333,1,37,62656,0,0,0,0,0,0,0,0,68,0,1,0.192708333,326.3333333,37,62656,67,67,67,11/21/2018 14:16,Default description,yes,<openexp._canvas.legacy.Legacy object at 0x05CB88D0>,<openexp._canvas.legacy.Legacy object at 0x05D4E9F0>,<openexp._canvas.legacy.Legacy object at 0x05CD08F0>,<openexp._canvas.legacy.Legacy object at 0x05B32930>,<openexp._canvas.legacy.Legacy object at 0x05B22190>,<openexp._canvas.legacy.Legacy object at 0x05CAC290>,<openexp._canvas.legacy.Legacy object at 0x05D44AD0>,<openexp._canvas.legacy.Legacy object at 0x05B87E90>,75,SpatProbMultiple3.osexp,C:/Userdata/Michel/SpatProbMultiple3,no,mono,no,18,no,white,no,yes,0.09,98,1050,legacy,315,42,42,1,C:/Userdata/Michel/SpatProbMultiple3/beh/subject-9.csv,legacy,12,192,25,Kafkaesque Koffka,3.2.5,yes,598477b2b83f69022949e7e9,47,red,rectangular,red,circular,0,None,2500,space,4134,4134,"(80, 80, 80)","(0, 123, 0)","(177, 0, 0)","(155, 155, 155)",2,legacy,experiment,"[0, 1, 2, 3, 4, 5, 6, 7]",/,2500,3000,0,8,252.7587515,1024,2,48000,-16,main,"[(0, -252), (178, -178), (252, 0), (178, 178), (0, 252), (-178, 178), (-252, 0), (-178, -178)]",[],33,odd,5,NA,95992,148163,148163,24864,23855,1924,29705,29704,1924,1924,28998,268427,1923,148163,265925,265137,265137,NA,778,study_X,0,4134,1,yes,1680
undefined,undefined,NA,NA,NA,4134,4134,black,no,legacy,legacy,legacy,0,red,"(177, 0, 0)",color,absent,lowProb1,circular,same,swap,same,same,red,"(177, 0, 0)",lowProb,lowProb4,circular,uniform,1,undefined,0,0.197916667,1,1,333.140625,1,38,63963,0,0,0,0,0,0,0,0,69,0,1,0.197916667,333.140625,38,63963,68,68,68,11/21/2018 14:16,Default description,yes,<openexp._canvas.legacy.Legacy object at 0x05CB88D0>,<openexp._canvas.legacy.Legacy object at 0x05D4E9F0>,<openexp._canvas.legacy.Legacy object at 0x05CD08F0>,<openexp._canvas.legacy.Legacy object at 0x05B32930>,<openexp._canvas.legacy.Legacy object at 0x05B22190>,<openexp._canvas.legacy.Legacy object at 0x05CAC290>,<openexp._canvas.legacy.Legacy object at 0x05D1D330>,<openexp._canvas.legacy.Legacy object at 0x05B87E90>,75,SpatProbMultiple3.osexp,C:/Userdata/Michel/SpatProbMultiple3,no,mono,no,18,no,white,no,yes,0.09,98,1050,legacy,45,43,43,1,C:/Userdata/Michel/SpatProbMultiple3/beh/subject-9.csv,legacy,12,192,25,Kafkaesque Koffka,3.2.5,yes,598477b2b83f69022949e7e9,47,red,circular,red,circular,0,\,1307,space,4134,4134,"(80, 80, 80)","(0, 123, 0)","(177, 0, 0)","(155, 155, 155)",2,legacy,experiment,"[0, 1, 2, 3, 4, 5, 6, 7]",\,2500,3000,0,8,252.7587515,1024,2,48000,-16,main,"[(0, -252), (178, -178), (252, 0), (178, 178), (0, 252), (-178, 178), (-252, 0), (-178, -178)]",[],33,odd,5,NA,95992,148163,148163,24864,23855,1924,29705,29704,1924,1924,28998,270941,1923,148163,269631,268845,268845,NA,778,study_X,0,4134,1,yes,1680
undefined,undefined,NA,NA,NA,4134,4134,black,no,legacy,legacy,legacy,0,red,"(177, 0, 0)",color,absent,lowProb5,rectangular,same,swap,same,swap,red,"(177, 0, 0)",lowProb,lowProb6,rectangular,uniform,1,undefined,0,0.203125,1,1,337.5572917,1,39,64811,0,0,0,0,0,0,0,0,70,0,1,0.203125,337.5572917,39,64811,69,69,69,11/21/2018 14:16,Default description,yes,<openexp._canvas.legacy.Legacy object at 0x05CB88D0>,<openexp._canvas.legacy.Legacy object at 0x05D4E9F0>,<openexp._canvas.legacy.Legacy object at 0x05CD08F0>,<openexp._canvas.legacy.Legacy object at 0x05B32930>,<openexp._canvas.legacy.Legacy object at 0x05B22190>,<openexp._canvas.legacy.Legacy object at 0x05CAC290>,<openexp._canvas.legacy.Legacy object at 0x05B37670>,<openexp._canvas.legacy.Legacy object at 0x05B87E90>,75,SpatProbMultiple3.osexp,C:/Userdata/Michel/SpatProbMultiple3,no,mono,no,18,no,white,no,yes,0.09,98,1050,legacy,315,44,44,1,C:/Userdata/Michel/SpatProbMultiple3/beh/subject-9.csv,legacy,12,192,25,Kafkaesque Koffka,3.2.5,yes,598477b2b83f69022949e7e9,47,red,rectangular,red,rectangular,0,/,848,space,4134,4134,"(80, 80, 80)","(0, 123, 0)","(177, 0, 0)","(155, 155, 155)",2,legacy,experiment,"[0, 1, 2, 3, 4, 5, 6, 7]",/,2500,3000,0,8,252.7587515,1024,2,48000,-16,main,"[(0, -252), (178, -178), (252, 0), (178, 178), (0, 252), (-178, 178), (-252, 0), (-178, -178)]",[],33,odd,7,NA,95992,148163,148163,24864,23855,1924,29705,29704,1924,1924,28998,273005,1923,148163,272153,271366,271366,NA,778,study_X,0,4134,1,yes,1680
undefined,undefined,NA,NA,NA,4134,4134,black,no,legacy,legacy,legacy,0,green,"(0, 123, 0)",color,present,highProb,circular,swap,swap,same,swap,red,"(177, 0, 0)",highProbShape,highProbShape,circular,uniform,1,undefined,0,0.208333333,1,1,346.4322917,1,40,66515,0,0,0,0,0,0,0,0,71,0,1,0.208333333,346.4322917,40,66515,70,70,70,11/21/2018 14:16,Default description,yes,<openexp._canvas.legacy.Legacy object at 0x05CB88D0>,<openexp._canvas.legacy.Legacy object at 0x05D4E9F0>,<openexp._canvas.legacy.Legacy object at 0x05CD08F0>,<openexp._canvas.legacy.Legacy object at 0x05B32930>,<openexp._canvas.legacy.Legacy object at 0x05B22190>,<openexp._canvas.legacy.Legacy object at 0x05CAC290>,<openexp._canvas.legacy.Legacy object at 0x05CC4670>,<openexp._canvas.legacy.Legacy object at 0x05B87E90>,75,SpatProbMultiple3.osexp,C:/Userdata/Michel/SpatProbMultiple3,no,mono,no,18,no,white,no,yes,0.09,98,1050,legacy,315,45,45,1,C:/Userdata/Michel/SpatProbMultiple3/beh/subject-9.csv,legacy,12,192,25,Kafkaesque Koffka,3.2.5,yes,598477b2b83f69022949e7e9,47,green,circular,red,circular,0,/,1704,space,4134,4134,"(80, 80, 80)","(0, 123, 0)","(177, 0, 0)","(155, 155, 155)",2,legacy,experiment,"[0, 1, 2, 3, 4, 5, 6, 7]",/,2500,3000,0,8,252.7587515,1024,2,48000,-16,main,"[(0, -252), (178, -178), (252, 0), (178, 178), (0, 252), (-178, 178), (-252, 0), (-178, -178)]",[],33,odd,4,NA,95992,148163,148163,24864,23855,1924,29705,29704,1924,1924,28998,275956,1923,148163,274249,273463,273463,NA,778,study_X,0,4134,1,yes,1680
undefined,undefined,NA,NA,NA,4134,4134,black,no,legacy,legacy,legacy,0,red,"(177, 0, 0)",shape,absent,highProbOther,circular,swap,same,same,same,red,"(177, 0, 0)",highProbShape,highProbShape,circular,uniform,1,undefined,0,0.213541667,1,1,349.609375,1,41,67125,0,0,0,0,0,0,0,0,72,0,1,0.213541667,349.609375,41,67125,71,71,71,11/21/2018 14:16,Default description,yes,<openexp._canvas.legacy.Legacy object at 0x05CB88D0>,<openexp._canvas.legacy.Legacy object at 0x05D4E9F0>,<openexp._canvas.legacy.Legacy object at 0x05CD08F0>,<openexp._canvas.legacy.Legacy object at 0x05B32930>,<openexp._canvas.legacy.Legacy object at 0x05B22190>,<openexp._canvas.legacy.Legacy object at 0x05CAC290>,<openexp._canvas.legacy.Legacy object at 0x05CB8610>,<openexp._canvas.legacy.Legacy object at 0x05B87E90>,75,SpatProbMultiple3.osexp,C:/Userdata/Michel/SpatProbMultiple3,no,mono,no,18,no,white,no,yes,0.09,98,1050,legacy,315,46,46,1,C:/Userdata/Michel/SpatProbMultiple3/beh/subject-9.csv,legacy,12,192,25,Kafkaesque Koffka,3.2.5,yes,598477b2b83f69022949e7e9,47,red,circular,red,circular,0,/,610,space,4134,4134,"(80, 80, 80)","(0, 123, 0)","(177, 0, 0)","(155, 155, 155)",2,legacy,experiment,"[0, 1, 2, 3, 4, 5, 6, 7]",/,2500,3000,0,8,252.7587515,1024,2,48000,-16,main,"[(0, -252), (178, -178), (252, 0), (178, 178), (0, 252), (-178, 178), (-252, 0), (-178, -178)]",[],33,odd,4,NA,95992,148163,148163,24864,23855,1924,29705,29704,1924,1924,28998,277804,1923,148163,277192,276408,276408,NA,778,study_X,0,4134,1,yes,1680
undefined,undefined,NA,NA,NA,4134,4134,black,no,legacy,legacy,legacy,0,green,"(0, 123, 0)",color,present,lowProb5,rectangular,swap,swap,same,swap,red,"(177, 0, 0)",highProbColor,highProbColor,rectangular,uniform,1,undefined,0,0.21875,1,1,357.2760417,1,42,68597,0,0,0,0,0,0,0,0,73,0,1,0.21875,357.2760417,42,68597,72,72,72,11/21/2018 14:16,Default description,yes,<openexp._canvas.legacy.Legacy object at 0x05CB88D0>,<openexp._canvas.legacy.Legacy object at 0x05D4E9F0>,<openexp._canvas.legacy.Legacy object at 0x05CD08F0>,<openexp._canvas.legacy.Legacy object at 0x05B32930>,<openexp._canvas.legacy.Legacy object at 0x05B22190>,<openexp._canvas.legacy.Legacy object at 0x05CAC290>,<openexp._canvas.legacy.Legacy object at 0x05D51710>,<openexp._canvas.legacy.Legacy object at 0x05B87E90>,75,SpatProbMultiple3.osexp,C:/Userdata/Michel/SpatProbMultiple3,no,mono,no,18,no,white,no,yes,0.09,98,1050,legacy,45,47,47,1,C:/Userdata/Michel/SpatProbMultiple3/beh/subject-9.csv,legacy,12,192,25,Kafkaesque Koffka,3.2.5,yes,598477b2b83f69022949e7e9,47,green,rectangular,red,rectangular,0,\,1472,space,4134,4134,"(80, 80, 80)","(0, 123, 0)","(177, 0, 0)","(155, 155, 155)",2,legacy,experiment,"[0, 1, 2, 3, 4, 5, 6, 7]",\,2500,3000,0,8,252.7587515,1024,2,48000,-16,main,"[(0, -252), (178, -178), (252, 0), (178, 178), (0, 252), (-178, 178), (-252, 0), (-178, -178)]",[],33,odd,0,NA,95992,148163,148163,24864,23855,1924,29705,29704,1924,1924,28998,280493,1923,148163,279018,278231,278231,NA,778,study_X,0,4134,1,yes,1680
undefined,undefined,NA,NA,NA,4134,4134,black,no,legacy,legacy,legacy,0,red,"(177, 0, 0)",shape,absent,highProb,circular,swap,swap,same,swap,red,"(177, 0, 0)",lowProb,lowProb2,circular,uniform,1,undefined,0,0.223958333,1,1,362.921875,1,43,69681,0,0,0,0,0,0,0,0,74,0,1,0.223958333,362.921875,43,69681,73,73,73,11/21/2018 14:16,Default description,yes,<openexp._canvas.legacy.Legacy object at 0x05CB88D0>,<openexp._canvas.legacy.Legacy object at 0x05D4E9F0>,<openexp._canvas.legacy.Legacy object at 0x05CD08F0>,<openexp._canvas.legacy.Legacy object at 0x05B32930>,<openexp._canvas.legacy.Legacy object at 0x05B22190>,<openexp._canvas.legacy.Legacy object at 0x05CAC290>,<openexp._canvas.legacy.Legacy object at 0x05CC43B0>,<openexp._canvas.legacy.Legacy object at 0x05B87E90>,75,SpatProbMultiple3.osexp,C:/Userdata/Michel/SpatProbMultiple3,no,mono,no,18,no,white,no,yes,0.09,98,1050,legacy,315,48,48,1,C:/Userdata/Michel/SpatProbMultiple3/beh/subject-9.csv,legacy,12,192,25,Kafkaesque Koffka,3.2.5,yes,598477b2b83f69022949e7e9,47,red,circular,red,circular,0,/,1084,space,4134,4134,"(80, 80, 80)","(0, 123, 0)","(177, 0, 0)","(155, 155, 155)",2,legacy,experiment,"[0, 1, 2, 3, 4, 5, 6, 7]",/,2500,3000,0,8,252.7587515,1024,2,48000,-16,main,"[(0, -252), (178, -178), (252, 0), (178, 178), (0, 252), (-178, 178), (-252, 0), (-178, -178)]",[],33,odd,2,NA,95992,148163,148163,24864,23855,1924,29705,29704,1924,1924,28998,282797,1923,148163,281711,280924,280924,NA,778,study_X,0,4134,1,yes,1680
undefined,undefined,NA,NA,NA,4134,4134,black,no,legacy,legacy,legacy,0,green,"(0, 123, 0)",color,present,highProb,rectangular,swap,swap,same,swap,red,"(177, 0, 0)",lowProb,lowProb3,rectangular,uniform,1,undefined,0,0.229166667,1,1,367.09375,1,44,70482,0,0,0,0,0,0,0,0,75,0,1,0.229166667,367.09375,44,70482,74,74,74,11/21/2018 14:16,Default description,yes,<openexp._canvas.legacy.Legacy object at 0x05CB88D0>,<openexp._canvas.legacy.Legacy object at 0x05D4E9F0>,<openexp._canvas.legacy.Legacy object at 0x05CD08F0>,<openexp._canvas.legacy.Legacy object at 0x05B32930>,<openexp._canvas.legacy.Legacy object at 0x05B22190>,<openexp._canvas.legacy.Legacy object at 0x05CAC290>,<openexp._canvas.legacy.Legacy object at 0x05D1D770>,<openexp._canvas.legacy.Legacy object at 0x05B87E90>,75,SpatProbMultiple3.osexp,C:/Userdata/Michel/SpatProbMultiple3,no,mono,no,18,no,white,no,yes,0.09,98,1050,legacy,45,49,49,1,C:/Userdata/Michel/SpatProbMultiple3/beh/subject-9.csv,legacy,12,192,25,Kafkaesque Koffka,3.2.5,yes,598477b2b83f69022949e7e9,47,green,rectangular,red,rectangular,0,\,801,space,4134,4134,"(80, 80, 80)","(0, 123, 0)","(177, 0, 0)","(155, 155, 155)",2,legacy,experiment,"[0, 1, 2, 3, 4, 5, 6, 7]",\,2500,3000,0,8,252.7587515,1024,2,48000,-16,main,"[(0, -252), (178, -178), (252, 0), (178, 178), (0, 252), (-178, 178), (-252, 0), (-178, -178)]",[],33,odd,3,NA,95992,148163,148163,24864,23855,1924,29705,29704,1924,1924,28998,284829,1923,148163,284026,283239,283239,NA,778,study_X,0,4134,1,yes,1680
undefined,undefined,NA,NA,NA,4134,4134,black,no,legacy,legacy,legacy,0,green,"(0, 123, 0)",color,present,highProb,circular,same,swap,same,swap,red,"(177, 0, 0)",highProbShape,highProbShape,circular,uniform,1,undefined,0,0.234375,1,1,372.625,1,45,71544,0,0,0,0,0,0,0,0,76,0,1,0.234375,372.625,45,71544,75,75,75,11/21/2018 14:16,Default description,yes,<openexp._canvas.legacy.Legacy object at 0x05CB88D0>,<openexp._canvas.legacy.Legacy object at 0x05D4E9F0>,<openexp._canvas.legacy.Legacy object at 0x05CD08F0>,<openexp._canvas.legacy.Legacy object at 0x05B32930>,<openexp._canvas.legacy.Legacy object at 0x05B22190>,<openexp._canvas.legacy.Legacy object at 0x05CAC290>,<openexp._canvas.legacy.Legacy object at 0x05D34B30>,<openexp._canvas.legacy.Legacy object at 0x05B87E90>,75,SpatProbMultiple3.osexp,C:/Userdata/Michel/SpatProbMultiple3,no,mono,no,18,no,white,no,yes,0.09,98,1050,legacy,315,50,50,1,C:/Userdata/Michel/SpatProbMultiple3/beh/subject-9.csv,legacy,12,192,25,Kafkaesque Koffka,3.2.5,yes,598477b2b83f69022949e7e9,47,green,circular,red,circular,0,/,1062,space,4134,4134,"(80, 80, 80)","(0, 123, 0)","(177, 0, 0)","(155, 155, 155)",2,legacy,experiment,"[0, 1, 2, 3, 4, 5, 6, 7]",/,2500,3000,0,8,252.7587515,1024,2,48000,-16,main,"[(0, -252), (178, -178), (252, 0), (178, 178), (0, 252), (-178, 178), (-252, 0), (-178, -178)]",[],33,odd,4,NA,95992,148163,148163,24864,23855,1924,29705,29704,1924,1924,28998,287109,1923,148163,286044,285259,285259,NA,778,study_X,0,4134,1,yes,1680
undefined,undefined,NA,NA,NA,4134,4134,black,no,legacy,legacy,legacy,0,green,"(0, 123, 0)",color,present,highProb,circular,same,same,same,same,red,"(177, 0, 0)",lowProb,lowProb5,circular,uniform,0,undefined,0,0.234375,1,1,385.421875,1,45,74001,0,0,0,0,0,0,0,0,77,0,1,0.234375,385.421875,45,74001,76,76,76,11/21/2018 14:16,Default description,yes,<openexp._canvas.legacy.Legacy object at 0x05CB88D0>,<openexp._canvas.legacy.Legacy object at 0x05D4E9F0>,<openexp._canvas.legacy.Legacy object at 0x05CD08F0>,<openexp._canvas.legacy.Legacy object at 0x05B32930>,<openexp._canvas.legacy.Legacy object at 0x05B22190>,<openexp._canvas.legacy.Legacy object at 0x05CAC290>,<openexp._canvas.legacy.Legacy object at 0x05D4E910>,<openexp._canvas.legacy.Legacy object at 0x05B87E90>,75,SpatProbMultiple3.osexp,C:/Userdata/Michel/SpatProbMultiple3,no,mono,no,18,no,white,no,yes,0.09,98,1050,legacy,45,51,51,1,C:/Userdata/Michel/SpatProbMultiple3/beh/subject-9.csv,legacy,12,192,25,Kafkaesque Koffka,3.2.5,yes,598477b2b83f69022949e7e9,47,green,circular,red,circular,0,/,2457,space,4134,4134,"(80, 80, 80)","(0, 123, 0)","(177, 0, 0)","(155, 155, 155)",2,legacy,experiment,"[0, 1, 2, 3, 4, 5, 6, 7]",\,2500,3000,0,8,252.7587515,1024,2,48000,-16,main,"[(0, -252), (178, -178), (252, 0), (178, 178), (0, 252), (-178, 178), (-252, 0), (-178, -178)]",[],33,odd,6,NA,95992,148163,148163,24864,23855,1924,29705,29704,1924,1924,28998,290781,1923,148163,288321,287535,287536,NA,778,study_X,0,4134,1,yes,1680
undefined,undefined,NA,NA,NA,4134,4134,black,no,legacy,legacy,legacy,0,red,"(177, 0, 0)",color,present,highProb,circular,swap,same,swap,same,green,"(0, 123, 0)",lowProb,lowProb4,circular,uniform,1,undefined,0,0.239583333,1,1,391.6510417,1,46,75197,0,0,0,0,0,0,0,0,78,0,1,0.239583333,391.6510417,46,75197,77,77,77,11/21/2018 14:16,Default description,yes,<openexp._canvas.legacy.Legacy object at 0x05CB88D0>,<openexp._canvas.legacy.Legacy object at 0x05D4E9F0>,<openexp._canvas.legacy.Legacy object at 0x05CD08F0>,<openexp._canvas.legacy.Legacy object at 0x05B32930>,<openexp._canvas.legacy.Legacy object at 0x05B22190>,<openexp._canvas.legacy.Legacy object at 0x05CAC290>,<openexp._canvas.legacy.Legacy object at 0x05D1DA30>,<openexp._canvas.legacy.Legacy object at 0x05B87E90>,75,SpatProbMultiple3.osexp,C:/Userdata/Michel/SpatProbMultiple3,no,mono,no,18,no,white,no,yes,0.09,98,1050,legacy,315,52,52,1,C:/Userdata/Michel/SpatProbMultiple3/beh/subject-9.csv,legacy,12,192,25,Kafkaesque Koffka,3.2.5,yes,598477b2b83f69022949e7e9,47,red,circular,green,circular,0,/,1196,space,4134,4134,"(80, 80, 80)","(0, 123, 0)","(177, 0, 0)","(155, 155, 155)",2,legacy,experiment,"[0, 1, 2, 3, 4, 5, 6, 7]",/,2500,3000,0,8,252.7587515,1024,2,48000,-16,main,"[(0, -252), (178, -178), (252, 0), (178, 178), (0, 252), (-178, 178), (-252, 0), (-178, -178)]",[],33,odd,5,NA,95992,148163,148163,24864,23855,1924,29705,29704,1924,1924,28998,293196,1923,148163,291998,291210,291210,NA,778,study_X,0,4134,1,yes,1680
undefined,undefined,NA,NA,NA,4134,4134,black,no,legacy,legacy,legacy,0,red,"(177, 0, 0)",color,present,highProb,rectangular,same,swap,same,swap,green,"(0, 123, 0)",highProbShape,highProbShape,rectangular,uniform,1,undefined,0,0.244791667,1,1,395.7864583,1,47,75991,0,0,0,0,0,0,0,0,79,0,1,0.244791667,395.7864583,47,75991,78,78,78,11/21/2018 14:16,Default description,yes,<openexp._canvas.legacy.Legacy object at 0x05CB88D0>,<openexp._canvas.legacy.Legacy object at 0x05D4E9F0>,<openexp._canvas.legacy.Legacy object at 0x05CD08F0>,<openexp._canvas.legacy.Legacy object at 0x05B32930>,<openexp._canvas.legacy.Legacy object at 0x05B22190>,<openexp._canvas.legacy.Legacy object at 0x05CAC290>,<openexp._canvas.legacy.Legacy object at 0x05D44870>,<openexp._canvas.legacy.Legacy object at 0x05B87E90>,75,SpatProbMultiple3.osexp,C:/Userdata/Michel/SpatProbMultiple3,no,mono,no,18,no,white,no,yes,0.09,98,1050,legacy,315,53,53,1,C:/Userdata/Michel/SpatProbMultiple3/beh/subject-9.csv,legacy,12,192,25,Kafkaesque Koffka,3.2.5,yes,598477b2b83f69022949e7e9,47,red,rectangular,green,rectangular,0,/,794,space,4134,4134,"(80, 80, 80)","(0, 123, 0)","(177, 0, 0)","(155, 155, 155)",2,legacy,experiment,"[0, 1, 2, 3, 4, 5, 6, 7]",/,2500,3000,0,8,252.7587515,1024,2,48000,-16,main,"[(0, -252), (178, -178), (252, 0), (178, 178), (0, 252), (-178, 178), (-252, 0), (-178, -178)]",[],33,odd,4,NA,95992,148163,148163,24864,23855,1924,29705,29704,1924,1924,28998,295212,1923,148163,294416,293631,293631,NA,778,study_X,0,4134,1,yes,1680
undefined,undefined,NA,NA,NA,4134,4134,black,no,legacy,legacy,legacy,0,red,"(177, 0, 0)",color,present,highProb,rectangular,same,same,same,same,green,"(0, 123, 0)",lowProb,lowProb1,rectangular,uniform,1,undefined,0,0.25,1,1,402.2291667,1,48,77228,0,0,0,0,0,0,0,0,80,0,1,0.25,402.2291667,48,77228,79,79,79,11/21/2018 14:16,Default description,yes,<openexp._canvas.legacy.Legacy object at 0x05CB88D0>,<openexp._canvas.legacy.Legacy object at 0x05D4E9F0>,<openexp._canvas.legacy.Legacy object at 0x05CD08F0>,<openexp._canvas.legacy.Legacy object at 0x05B32930>,<openexp._canvas.legacy.Legacy object at 0x05B22190>,<openexp._canvas.legacy.Legacy object at 0x05CAC290>,<openexp._canvas.legacy.Legacy object at 0x05D55570>,<openexp._canvas.legacy.Legacy object at 0x05B87E90>,75,SpatProbMultiple3.osexp,C:/Userdata/Michel/SpatProbMultiple3,no,mono,no,18,no,white,no,yes,0.09,98,1050,legacy,45,54,54,1,C:/Userdata/Michel/SpatProbMultiple3/beh/subject-9.csv,legacy,12,192,25,Kafkaesque Koffka,3.2.5,yes,598477b2b83f69022949e7e9,47,red,rectangular,green,rectangular,0,\,1237,space,4134,4134,"(80, 80, 80)","(0, 123, 0)","(177, 0, 0)","(155, 155, 155)",2,legacy,experiment,"[0, 1, 2, 3, 4, 5, 6, 7]",\,2500,3000,0,8,252.7587515,1024,2,48000,-16,main,"[(0, -252), (178, -178), (252, 0), (178, 178), (0, 252), (-178, 178), (-252, 0), (-178, -178)]",[],33,odd,1,NA,95992,148163,148163,24864,23855,1924,29705,29704,1924,1924,28998,297669,1923,148163,296430,295643,295643,NA,778,study_X,0,4134,1,yes,1680
undefined,undefined,NA,NA,NA,4134,4134,black,no,legacy,legacy,legacy,0,green,"(0, 123, 0)",shape,present,lowProb6,rectangular,swap,same,same,swap,green,"(0, 123, 0)",lowProb,lowProb4,circular,uniform,1,undefined,0,0.255208333,1,1,407.2916667,1,49,78200,0,0,0,0,0,0,0,0,81,0,1,0.255208333,407.2916667,49,78200,80,80,80,11/21/2018 14:16,Default description,yes,<openexp._canvas.legacy.Legacy object at 0x05CB88D0>,<openexp._canvas.legacy.Legacy object at 0x05D4E9F0>,<openexp._canvas.legacy.Legacy object at 0x05CD08F0>,<openexp._canvas.legacy.Legacy object at 0x05B32930>,<openexp._canvas.legacy.Legacy object at 0x05B22190>,<openexp._canvas.legacy.Legacy object at 0x05CAC290>,<openexp._canvas.legacy.Legacy object at 0x05CC49D0>,<openexp._canvas.legacy.Legacy object at 0x05B87E90>,75,SpatProbMultiple3.osexp,C:/Userdata/Michel/SpatProbMultiple3,no,mono,no,18,no,white,no,yes,0.09,98,1050,legacy,45,55,55,1,C:/Userdata/Michel/SpatProbMultiple3/beh/subject-9.csv,legacy,12,192,25,Kafkaesque Koffka,3.2.5,yes,598477b2b83f69022949e7e9,47,green,rectangular,green,circular,0,\,972,space,4134,4134,"(80, 80, 80)","(0, 123, 0)","(177, 0, 0)","(155, 155, 155)",2,legacy,experiment,"[0, 1, 2, 3, 4, 5, 6, 7]",\,2500,3000,0,8,252.7587515,1024,2,48000,-16,main,"[(0, -252), (178, -178), (252, 0), (178, 178), (0, 252), (-178, 178), (-252, 0), (-178, -178)]",[],33,odd,5,NA,95992,148163,148163,24864,23855,1924,29705,29704,1924,1924,28998,299861,1923,148163,298886,298099,298099,NA,778,study_X,0,4134,1,yes,1680
undefined,undefined,NA,NA,NA,4134,4134,black,no,legacy,legacy,legacy,0,red,"(177, 0, 0)",color,present,highProb,circular,swap,swap,same,same,green,"(0, 123, 0)",lowProb,lowProb6,circular,uniform,1,undefined,0,0.260416667,1,1,415.7864583,1,50,79831,0,0,0,0,0,0,0,0,82,0,1,0.260416667,415.7864583,50,79831,81,81,81,11/21/2018 14:16,Default description,yes,<openexp._canvas.legacy.Legacy object at 0x05CB88D0>,<openexp._canvas.legacy.Legacy object at 0x05D4E9F0>,<openexp._canvas.legacy.Legacy object at 0x05CD08F0>,<openexp._canvas.legacy.Legacy object at 0x05B32930>,<openexp._canvas.legacy.Legacy object at 0x05B22190>,<openexp._canvas.legacy.Legacy object at 0x05CAC290>,<openexp._canvas.legacy.Legacy object at 0x05D51710>,<openexp._canvas.legacy.Legacy object at 0x05B87E90>,75,SpatProbMultiple3.osexp,C:/Userdata/Michel/SpatProbMultiple3,no,mono,no,18,no,white,no,yes,0.09,98,1050,legacy,45,56,56,1,C:/Userdata/Michel/SpatProbMultiple3/beh/subject-9.csv,legacy,12,192,25,Kafkaesque Koffka,3.2.5,yes,598477b2b83f69022949e7e9,47,red,circular,green,circular,0,\,1631,space,4134,4134,"(80, 80, 80)","(0, 123, 0)","(177, 0, 0)","(155, 155, 155)",2,legacy,experiment,"[0, 1, 2, 3, 4, 5, 6, 7]",\,2500,3000,0,8,252.7587515,1024,2,48000,-16,main,"[(0, -252), (178, -178), (252, 0), (178, 178), (0, 252), (-178, 178), (-252, 0), (-178, -178)]",[],33,odd,7,NA,95992,148163,148163,24864,23855,1924,29705,29704,1924,1924,28998,302741,1923,148163,301106,300318,300318,NA,778,study_X,0,4134,1,yes,1680
undefined,undefined,NA,NA,NA,4134,4134,black,no,legacy,legacy,legacy,0,green,"(0, 123, 0)",shape,present,highProb,circular,swap,same,same,swap,green,"(0, 123, 0)",lowProb,lowProb3,rectangular,uniform,1,undefined,0,0.265625,1,1,421.7135417,1,51,80969,0,0,0,0,0,0,0,0,83,0,1,0.265625,421.7135417,51,80969,82,82,82,11/21/2018 14:16,Default description,yes,<openexp._canvas.legacy.Legacy object at 0x05CB88D0>,<openexp._canvas.legacy.Legacy object at 0x05D4E9F0>,<openexp._canvas.legacy.Legacy object at 0x05CD08F0>,<openexp._canvas.legacy.Legacy object at 0x05B32930>,<openexp._canvas.legacy.Legacy object at 0x05B22190>,<openexp._canvas.legacy.Legacy object at 0x05CAC290>,<openexp._canvas.legacy.Legacy object at 0x05CD0030>,<openexp._canvas.legacy.Legacy object at 0x05B87E90>,75,SpatProbMultiple3.osexp,C:/Userdata/Michel/SpatProbMultiple3,no,mono,no,18,no,white,no,yes,0.09,98,1050,legacy,315,57,57,1,C:/Userdata/Michel/SpatProbMultiple3/beh/subject-9.csv,legacy,12,192,25,Kafkaesque Koffka,3.2.5,yes,598477b2b83f69022949e7e9,47,green,circular,green,rectangular,0,/,1138,space,4134,4134,"(80, 80, 80)","(0, 123, 0)","(177, 0, 0)","(155, 155, 155)",2,legacy,experiment,"[0, 1, 2, 3, 4, 5, 6, 7]",/,2500,3000,0,8,252.7587515,1024,2,48000,-16,main,"[(0, -252), (178, -178), (252, 0), (178, 178), (0, 252), (-178, 178), (-252, 0), (-178, -178)]",[],33,odd,3,NA,95992,148163,148163,24864,23855,1924,29705,29704,1924,1924,28998,305093,1923,148163,303951,303165,303165,NA,778,study_X,0,4134,1,yes,1680
undefined,undefined,NA,NA,NA,4134,4134,black,no,legacy,legacy,legacy,0,red,"(177, 0, 0)",shape,present,highProb,rectangular,swap,swap,swap,swap,red,"(177, 0, 0)",lowProb,lowProb6,circular,uniform,1,undefined,0,0.270833333,1,1,433.6666667,1,52,83264,0,0,0,0,0,0,0,0,84,0,1,0.270833333,433.6666667,52,83264,83,83,83,11/21/2018 14:16,Default description,yes,<openexp._canvas.legacy.Legacy object at 0x05CB88D0>,<openexp._canvas.legacy.Legacy object at 0x05D4E9F0>,<openexp._canvas.legacy.Legacy object at 0x05CD08F0>,<openexp._canvas.legacy.Legacy object at 0x05B32930>,<openexp._canvas.legacy.Legacy object at 0x05B22190>,<openexp._canvas.legacy.Legacy object at 0x05CAC290>,<openexp._canvas.legacy.Legacy object at 0x05D44850>,<openexp._canvas.legacy.Legacy object at 0x05B87E90>,75,SpatProbMultiple3.osexp,C:/Userdata/Michel/SpatProbMultiple3,no,mono,no,18,no,white,no,yes,0.09,98,1050,legacy,45,58,58,1,C:/Userdata/Michel/SpatProbMultiple3/beh/subject-9.csv,legacy,12,192,25,Kafkaesque Koffka,3.2.5,yes,598477b2b83f69022949e7e9,47,red,rectangular,red,circular,0,\,2295,space,4134,4134,"(80, 80, 80)","(0, 123, 0)","(177, 0, 0)","(155, 155, 155)",2,legacy,experiment,"[0, 1, 2, 3, 4, 5, 6, 7]",\,2500,3000,0,8,252.7587515,1024,2,48000,-16,main,"[(0, -252), (178, -178), (252, 0), (178, 178), (0, 252), (-178, 178), (-252, 0), (-178, -178)]",[],33,odd,7,NA,95992,148163,148163,24864,23855,1924,29705,29704,1924,1924,28998,308612,1923,148163,306315,305528,305528,NA,778,study_X,0,4134,1,yes,1680
undefined,undefined,NA,NA,NA,4134,4134,black,no,legacy,legacy,legacy,0,red,"(177, 0, 0)",shape,absent,lowProb1,circular,same,swap,same,same,red,"(177, 0, 0)",lowProb,lowProb1,circular,uniform,1,undefined,0,0.276041667,1,1,440.0572917,1,53,84491,0,0,0,0,0,0,0,0,85,0,1,0.276041667,440.0572917,53,84491,84,84,84,11/21/2018 14:16,Default description,yes,<openexp._canvas.legacy.Legacy object at 0x05CB88D0>,<openexp._canvas.legacy.Legacy object at 0x05D4E9F0>,<openexp._canvas.legacy.Legacy object at 0x05CD08F0>,<openexp._canvas.legacy.Legacy object at 0x05B32930>,<openexp._canvas.legacy.Legacy object at 0x05B22190>,<openexp._canvas.legacy.Legacy object at 0x05CAC290>,<openexp._canvas.legacy.Legacy object at 0x05D4E550>,<openexp._canvas.legacy.Legacy object at 0x05B87E90>,75,SpatProbMultiple3.osexp,C:/Userdata/Michel/SpatProbMultiple3,no,mono,no,18,no,white,no,yes,0.09,98,1050,legacy,315,59,59,1,C:/Userdata/Michel/SpatProbMultiple3/beh/subject-9.csv,legacy,12,192,25,Kafkaesque Koffka,3.2.5,yes,598477b2b83f69022949e7e9,47,red,circular,red,circular,0,/,1227,space,4134,4134,"(80, 80, 80)","(0, 123, 0)","(177, 0, 0)","(155, 155, 155)",2,legacy,experiment,"[0, 1, 2, 3, 4, 5, 6, 7]",/,2500,3000,0,8,252.7587515,1024,2,48000,-16,main,"[(0, -252), (178, -178), (252, 0), (178, 178), (0, 252), (-178, 178), (-252, 0), (-178, -178)]",[],33,odd,1,NA,95992,148163,148163,24864,23855,1924,29705,29704,1924,1924,28998,311060,1923,148163,309831,309045,309045,NA,778,study_X,0,4134,1,yes,1680
undefined,undefined,NA,NA,NA,4134,4134,black,no,legacy,legacy,legacy,0,red,"(177, 0, 0)",color,absent,highProb,rectangular,same,swap,same,swap,red,"(177, 0, 0)",highProbShape,highProbShape,rectangular,uniform,1,undefined,0,0.28125,1,1,447.390625,1,54,85899,0,0,0,0,0,0,0,0,86,0,1,0.28125,447.390625,54,85899,85,85,85,11/21/2018 14:16,Default description,yes,<openexp._canvas.legacy.Legacy object at 0x05CB88D0>,<openexp._canvas.legacy.Legacy object at 0x05D4E9F0>,<openexp._canvas.legacy.Legacy object at 0x05CD08F0>,<openexp._canvas.legacy.Legacy object at 0x05B32930>,<openexp._canvas.legacy.Legacy object at 0x05B22190>,<openexp._canvas.legacy.Legacy object at 0x05CAC290>,<openexp._canvas.legacy.Legacy object at 0x05CB84B0>,<openexp._canvas.legacy.Legacy object at 0x05B87E90>,75,SpatProbMultiple3.osexp,C:/Userdata/Michel/SpatProbMultiple3,no,mono,no,18,no,white,no,yes,0.09,98,1050,legacy,315,60,60,1,C:/Userdata/Michel/SpatProbMultiple3/beh/subject-9.csv,legacy,12,192,25,Kafkaesque Koffka,3.2.5,yes,598477b2b83f69022949e7e9,47,red,rectangular,red,rectangular,0,/,1408,space,4134,4134,"(80, 80, 80)","(0, 123, 0)","(177, 0, 0)","(155, 155, 155)",2,legacy,experiment,"[0, 1, 2, 3, 4, 5, 6, 7]",/,2500,3000,0,8,252.7587515,1024,2,48000,-16,main,"[(0, -252), (178, -178), (252, 0), (178, 178), (0, 252), (-178, 178), (-252, 0), (-178, -178)]",[],33,odd,4,NA,95992,148163,148163,24864,23855,1924,29705,29704,1924,1924,28998,313668,1923,148163,312257,311471,311471,NA,778,study_X,0,4134,1,yes,1680
undefined,undefined,NA,NA,NA,4134,4134,black,no,legacy,legacy,legacy,0,green,"(0, 123, 0)",color,present,highProb,rectangular,swap,same,same,same,red,"(177, 0, 0)",lowProb,lowProb3,rectangular,uniform,1,undefined,0,0.286458333,1,1,452.578125,1,55,86895,0,0,0,0,0,0,0,0,87,0,1,0.286458333,452.578125,55,86895,86,86,86,11/21/2018 14:16,Default description,yes,<openexp._canvas.legacy.Legacy object at 0x05CB88D0>,<openexp._canvas.legacy.Legacy object at 0x05D4E9F0>,<openexp._canvas.legacy.Legacy object at 0x05CD08F0>,<openexp._canvas.legacy.Legacy object at 0x05B32930>,<openexp._canvas.legacy.Legacy object at 0x05B22190>,<openexp._canvas.legacy.Legacy object at 0x05CAC290>,<openexp._canvas.legacy.Legacy object at 0x05CD01F0>,<openexp._canvas.legacy.Legacy object at 0x05B87E90>,75,SpatProbMultiple3.osexp,C:/Userdata/Michel/SpatProbMultiple3,no,mono,no,18,no,white,no,yes,0.09,98,1050,legacy,315,61,61,1,C:/Userdata/Michel/SpatProbMultiple3/beh/subject-9.csv,legacy,12,192,25,Kafkaesque Koffka,3.2.5,yes,598477b2b83f69022949e7e9,47,green,rectangular,red,rectangular,0,/,996,space,4134,4134,"(80, 80, 80)","(0, 123, 0)","(177, 0, 0)","(155, 155, 155)",2,legacy,experiment,"[0, 1, 2, 3, 4, 5, 6, 7]",/,2500,3000,0,8,252.7587515,1024,2,48000,-16,main,"[(0, -252), (178, -178), (252, 0), (178, 178), (0, 252), (-178, 178), (-252, 0), (-178, -178)]",[],33,odd,3,NA,95992,148163,148163,24864,23855,1924,29705,29704,1924,1924,28998,315877,1923,148163,314879,314092,314092,NA,778,study_X,0,4134,1,yes,1680
undefined,undefined,NA,NA,NA,4134,4134,black,no,legacy,legacy,legacy,0,green,"(0, 123, 0)",color,present,lowProb3,circular,same,swap,same,swap,red,"(177, 0, 0)",highProbShape,highProbShape,circular,uniform,1,undefined,0,0.291666667,1,1,459.7447917,1,56,88271,0,0,0,0,0,0,0,0,88,0,1,0.291666667,459.7447917,56,88271,87,87,87,11/21/2018 14:16,Default description,yes,<openexp._canvas.legacy.Legacy object at 0x05CB88D0>,<openexp._canvas.legacy.Legacy object at 0x05D4E9F0>,<openexp._canvas.legacy.Legacy object at 0x05CD08F0>,<openexp._canvas.legacy.Legacy object at 0x05B32930>,<openexp._canvas.legacy.Legacy object at 0x05B22190>,<openexp._canvas.legacy.Legacy object at 0x05CAC290>,<openexp._canvas.legacy.Legacy object at 0x05CC4690>,<openexp._canvas.legacy.Legacy object at 0x05B87E90>,75,SpatProbMultiple3.osexp,C:/Userdata/Michel/SpatProbMultiple3,no,mono,no,18,no,white,no,yes,0.09,98,1050,legacy,315,62,62,1,C:/Userdata/Michel/SpatProbMultiple3/beh/subject-9.csv,legacy,12,192,25,Kafkaesque Koffka,3.2.5,yes,598477b2b83f69022949e7e9,47,green,circular,red,circular,0,/,1376,space,4134,4134,"(80, 80, 80)","(0, 123, 0)","(177, 0, 0)","(155, 155, 155)",2,legacy,experiment,"[0, 1, 2, 3, 4, 5, 6, 7]",/,2500,3000,0,8,252.7587515,1024,2,48000,-16,main,"[(0, -252), (178, -178), (252, 0), (178, 178), (0, 252), (-178, 178), (-252, 0), (-178, -178)]",[],33,odd,4,NA,95992,148163,148163,24864,23855,1924,29705,29704,1924,1924,28998,318469,1923,148163,317089,316303,316303,NA,778,study_X,0,4134,1,yes,1680
undefined,undefined,NA,NA,NA,4134,4134,black,no,legacy,legacy,legacy,0,red,"(177, 0, 0)",shape,present,highProb,rectangular,swap,swap,same,same,red,"(177, 0, 0)",lowProb,lowProb3,circular,uniform,1,undefined,0,0.296875,1,1,463.8385417,1,57,89057,0,0,0,0,0,0,0,0,89,0,1,0.296875,463.8385417,57,89057,88,88,88,11/21/2018 14:16,Default description,yes,<openexp._canvas.legacy.Legacy object at 0x05CB88D0>,<openexp._canvas.legacy.Legacy object at 0x05D4E9F0>,<openexp._canvas.legacy.Legacy object at 0x05CD08F0>,<openexp._canvas.legacy.Legacy object at 0x05B32930>,<openexp._canvas.legacy.Legacy object at 0x05B22190>,<openexp._canvas.legacy.Legacy object at 0x05CAC290>,<openexp._canvas.legacy.Legacy object at 0x05B37CF0>,<openexp._canvas.legacy.Legacy object at 0x05B87E90>,75,SpatProbMultiple3.osexp,C:/Userdata/Michel/SpatProbMultiple3,no,mono,no,18,no,white,no,yes,0.09,98,1050,legacy,45,63,63,1,C:/Userdata/Michel/SpatProbMultiple3/beh/subject-9.csv,legacy,12,192,25,Kafkaesque Koffka,3.2.5,yes,598477b2b83f69022949e7e9,47,red,rectangular,red,circular,0,\,786,space,4134,4134,"(80, 80, 80)","(0, 123, 0)","(177, 0, 0)","(155, 155, 155)",2,legacy,experiment,"[0, 1, 2, 3, 4, 5, 6, 7]",\,2500,3000,0,8,252.7587515,1024,2,48000,-16,main,"[(0, -252), (178, -178), (252, 0), (178, 178), (0, 252), (-178, 178), (-252, 0), (-178, -178)]",[],33,odd,3,NA,95992,148163,148163,24864,23855,1924,29705,29704,1924,1924,28998,320477,1923,148163,319688,318901,318901,NA,778,study_X,0,4134,1,yes,1680
undefined,undefined,NA,NA,NA,4134,4134,black,no,legacy,legacy,legacy,0,green,"(0, 123, 0)",shape,present,lowProb3,rectangular,swap,same,swap,same,green,"(0, 123, 0)",highProbColor,highProbColor,circular,uniform,1,undefined,0,0.302083333,1,1,474.3697917,1,58,91079,0,0,0,0,0,0,0,0,90,0,1,0.302083333,474.3697917,58,91079,89,89,89,11/21/2018 14:16,Default description,yes,<openexp._canvas.legacy.Legacy object at 0x05CB88D0>,<openexp._canvas.legacy.Legacy object at 0x05D4E9F0>,<openexp._canvas.legacy.Legacy object at 0x05CD08F0>,<openexp._canvas.legacy.Legacy object at 0x05B32930>,<openexp._canvas.legacy.Legacy object at 0x05B22190>,<openexp._canvas.legacy.Legacy object at 0x05CAC290>,<openexp._canvas.legacy.Legacy object at 0x05D55570>,<openexp._canvas.legacy.Legacy object at 0x05B87E90>,75,SpatProbMultiple3.osexp,C:/Userdata/Michel/SpatProbMultiple3,no,mono,no,18,no,white,no,yes,0.09,98,1050,legacy,315,64,64,1,C:/Userdata/Michel/SpatProbMultiple3/beh/subject-9.csv,legacy,12,192,25,Kafkaesque Koffka,3.2.5,yes,598477b2b83f69022949e7e9,47,green,rectangular,green,circular,0,/,2022,space,4134,4134,"(80, 80, 80)","(0, 123, 0)","(177, 0, 0)","(155, 155, 155)",2,legacy,experiment,"[0, 1, 2, 3, 4, 5, 6, 7]",/,2500,3000,0,8,252.7587515,1024,2,48000,-16,main,"[(0, -252), (178, -178), (252, 0), (178, 178), (0, 252), (-178, 178), (-252, 0), (-178, -178)]",[],33,odd,0,NA,95992,148163,148163,24864,23855,1924,29705,29704,1924,1924,28998,323748,1923,148163,321724,320937,320937,NA,778,study_X,0,4134,1,yes,1680
