"acc","accuracy","average_response_time","avg_rt","background","bidi","canvas_backend","clock_backend","color_backend","compensation","cond_disColor","cond_disColorRGB","cond_disFeature","cond_disPresent","cond_disProbability","cond_disShape","cond_primingDisColor","cond_primingDisShape","cond_primingTarColor","cond_primingTarShape","cond_tarColor","cond_tarColorRGB","cond_tarLocation","cond_tarLocationLong","cond_tarShape","coordinates","correct","correct_continuePress","count_blockAcc","count_blockFeed","count_blockLoop","count_blockRT","count_blockSeq","count_blockSumCorrect","count_blockSumRT","count_continuePress","count_example","count_expSettings","count_exp_mainLoop","count_experiment","count_instructions","count_instructions1","count_instructions2","count_log","count_main","count_prepCanvas","count_totalAcc","count_totalRT","count_totalSumCorrect","count_totalSumRT","count_trialResp","count_trialSeq","count_trialTask","datetime","description","disable_garbage_collection","dispBlank","dispBlockStart","dispFeedBlock","dispFix","dispInstructions","dispSearch","dispStartScreen","distance2screen","experiment_file","experiment_path","font_bold","font_family","font_italic","font_size","font_underline","foreground","form_clicks","fullscreen","gaborFreq","gaborSize","height","keyboard_backend","lineOriTar","live_row","live_row_blockLoop","live_row_exp_mainLoop","logfile","mouse_backend","noExpBlocks","noExpTrials","noPracTrials","opensesame_codename","opensesame_version","osf_always_upload_experiment","osf_id","physical_screensize","previousDisColor","previousDisShape","previousTarColor","previousTarShape","repeat_cycle","response","responseTime","response_continuePress","response_time","response_time_continuePress","rgb_gray","rgb_green","rgb_red","rgb_white","round_decimals","sampler_backend","set_blockType","set_counterPositions","set_respCorrect","set_respTimeoutExp","set_respTimeoutPrac","set_rotation","set_setSize","sizeImaginary","sound_buf_size","sound_channels","sound_freq","sound_sample_size","start","stimPositions","stimuli","subject_nr","subject_parity","tarIdx","time_blockFeed","time_blockLoop","time_blockSeq","time_continuePress","time_example","time_expSettings","time_exp_mainLoop","time_experiment","time_instructions","time_instructions1","time_instructions2","time_log","time_main","time_prepCanvas","time_trialResp","time_trialSeq","time_trialTask","timing_EEGwait","timing_fix","title","total_correct","total_response_time","total_responses","uniform_coordinates","width"
"undefined","undefined","20780","20780","black","no","legacy","legacy","legacy","0","green","(0, 122, 0)","shape","present","lowProb4","circular","swap","swap","same","same","green","(0, 122, 0)","highProbShape","highProbShape","rectangular","uniform","1","undefined","0.00520833333333","1","1","7.19270833333","1","1","1381","0","0","0","0","0","0","0","0","25","0","1","0.00520833333333","7.19270833333","1","1381","25","25","25","08/17/17 12:07:45","Default description","yes","<openexp._canvas.legacy.legacy object at 0x0499F7F0>","<openexp._canvas.legacy.legacy object at 0x049AA7B0>","<openexp._canvas.legacy.legacy object at 0x04994410>","<openexp._canvas.legacy.legacy object at 0x04A8C9D0>","<openexp._canvas.legacy.legacy object at 0x04A5E4B0>","<openexp._canvas.legacy.legacy object at 0x0499B550>","<openexp._canvas.legacy.legacy object at 0x04A5F910>","75","IndividualPriorityWithDis_v1.osexp","C:/Userdata/Michel/IndividualPriorityMaps/Experiment2","no","mono","no","18","no","white","no","yes","0.09","98","1050","legacy","45","0","0","1","C:/Userdata/Michel/IndividualPriorityMaps/Experiment2/data/subject-6.csv","legacy","9","192","25","Jazzy James","3.1.3","yes","598477b2b83f69022949e7e9","47","green","circular","green","rectangular","0","\","1381","space","20780","20780","(80, 80, 80)","(0, 122, 0)","(179, 0, 0)","(155, 155, 155)","2","legacy","experiment","[5, 6, 7, 0, 1, 2, 3, 4]","\","2500","3000","0","8","252.758751519","1024","2","48000","-16","main","[(0, -252), (178, -178), (252, 0), (178, 178), (0, 252), (-178, 178), (-252, 0), (-178, -178)]","[]","6","even","1","118326","178154","178154","18144","17136","1771","41259","41259","1771","1771","38924","185811","1770","178154","184426","178545","178545","NA","799","study_X","0","20780","1","yes","1680"
"undefined","undefined","20780","20780","black","no","legacy","legacy","legacy","0","red","(179, 0, 0)","shape","absent","lowProb4","rectangular","swap","swap","swap","same","red","(179, 0, 0)","highProbColor","highProbColor","rectangular","uniform","1","undefined","0.0104166666667","1","1","15.1145833333","1","2","2902","0","0","0","0","0","0","0","0","26","0","1","0.0104166666667","15.1145833333","2","2902","26","26","26","08/17/17 12:07:45","Default description","yes","<openexp._canvas.legacy.legacy object at 0x0499F7F0>","<openexp._canvas.legacy.legacy object at 0x049AA7B0>","<openexp._canvas.legacy.legacy object at 0x04994410>","<openexp._canvas.legacy.legacy object at 0x04A8C9D0>","<openexp._canvas.legacy.legacy object at 0x04A5E4B0>","<openexp._canvas.legacy.legacy object at 0x049AAFB0>","<openexp._canvas.legacy.legacy object at 0x04A5F910>","75","IndividualPriorityWithDis_v1.osexp","C:/Userdata/Michel/IndividualPriorityMaps/Experiment2","no","mono","no","18","no","white","no","yes","0.09","98","1050","legacy","315","1","1","1","C:/Userdata/Michel/IndividualPriorityMaps/Experiment2/data/subject-6.csv","legacy","9","192","25","Jazzy James","3.1.3","yes","598477b2b83f69022949e7e9","47","red","rectangular","red","rectangular","0","/","1521","space","20780","20780","(80, 80, 80)","(0, 122, 0)","(179, 0, 0)","(155, 155, 155)","2","legacy","experiment","[5, 6, 7, 0, 1, 2, 3, 4]","/","2500","3000","0","8","252.758751519","1024","2","48000","-16","main","[(0, -252), (178, -178), (252, 0), (178, 178), (0, 252), (-178, 178), (-252, 0), (-178, -178)]","[]","6","even","5","118326","178154","178154","18144","17136","1771","41259","41259","1771","1771","38924","188618","1770","178154","187094","186287","186287","NA","799","study_X","0","20780","1","yes","1680"
"undefined","undefined","20780","20780","black","no","legacy","legacy","legacy","0","green","(0, 122, 0)","color","absent","lowProb6","circular","swap","swap","swap","swap","green","(0, 122, 0)","lowProb","lowProb6","circular","uniform","1","undefined","0.015625","1","1","26.6302083333","1","3","5113","0","0","0","0","0","0","0","0","27","0","1","0.015625","26.6302083333","3","5113","27","27","27","08/17/17 12:07:45","Default description","yes","<openexp._canvas.legacy.legacy object at 0x0499F7F0>","<openexp._canvas.legacy.legacy object at 0x049AA7B0>","<openexp._canvas.legacy.legacy object at 0x04994410>","<openexp._canvas.legacy.legacy object at 0x04A8C9D0>","<openexp._canvas.legacy.legacy object at 0x04A5E4B0>","<openexp._canvas.legacy.legacy object at 0x0499C950>","<openexp._canvas.legacy.legacy object at 0x04A5F910>","75","IndividualPriorityWithDis_v1.osexp","C:/Userdata/Michel/IndividualPriorityMaps/Experiment2","no","mono","no","18","no","white","no","yes","0.09","98","1050","legacy","45","2","2","1","C:/Userdata/Michel/IndividualPriorityMaps/Experiment2/data/subject-6.csv","legacy","9","192","25","Jazzy James","3.1.3","yes","598477b2b83f69022949e7e9","47","green","circular","green","circular","0","\","2211","space","20780","20780","(80, 80, 80)","(0, 122, 0)","(179, 0, 0)","(155, 155, 155)","2","legacy","experiment","[5, 6, 7, 0, 1, 2, 3, 4]","\","2500","3000","0","8","252.758751519","1024","2","48000","-16","main","[(0, -252), (178, -178), (252, 0), (178, 178), (0, 252), (-178, 178), (-252, 0), (-178, -178)]","[]","6","even","4","118326","178154","178154","18144","17136","1771","41259","41259","1771","1771","38924","192067","1770","178154","189854","189046","189047","NA","799","study_X","0","20780","1","yes","1680"
"undefined","undefined","20780","20780","black","no","legacy","legacy","legacy","0","green","(0, 122, 0)","shape","present","lowProb3","rectangular","same","swap","same","same","green","(0, 122, 0)","lowProb","lowProb4","circular","uniform","1","undefined","0.0208333333333","1","1","33.34375","1","4","6402","0","0","0","0","0","0","0","0","28","0","1","0.0208333333333","33.34375","4","6402","28","28","28","08/17/17 12:07:45","Default description","yes","<openexp._canvas.legacy.legacy object at 0x0499F7F0>","<openexp._canvas.legacy.legacy object at 0x049AA7B0>","<openexp._canvas.legacy.legacy object at 0x04994410>","<openexp._canvas.legacy.legacy object at 0x04A8C9D0>","<openexp._canvas.legacy.legacy object at 0x04A5E4B0>","<openexp._canvas.legacy.legacy object at 0x04994250>","<openexp._canvas.legacy.legacy object at 0x04A5F910>","75","IndividualPriorityWithDis_v1.osexp","C:/Userdata/Michel/IndividualPriorityMaps/Experiment2","no","mono","no","18","no","white","no","yes","0.09","98","1050","legacy","315","3","3","1","C:/Userdata/Michel/IndividualPriorityMaps/Experiment2/data/subject-6.csv","legacy","9","192","25","Jazzy James","3.1.3","yes","598477b2b83f69022949e7e9","47","green","rectangular","green","circular","0","/","1289","space","20780","20780","(80, 80, 80)","(0, 122, 0)","(179, 0, 0)","(155, 155, 155)","2","legacy","experiment","[5, 6, 7, 0, 1, 2, 3, 4]","/","2500","3000","0","8","252.758751519","1024","2","48000","-16","main","[(0, -252), (178, -178), (252, 0), (178, 178), (0, 252), (-178, 178), (-252, 0), (-178, -178)]","[]","6","even","2","118326","178154","178154","18144","17136","1771","41259","41259","1771","1771","38924","194587","1770","178154","193295","192488","192488","NA","799","study_X","0","20780","1","yes","1680"
"undefined","undefined","20780","20780","black","no","legacy","legacy","legacy","0","green","(0, 122, 0)","color","absent","highProbOther","rectangular","same","same","same","swap","green","(0, 122, 0)","lowProb","lowProb2","rectangular","uniform","1","undefined","0.0260416666667","1","1","39.4166666667","1","5","7568","0","0","0","0","0","0","0","0","29","0","1","0.0260416666667","39.4166666667","5","7568","29","29","29","08/17/17 12:07:45","Default description","yes","<openexp._canvas.legacy.legacy object at 0x0499F7F0>","<openexp._canvas.legacy.legacy object at 0x049AA7B0>","<openexp._canvas.legacy.legacy object at 0x04994410>","<openexp._canvas.legacy.legacy object at 0x04A8C9D0>","<openexp._canvas.legacy.legacy object at 0x04A5E4B0>","<openexp._canvas.legacy.legacy object at 0x0499CF50>","<openexp._canvas.legacy.legacy object at 0x04A5F910>","75","IndividualPriorityWithDis_v1.osexp","C:/Userdata/Michel/IndividualPriorityMaps/Experiment2","no","mono","no","18","no","white","no","yes","0.09","98","1050","legacy","315","4","4","1","C:/Userdata/Michel/IndividualPriorityMaps/Experiment2/data/subject-6.csv","legacy","9","192","25","Jazzy James","3.1.3","yes","598477b2b83f69022949e7e9","47","green","rectangular","green","rectangular","0","/","1166","space","20780","20780","(80, 80, 80)","(0, 122, 0)","(179, 0, 0)","(155, 155, 155)","2","legacy","experiment","[5, 6, 7, 0, 1, 2, 3, 4]","/","2500","3000","0","8","252.758751519","1024","2","48000","-16","main","[(0, -252), (178, -178), (252, 0), (178, 178), (0, 252), (-178, 178), (-252, 0), (-178, -178)]","[]","6","even","7","118326","178154","178154","18144","17136","1771","41259","41259","1771","1771","38924","196979","1770","178154","195810","195003","195003","NA","799","study_X","0","20780","1","yes","1680"
"undefined","undefined","20780","20780","black","no","legacy","legacy","legacy","0","red","(179, 0, 0)","color","present","highProb","circular","swap","swap","same","swap","green","(0, 122, 0)","lowProb","lowProb5","circular","uniform","1","undefined","0.03125","1","1","47.4791666667","1","6","9116","0","0","0","0","0","0","0","0","30","0","1","0.03125","47.4791666667","6","9116","30","30","30","08/17/17 12:07:45","Default description","yes","<openexp._canvas.legacy.legacy object at 0x0499F7F0>","<openexp._canvas.legacy.legacy object at 0x049AA7B0>","<openexp._canvas.legacy.legacy object at 0x04994410>","<openexp._canvas.legacy.legacy object at 0x04A8C9D0>","<openexp._canvas.legacy.legacy object at 0x04A5E4B0>","<openexp._canvas.legacy.legacy object at 0x04A8C2B0>","<openexp._canvas.legacy.legacy object at 0x04A5F910>","75","IndividualPriorityWithDis_v1.osexp","C:/Userdata/Michel/IndividualPriorityMaps/Experiment2","no","mono","no","18","no","white","no","yes","0.09","98","1050","legacy","315","5","5","1","C:/Userdata/Michel/IndividualPriorityMaps/Experiment2/data/subject-6.csv","legacy","9","192","25","Jazzy James","3.1.3","yes","598477b2b83f69022949e7e9","47","red","circular","green","circular","0","/","1548","space","20780","20780","(80, 80, 80)","(0, 122, 0)","(179, 0, 0)","(155, 155, 155)","2","legacy","experiment","[5, 6, 7, 0, 1, 2, 3, 4]","/","2500","3000","0","8","252.758751519","1024","2","48000","-16","main","[(0, -252), (178, -178), (252, 0), (178, 178), (0, 252), (-178, 178), (-252, 0), (-178, -178)]","[]","6","even","3","118326","178154","178154","18144","17136","1771","41259","41259","1771","1771","38924","199763","1770","178154","198211","197404","197404","NA","799","study_X","0","20780","1","yes","1680"
"undefined","undefined","20780","20780","black","no","legacy","legacy","legacy","0","red","(179, 0, 0)","color","present","highProb","rectangular","same","swap","same","swap","green","(0, 122, 0)","lowProb","lowProb6","rectangular","uniform","1","undefined","0.0364583333333","1","1","56.2135416667","1","7","10793","0","0","0","0","0","0","0","0","31","0","1","0.0364583333333","56.2135416667","7","10793","31","31","31","08/17/17 12:07:45","Default description","yes","<openexp._canvas.legacy.legacy object at 0x0499F7F0>","<openexp._canvas.legacy.legacy object at 0x049AA7B0>","<openexp._canvas.legacy.legacy object at 0x04994410>","<openexp._canvas.legacy.legacy object at 0x04A8C9D0>","<openexp._canvas.legacy.legacy object at 0x04A5E4B0>","<openexp._canvas.legacy.legacy object at 0x04994ED0>","<openexp._canvas.legacy.legacy object at 0x04A5F910>","75","IndividualPriorityWithDis_v1.osexp","C:/Userdata/Michel/IndividualPriorityMaps/Experiment2","no","mono","no","18","no","white","no","yes","0.09","98","1050","legacy","315","6","6","1","C:/Userdata/Michel/IndividualPriorityMaps/Experiment2/data/subject-6.csv","legacy","9","192","25","Jazzy James","3.1.3","yes","598477b2b83f69022949e7e9","47","red","rectangular","green","rectangular","0","/","1677","space","20780","20780","(80, 80, 80)","(0, 122, 0)","(179, 0, 0)","(155, 155, 155)","2","legacy","experiment","[5, 6, 7, 0, 1, 2, 3, 4]","/","2500","3000","0","8","252.758751519","1024","2","48000","-16","main","[(0, -252), (178, -178), (252, 0), (178, 178), (0, 252), (-178, 178), (-252, 0), (-178, -178)]","[]","6","even","4","118326","178154","178154","18144","17136","1771","41259","41259","1771","1771","38924","202675","1770","178154","200994","200187","200187","NA","799","study_X","0","20780","1","yes","1680"
"undefined","undefined","20780","20780","black","no","legacy","legacy","legacy","0","green","(0, 122, 0)","shape","absent","lowProb5","circular","swap","swap","same","swap","green","(0, 122, 0)","highProbColor","highProbColor","circular","uniform","1","undefined","0.0416666666667","1","1","62.09375","1","8","11922","0","0","0","0","0","0","0","0","32","0","1","0.0416666666667","62.09375","8","11922","32","32","32","08/17/17 12:07:45","Default description","yes","<openexp._canvas.legacy.legacy object at 0x0499F7F0>","<openexp._canvas.legacy.legacy object at 0x049AA7B0>","<openexp._canvas.legacy.legacy object at 0x04994410>","<openexp._canvas.legacy.legacy object at 0x04A8C9D0>","<openexp._canvas.legacy.legacy object at 0x04A5E4B0>","<openexp._canvas.legacy.legacy object at 0x0499B550>","<openexp._canvas.legacy.legacy object at 0x04A5F910>","75","IndividualPriorityWithDis_v1.osexp","C:/Userdata/Michel/IndividualPriorityMaps/Experiment2","no","mono","no","18","no","white","no","yes","0.09","98","1050","legacy","315","7","7","1","C:/Userdata/Michel/IndividualPriorityMaps/Experiment2/data/subject-6.csv","legacy","9","192","25","Jazzy James","3.1.3","yes","598477b2b83f69022949e7e9","47","green","circular","green","circular","0","/","1129","space","20780","20780","(80, 80, 80)","(0, 122, 0)","(179, 0, 0)","(155, 155, 155)","2","legacy","experiment","[5, 6, 7, 0, 1, 2, 3, 4]","/","2500","3000","0","8","252.758751519","1024","2","48000","-16","main","[(0, -252), (178, -178), (252, 0), (178, 178), (0, 252), (-178, 178), (-252, 0), (-178, -178)]","[]","6","even","5","118326","178154","178154","18144","17136","1771","41259","41259","1771","1771","38924","205034","1770","178154","203902","203095","203095","NA","799","study_X","0","20780","1","yes","1680"
"undefined","undefined","20780","20780","black","no","legacy","legacy","legacy","0","red","(179, 0, 0)","color","present","highProb","circular","swap","same","same","same","green","(0, 122, 0)","lowProb","lowProb1","circular","uniform","1","undefined","0.046875","1","1","67.4583333333","1","9","12952","0","0","0","0","0","0","0","0","33","0","1","0.046875","67.4583333333","9","12952","33","33","33","08/17/17 12:07:45","Default description","yes","<openexp._canvas.legacy.legacy object at 0x0499F7F0>","<openexp._canvas.legacy.legacy object at 0x049AA7B0>","<openexp._canvas.legacy.legacy object at 0x04994410>","<openexp._canvas.legacy.legacy object at 0x04A8C9D0>","<openexp._canvas.legacy.legacy object at 0x04A5E4B0>","<openexp._canvas.legacy.legacy object at 0x04A8CAB0>","<openexp._canvas.legacy.legacy object at 0x04A5F910>","75","IndividualPriorityWithDis_v1.osexp","C:/Userdata/Michel/IndividualPriorityMaps/Experiment2","no","mono","no","18","no","white","no","yes","0.09","98","1050","legacy","315","8","8","1","C:/Userdata/Michel/IndividualPriorityMaps/Experiment2/data/subject-6.csv","legacy","9","192","25","Jazzy James","3.1.3","yes","598477b2b83f69022949e7e9","47","red","circular","green","circular","0","/","1030","space","20780","20780","(80, 80, 80)","(0, 122, 0)","(179, 0, 0)","(155, 155, 155)","2","legacy","experiment","[5, 6, 7, 0, 1, 2, 3, 4]","/","2500","3000","0","8","252.758751519","1024","2","48000","-16","main","[(0, -252), (178, -178), (252, 0), (178, 178), (0, 252), (-178, 178), (-252, 0), (-178, -178)]","[]","6","even","6","118326","178154","178154","18144","17136","1771","41259","41259","1771","1771","38924","207331","1770","178154","206297","205491","205491","NA","799","study_X","0","20780","1","yes","1680"
"undefined","undefined","20780","20780","black","no","legacy","legacy","legacy","0","green","(0, 122, 0)","color","present","lowProb6","rectangular","swap","swap","swap","swap","red","(179, 0, 0)","highProbShape","highProbShape","rectangular","uniform","1","undefined","0.0520833333333","1","1","74.21875","1","10","14250","0","0","0","0","0","0","0","0","34","0","1","0.0520833333333","74.21875","10","14250","34","34","34","08/17/17 12:07:45","Default description","yes","<openexp._canvas.legacy.legacy object at 0x0499F7F0>","<openexp._canvas.legacy.legacy object at 0x049AA7B0>","<openexp._canvas.legacy.legacy object at 0x04994410>","<openexp._canvas.legacy.legacy object at 0x04A8C9D0>","<openexp._canvas.legacy.legacy object at 0x04A5E4B0>","<openexp._canvas.legacy.legacy object at 0x04A8C250>","<openexp._canvas.legacy.legacy object at 0x04A5F910>","75","IndividualPriorityWithDis_v1.osexp","C:/Userdata/Michel/IndividualPriorityMaps/Experiment2","no","mono","no","18","no","white","no","yes","0.09","98","1050","legacy","45","9","9","1","C:/Userdata/Michel/IndividualPriorityMaps/Experiment2/data/subject-6.csv","legacy","9","192","25","Jazzy James","3.1.3","yes","598477b2b83f69022949e7e9","47","green","rectangular","red","rectangular","0","\","1298","space","20780","20780","(80, 80, 80)","(0, 122, 0)","(179, 0, 0)","(155, 155, 155)","2","legacy","experiment","[5, 6, 7, 0, 1, 2, 3, 4]","\","2500","3000","0","8","252.758751519","1024","2","48000","-16","main","[(0, -252), (178, -178), (252, 0), (178, 178), (0, 252), (-178, 178), (-252, 0), (-178, -178)]","[]","6","even","1","118326","178154","178154","18144","17136","1771","41259","41259","1771","1771","38924","209851","1770","178154","208550","207743","207743","NA","799","study_X","0","20780","1","yes","1680"
"undefined","undefined","20780","20780","black","no","legacy","legacy","legacy","0","green","(0, 122, 0)","color","present","lowProb1","circular","same","swap","same","swap","red","(179, 0, 0)","lowProb","lowProb5","circular","uniform","1","undefined","0.0572916666667","1","1","81.4583333333","1","11","15640","0","0","0","0","0","0","0","0","35","0","1","0.0572916666667","81.4583333333","11","15640","35","35","35","08/17/17 12:07:45","Default description","yes","<openexp._canvas.legacy.legacy object at 0x0499F7F0>","<openexp._canvas.legacy.legacy object at 0x049AA7B0>","<openexp._canvas.legacy.legacy object at 0x04994410>","<openexp._canvas.legacy.legacy object at 0x04A8C9D0>","<openexp._canvas.legacy.legacy object at 0x04A5E4B0>","<openexp._canvas.legacy.legacy object at 0x04994790>","<openexp._canvas.legacy.legacy object at 0x04A5F910>","75","IndividualPriorityWithDis_v1.osexp","C:/Userdata/Michel/IndividualPriorityMaps/Experiment2","no","mono","no","18","no","white","no","yes","0.09","98","1050","legacy","315","10","10","1","C:/Userdata/Michel/IndividualPriorityMaps/Experiment2/data/subject-6.csv","legacy","9","192","25","Jazzy James","3.1.3","yes","598477b2b83f69022949e7e9","47","green","circular","red","circular","0","/","1390","space","20780","20780","(80, 80, 80)","(0, 122, 0)","(179, 0, 0)","(155, 155, 155)","2","legacy","experiment","[5, 6, 7, 0, 1, 2, 3, 4]","/","2500","3000","0","8","252.758751519","1024","2","48000","-16","main","[(0, -252), (178, -178), (252, 0), (178, 178), (0, 252), (-178, 178), (-252, 0), (-178, -178)]","[]","6","even","3","118326","178154","178154","18144","17136","1771","41259","41259","1771","1771","38924","212475","1770","178154","211082","210275","210275","NA","799","study_X","0","20780","1","yes","1680"
"undefined","undefined","20780","20780","black","no","legacy","legacy","legacy","0","red","(179, 0, 0)","shape","present","highProb","rectangular","swap","swap","same","same","red","(179, 0, 0)","lowProb","lowProb4","circular","uniform","1","undefined","0.0625","1","1","89.390625","1","12","17163","0","0","0","0","0","0","0","0","36","0","1","0.0625","89.390625","12","17163","36","36","36","08/17/17 12:07:45","Default description","yes","<openexp._canvas.legacy.legacy object at 0x0499F7F0>","<openexp._canvas.legacy.legacy object at 0x049AA7B0>","<openexp._canvas.legacy.legacy object at 0x04994410>","<openexp._canvas.legacy.legacy object at 0x04A8C9D0>","<openexp._canvas.legacy.legacy object at 0x04A5E4B0>","<openexp._canvas.legacy.legacy object at 0x04994C90>","<openexp._canvas.legacy.legacy object at 0x04A5F910>","75","IndividualPriorityWithDis_v1.osexp","C:/Userdata/Michel/IndividualPriorityMaps/Experiment2","no","mono","no","18","no","white","no","yes","0.09","98","1050","legacy","315","11","11","1","C:/Userdata/Michel/IndividualPriorityMaps/Experiment2/data/subject-6.csv","legacy","9","192","25","Jazzy James","3.1.3","yes","598477b2b83f69022949e7e9","47","red","rectangular","red","circular","0","/","1523","space","20780","20780","(80, 80, 80)","(0, 122, 0)","(179, 0, 0)","(155, 155, 155)","2","legacy","experiment","[5, 6, 7, 0, 1, 2, 3, 4]","/","2500","3000","0","8","252.758751519","1024","2","48000","-16","main","[(0, -252), (178, -178), (252, 0), (178, 178), (0, 252), (-178, 178), (-252, 0), (-178, -178)]","[]","6","even","2","118326","178154","178154","18144","17136","1771","41259","41259","1771","1771","38924","215227","1770","178154","213700","212893","212893","NA","799","study_X","0","20780","1","yes","1680"
"undefined","undefined","20780","20780","black","no","legacy","legacy","legacy","0","green","(0, 122, 0)","color","present","lowProb4","circular","swap","swap","same","same","red","(179, 0, 0)","highProbColor","highProbColor","circular","uniform","1","undefined","0.0677083333333","1","1","94.2239583333","1","13","18091","0","0","0","0","0","0","0","0","37","0","1","0.0677083333333","94.2239583333","13","18091","37","37","37","08/17/17 12:07:45","Default description","yes","<openexp._canvas.legacy.legacy object at 0x0499F7F0>","<openexp._canvas.legacy.legacy object at 0x049AA7B0>","<openexp._canvas.legacy.legacy object at 0x04994410>","<openexp._canvas.legacy.legacy object at 0x04A8C9D0>","<openexp._canvas.legacy.legacy object at 0x04A5E4B0>","<openexp._canvas.legacy.legacy object at 0x04A8C8B0>","<openexp._canvas.legacy.legacy object at 0x04A5F910>","75","IndividualPriorityWithDis_v1.osexp","C:/Userdata/Michel/IndividualPriorityMaps/Experiment2","no","mono","no","18","no","white","no","yes","0.09","98","1050","legacy","315","12","12","1","C:/Userdata/Michel/IndividualPriorityMaps/Experiment2/data/subject-6.csv","legacy","9","192","25","Jazzy James","3.1.3","yes","598477b2b83f69022949e7e9","47","green","circular","red","circular","0","/","928","space","20780","20780","(80, 80, 80)","(0, 122, 0)","(179, 0, 0)","(155, 155, 155)","2","legacy","experiment","[5, 6, 7, 0, 1, 2, 3, 4]","/","2500","3000","0","8","252.758751519","1024","2","48000","-16","main","[(0, -252), (178, -178), (252, 0), (178, 178), (0, 252), (-178, 178), (-252, 0), (-178, -178)]","[]","6","even","5","118326","178154","178154","18144","17136","1771","41259","41259","1771","1771","38924","217387","1770","178154","216455","215648","215648","NA","799","study_X","0","20780","1","yes","1680"
"undefined","undefined","20780","20780","black","no","legacy","legacy","legacy","0","red","(179, 0, 0)","shape","present","highProb","rectangular","swap","swap","same","same","red","(179, 0, 0)","highProbColor","highProbColor","circular","uniform","1","undefined","0.0729166666667","1","1","102.489583333","1","14","19678","0","0","0","0","0","0","0","0","38","0","1","0.0729166666667","102.489583333","14","19678","38","38","38","08/17/17 12:07:45","Default description","yes","<openexp._canvas.legacy.legacy object at 0x0499F7F0>","<openexp._canvas.legacy.legacy object at 0x049AA7B0>","<openexp._canvas.legacy.legacy object at 0x04994410>","<openexp._canvas.legacy.legacy object at 0x04A8C9D0>","<openexp._canvas.legacy.legacy object at 0x04A5E4B0>","<openexp._canvas.legacy.legacy object at 0x049AAD50>","<openexp._canvas.legacy.legacy object at 0x04A5F910>","75","IndividualPriorityWithDis_v1.osexp","C:/Userdata/Michel/IndividualPriorityMaps/Experiment2","no","mono","no","18","no","white","no","yes","0.09","98","1050","legacy","315","13","13","1","C:/Userdata/Michel/IndividualPriorityMaps/Experiment2/data/subject-6.csv","legacy","9","192","25","Jazzy James","3.1.3","yes","598477b2b83f69022949e7e9","47","red","rectangular","red","circular","0","/","1587","space","20780","20780","(80, 80, 80)","(0, 122, 0)","(179, 0, 0)","(155, 155, 155)","2","legacy","experiment","[5, 6, 7, 0, 1, 2, 3, 4]","/","2500","3000","0","8","252.758751519","1024","2","48000","-16","main","[(0, -252), (178, -178), (252, 0), (178, 178), (0, 252), (-178, 178), (-252, 0), (-178, -178)]","[]","6","even","5","118326","178154","178154","18144","17136","1771","41259","41259","1771","1771","38924","220202","1770","178154","218612","217805","217805","NA","799","study_X","0","20780","1","yes","1680"
"undefined","undefined","20780","20780","black","no","legacy","legacy","legacy","0","red","(179, 0, 0)","color","absent","lowProb1","circular","same","swap","same","same","red","(179, 0, 0)","lowProb","lowProb4","circular","uniform","1","undefined","0.078125","1","1","112.526041667","1","15","21605","0","0","0","0","0","0","0","0","39","0","1","0.078125","112.526041667","15","21605","39","39","39","08/17/17 12:07:45","Default description","yes","<openexp._canvas.legacy.legacy object at 0x0499F7F0>","<openexp._canvas.legacy.legacy object at 0x049AA7B0>","<openexp._canvas.legacy.legacy object at 0x04994410>","<openexp._canvas.legacy.legacy object at 0x04A8C9D0>","<openexp._canvas.legacy.legacy object at 0x04A5E4B0>","<openexp._canvas.legacy.legacy object at 0x04A88B10>","<openexp._canvas.legacy.legacy object at 0x04A5F910>","75","IndividualPriorityWithDis_v1.osexp","C:/Userdata/Michel/IndividualPriorityMaps/Experiment2","no","mono","no","18","no","white","no","yes","0.09","98","1050","legacy","315","14","14","1","C:/Userdata/Michel/IndividualPriorityMaps/Experiment2/data/subject-6.csv","legacy","9","192","25","Jazzy James","3.1.3","yes","598477b2b83f69022949e7e9","47","red","circular","red","circular","0","/","1927","space","20780","20780","(80, 80, 80)","(0, 122, 0)","(179, 0, 0)","(155, 155, 155)","2","legacy","experiment","[5, 6, 7, 0, 1, 2, 3, 4]","/","2500","3000","0","8","252.758751519","1024","2","48000","-16","main","[(0, -252), (178, -178), (252, 0), (178, 178), (0, 252), (-178, 178), (-252, 0), (-178, -178)]","[]","6","even","2","118326","178154","178154","18144","17136","1771","41259","41259","1771","1771","38924","223370","1770","178154","221441","220634","220634","NA","799","study_X","0","20780","1","yes","1680"
"undefined","undefined","20780","20780","black","no","legacy","legacy","legacy","0","red","(179, 0, 0)","shape","present","highProb","rectangular","same","swap","same","same","red","(179, 0, 0)","lowProb","lowProb4","circular","uniform","1","undefined","0.0833333333333","1","1","121.822916667","1","16","23390","0","0","0","0","0","0","0","0","40","0","1","0.0833333333333","121.822916667","16","23390","40","40","40","08/17/17 12:07:45","Default description","yes","<openexp._canvas.legacy.legacy object at 0x0499F7F0>","<openexp._canvas.legacy.legacy object at 0x049AA7B0>","<openexp._canvas.legacy.legacy object at 0x04994410>","<openexp._canvas.legacy.legacy object at 0x04A8C9D0>","<openexp._canvas.legacy.legacy object at 0x04A5E4B0>","<openexp._canvas.legacy.legacy object at 0x0499BE70>","<openexp._canvas.legacy.legacy object at 0x04A5F910>","75","IndividualPriorityWithDis_v1.osexp","C:/Userdata/Michel/IndividualPriorityMaps/Experiment2","no","mono","no","18","no","white","no","yes","0.09","98","1050","legacy","45","15","15","1","C:/Userdata/Michel/IndividualPriorityMaps/Experiment2/data/subject-6.csv","legacy","9","192","25","Jazzy James","3.1.3","yes","598477b2b83f69022949e7e9","47","red","rectangular","red","circular","0","\","1785","space","20780","20780","(80, 80, 80)","(0, 122, 0)","(179, 0, 0)","(155, 155, 155)","2","legacy","experiment","[5, 6, 7, 0, 1, 2, 3, 4]","\","2500","3000","0","8","252.758751519","1024","2","48000","-16","main","[(0, -252), (178, -178), (252, 0), (178, 178), (0, 252), (-178, 178), (-252, 0), (-178, -178)]","[]","6","even","2","118326","178154","178154","18144","17136","1771","41259","41259","1771","1771","38924","226387","1770","178154","224599","223792","223792","NA","799","study_X","0","20780","1","yes","1680"
"undefined","undefined","20780","20780","black","no","legacy","legacy","legacy","0","red","(179, 0, 0)","color","present","highProb","rectangular","same","same","swap","swap","green","(0, 122, 0)","lowProb","lowProb4","rectangular","uniform","1","undefined","0.0885416666667","1","1","128.619791667","1","17","24695","0","0","0","0","0","0","0","0","41","0","1","0.0885416666667","128.619791667","17","24695","41","41","41","08/17/17 12:07:45","Default description","yes","<openexp._canvas.legacy.legacy object at 0x0499F7F0>","<openexp._canvas.legacy.legacy object at 0x049AA7B0>","<openexp._canvas.legacy.legacy object at 0x04994410>","<openexp._canvas.legacy.legacy object at 0x04A8C9D0>","<openexp._canvas.legacy.legacy object at 0x04A5E4B0>","<openexp._canvas.legacy.legacy object at 0x0499B490>","<openexp._canvas.legacy.legacy object at 0x04A5F910>","75","IndividualPriorityWithDis_v1.osexp","C:/Userdata/Michel/IndividualPriorityMaps/Experiment2","no","mono","no","18","no","white","no","yes","0.09","98","1050","legacy","45","16","16","1","C:/Userdata/Michel/IndividualPriorityMaps/Experiment2/data/subject-6.csv","legacy","9","192","25","Jazzy James","3.1.3","yes","598477b2b83f69022949e7e9","47","red","rectangular","green","rectangular","0","\","1305","space","20780","20780","(80, 80, 80)","(0, 122, 0)","(179, 0, 0)","(155, 155, 155)","2","legacy","experiment","[5, 6, 7, 0, 1, 2, 3, 4]","\","2500","3000","0","8","252.758751519","1024","2","48000","-16","main","[(0, -252), (178, -178), (252, 0), (178, 178), (0, 252), (-178, 178), (-252, 0), (-178, -178)]","[]","6","even","2","118326","178154","178154","18144","17136","1771","41259","41259","1771","1771","38924","228915","1770","178154","227607","226800","226800","NA","799","study_X","0","20780","1","yes","1680"
"undefined","undefined","20780","20780","black","no","legacy","legacy","legacy","0","red","(179, 0, 0)","shape","present","highProb","rectangular","same","same","swap","swap","red","(179, 0, 0)","lowProb","lowProb4","circular","uniform","1","undefined","0.09375","1","1","136.53125","1","18","26214","0","0","0","0","0","0","0","0","42","0","1","0.09375","136.53125","18","26214","42","42","42","08/17/17 12:07:45","Default description","yes","<openexp._canvas.legacy.legacy object at 0x0499F7F0>","<openexp._canvas.legacy.legacy object at 0x049AA7B0>","<openexp._canvas.legacy.legacy object at 0x04994410>","<openexp._canvas.legacy.legacy object at 0x04A8C9D0>","<openexp._canvas.legacy.legacy object at 0x04A5E4B0>","<openexp._canvas.legacy.legacy object at 0x049AA930>","<openexp._canvas.legacy.legacy object at 0x04A5F910>","75","IndividualPriorityWithDis_v1.osexp","C:/Userdata/Michel/IndividualPriorityMaps/Experiment2","no","mono","no","18","no","white","no","yes","0.09","98","1050","legacy","315","17","17","1","C:/Userdata/Michel/IndividualPriorityMaps/Experiment2/data/subject-6.csv","legacy","9","192","25","Jazzy James","3.1.3","yes","598477b2b83f69022949e7e9","47","red","rectangular","red","circular","0","/","1519","space","20780","20780","(80, 80, 80)","(0, 122, 0)","(179, 0, 0)","(155, 155, 155)","2","legacy","experiment","[5, 6, 7, 0, 1, 2, 3, 4]","/","2500","3000","0","8","252.758751519","1024","2","48000","-16","main","[(0, -252), (178, -178), (252, 0), (178, 178), (0, 252), (-178, 178), (-252, 0), (-178, -178)]","[]","6","even","2","118326","178154","178154","18144","17136","1771","41259","41259","1771","1771","38924","231675","1770","178154","230153","229346","229346","NA","799","study_X","0","20780","1","yes","1680"
"undefined","undefined","20780","20780","black","no","legacy","legacy","legacy","0","green","(0, 122, 0)","shape","absent","highProb","circular","swap","swap","swap","same","green","(0, 122, 0)","lowProb","lowProb6","circular","uniform","1","undefined","0.0989583333333","1","1","146.354166667","1","19","28100","0","0","0","0","0","0","0","0","43","0","1","0.0989583333333","146.354166667","19","28100","43","43","43","08/17/17 12:07:45","Default description","yes","<openexp._canvas.legacy.legacy object at 0x0499F7F0>","<openexp._canvas.legacy.legacy object at 0x049AA7B0>","<openexp._canvas.legacy.legacy object at 0x04994410>","<openexp._canvas.legacy.legacy object at 0x04A8C9D0>","<openexp._canvas.legacy.legacy object at 0x04A5E4B0>","<openexp._canvas.legacy.legacy object at 0x049AE650>","<openexp._canvas.legacy.legacy object at 0x04A5F910>","75","IndividualPriorityWithDis_v1.osexp","C:/Userdata/Michel/IndividualPriorityMaps/Experiment2","no","mono","no","18","no","white","no","yes","0.09","98","1050","legacy","45","18","18","1","C:/Userdata/Michel/IndividualPriorityMaps/Experiment2/data/subject-6.csv","legacy","9","192","25","Jazzy James","3.1.3","yes","598477b2b83f69022949e7e9","47","green","circular","green","circular","0","\","1886","space","20780","20780","(80, 80, 80)","(0, 122, 0)","(179, 0, 0)","(155, 155, 155)","2","legacy","experiment","[5, 6, 7, 0, 1, 2, 3, 4]","\","2500","3000","0","8","252.758751519","1024","2","48000","-16","main","[(0, -252), (178, -178), (252, 0), (178, 178), (0, 252), (-178, 178), (-252, 0), (-178, -178)]","[]","6","even","4","118326","178154","178154","18144","17136","1771","41259","41259","1771","1771","38924","234819","1770","178154","232929","232122","232122","NA","799","study_X","0","20780","1","yes","1680"
"undefined","undefined","20780","20780","black","no","legacy","legacy","legacy","0","green","(0, 122, 0)","color","present","highProb","rectangular","same","swap","swap","swap","red","(179, 0, 0)","highProbShape","highProbShape","rectangular","uniform","1","undefined","0.104166666667","1","1","153.828125","1","20","29535","0","0","0","0","0","0","0","0","44","0","1","0.104166666667","153.828125","20","29535","44","44","44","08/17/17 12:07:45","Default description","yes","<openexp._canvas.legacy.legacy object at 0x0499F7F0>","<openexp._canvas.legacy.legacy object at 0x049AA7B0>","<openexp._canvas.legacy.legacy object at 0x04994410>","<openexp._canvas.legacy.legacy object at 0x04A8C9D0>","<openexp._canvas.legacy.legacy object at 0x04A5E4B0>","<openexp._canvas.legacy.legacy object at 0x04994F50>","<openexp._canvas.legacy.legacy object at 0x04A5F910>","75","IndividualPriorityWithDis_v1.osexp","C:/Userdata/Michel/IndividualPriorityMaps/Experiment2","no","mono","no","18","no","white","no","yes","0.09","98","1050","legacy","315","19","19","1","C:/Userdata/Michel/IndividualPriorityMaps/Experiment2/data/subject-6.csv","legacy","9","192","25","Jazzy James","3.1.3","yes","598477b2b83f69022949e7e9","47","green","rectangular","red","rectangular","0","/","1435","space","20780","20780","(80, 80, 80)","(0, 122, 0)","(179, 0, 0)","(155, 155, 155)","2","legacy","experiment","[5, 6, 7, 0, 1, 2, 3, 4]","/","2500","3000","0","8","252.758751519","1024","2","48000","-16","main","[(0, -252), (178, -178), (252, 0), (178, 178), (0, 252), (-178, 178), (-252, 0), (-178, -178)]","[]","6","even","1","118326","178154","178154","18144","17136","1771","41259","41259","1771","1771","38924","237498","1770","178154","236060","235253","235253","NA","799","study_X","0","20780","1","yes","1680"
"undefined","undefined","20780","20780","black","no","legacy","legacy","legacy","0","green","(0, 122, 0)","shape","absent","highProb","circular","same","swap","swap","swap","green","(0, 122, 0)","lowProb","lowProb4","circular","uniform","1","undefined","0.109375","1","1","161.135416667","1","21","30938","0","0","0","0","0","0","0","0","45","0","1","0.109375","161.135416667","21","30938","45","45","45","08/17/17 12:07:45","Default description","yes","<openexp._canvas.legacy.legacy object at 0x0499F7F0>","<openexp._canvas.legacy.legacy object at 0x049AA7B0>","<openexp._canvas.legacy.legacy object at 0x04994410>","<openexp._canvas.legacy.legacy object at 0x04A8C9D0>","<openexp._canvas.legacy.legacy object at 0x04A5E4B0>","<openexp._canvas.legacy.legacy object at 0x0499B130>","<openexp._canvas.legacy.legacy object at 0x04A5F910>","75","IndividualPriorityWithDis_v1.osexp","C:/Userdata/Michel/IndividualPriorityMaps/Experiment2","no","mono","no","18","no","white","no","yes","0.09","98","1050","legacy","315","20","20","1","C:/Userdata/Michel/IndividualPriorityMaps/Experiment2/data/subject-6.csv","legacy","9","192","25","Jazzy James","3.1.3","yes","598477b2b83f69022949e7e9","47","green","circular","green","circular","0","/","1403","space","20780","20780","(80, 80, 80)","(0, 122, 0)","(179, 0, 0)","(155, 155, 155)","2","legacy","experiment","[5, 6, 7, 0, 1, 2, 3, 4]","/","2500","3000","0","8","252.758751519","1024","2","48000","-16","main","[(0, -252), (178, -178), (252, 0), (178, 178), (0, 252), (-178, 178), (-252, 0), (-178, -178)]","[]","6","even","2","118326","178154","178154","18144","17136","1771","41259","41259","1771","1771","38924","240130","1770","178154","238725","237918","237918","NA","799","study_X","0","20780","1","yes","1680"
"undefined","undefined","20780","20780","black","no","legacy","legacy","legacy","0","green","(0, 122, 0)","shape","absent","lowProb6","rectangular","same","swap","same","swap","green","(0, 122, 0)","lowProb","lowProb5","rectangular","uniform","1","undefined","0.114583333333","1","1","169.067708333","1","22","32461","0","0","0","0","0","0","0","0","46","0","1","0.114583333333","169.067708333","22","32461","46","46","46","08/17/17 12:07:45","Default description","yes","<openexp._canvas.legacy.legacy object at 0x0499F7F0>","<openexp._canvas.legacy.legacy object at 0x049AA7B0>","<openexp._canvas.legacy.legacy object at 0x04994410>","<openexp._canvas.legacy.legacy object at 0x04A8C9D0>","<openexp._canvas.legacy.legacy object at 0x04A5E4B0>","<openexp._canvas.legacy.legacy object at 0x049AA3F0>","<openexp._canvas.legacy.legacy object at 0x04A5F910>","75","IndividualPriorityWithDis_v1.osexp","C:/Userdata/Michel/IndividualPriorityMaps/Experiment2","no","mono","no","18","no","white","no","yes","0.09","98","1050","legacy","45","21","21","1","C:/Userdata/Michel/IndividualPriorityMaps/Experiment2/data/subject-6.csv","legacy","9","192","25","Jazzy James","3.1.3","yes","598477b2b83f69022949e7e9","47","green","rectangular","green","rectangular","0","\","1523","space","20780","20780","(80, 80, 80)","(0, 122, 0)","(179, 0, 0)","(155, 155, 155)","2","legacy","experiment","[5, 6, 7, 0, 1, 2, 3, 4]","\","2500","3000","0","8","252.758751519","1024","2","48000","-16","main","[(0, -252), (178, -178), (252, 0), (178, 178), (0, 252), (-178, 178), (-252, 0), (-178, -178)]","[]","6","even","3","118326","178154","178154","18144","17136","1771","41259","41259","1771","1771","38924","242875","1770","178154","241349","240542","240542","NA","799","study_X","0","20780","1","yes","1680"
"undefined","undefined","20780","20780","black","no","legacy","legacy","legacy","0","red","(179, 0, 0)","shape","present","highProb","rectangular","swap","same","swap","swap","red","(179, 0, 0)","highProbColor","highProbColor","circular","uniform","1","undefined","0.119791666667","1","1","176.213541667","1","23","33833","0","0","0","0","0","0","0","0","47","0","1","0.119791666667","176.213541667","23","33833","47","47","47","08/17/17 12:07:45","Default description","yes","<openexp._canvas.legacy.legacy object at 0x0499F7F0>","<openexp._canvas.legacy.legacy object at 0x049AA7B0>","<openexp._canvas.legacy.legacy object at 0x04994410>","<openexp._canvas.legacy.legacy object at 0x04A8C9D0>","<openexp._canvas.legacy.legacy object at 0x04A5E4B0>","<openexp._canvas.legacy.legacy object at 0x049AAFB0>","<openexp._canvas.legacy.legacy object at 0x04A5F910>","75","IndividualPriorityWithDis_v1.osexp","C:/Userdata/Michel/IndividualPriorityMaps/Experiment2","no","mono","no","18","no","white","no","yes","0.09","98","1050","legacy","45","22","22","1","C:/Userdata/Michel/IndividualPriorityMaps/Experiment2/data/subject-6.csv","legacy","9","192","25","Jazzy James","3.1.3","yes","598477b2b83f69022949e7e9","47","red","rectangular","red","circular","0","\","1372","space","20780","20780","(80, 80, 80)","(0, 122, 0)","(179, 0, 0)","(155, 155, 155)","2","legacy","experiment","[5, 6, 7, 0, 1, 2, 3, 4]","\","2500","3000","0","8","252.758751519","1024","2","48000","-16","main","[(0, -252), (178, -178), (252, 0), (178, 178), (0, 252), (-178, 178), (-252, 0), (-178, -178)]","[]","6","even","5","118326","178154","178154","18144","17136","1771","41259","41259","1771","1771","38924","245475","1770","178154","244099","243292","243292","NA","799","study_X","0","20780","1","yes","1680"
"undefined","undefined","20780","20780","black","no","legacy","legacy","legacy","0","green","(0, 122, 0)","color","present","highProb","rectangular","swap","same","same","swap","red","(179, 0, 0)","lowProb","lowProb2","rectangular","uniform","1","undefined","0.125","1","1","182.953125","1","24","35127","0","0","0","0","0","0","0","0","48","0","1","0.125","182.953125","24","35127","48","48","48","08/17/17 12:07:45","Default description","yes","<openexp._canvas.legacy.legacy object at 0x0499F7F0>","<openexp._canvas.legacy.legacy object at 0x049AA7B0>","<openexp._canvas.legacy.legacy object at 0x04994410>","<openexp._canvas.legacy.legacy object at 0x04A8C9D0>","<openexp._canvas.legacy.legacy object at 0x04A5E4B0>","<openexp._canvas.legacy.legacy object at 0x049941D0>","<openexp._canvas.legacy.legacy object at 0x04A5F910>","75","IndividualPriorityWithDis_v1.osexp","C:/Userdata/Michel/IndividualPriorityMaps/Experiment2","no","mono","no","18","no","white","no","yes","0.09","98","1050","legacy","45","23","23","1","C:/Userdata/Michel/IndividualPriorityMaps/Experiment2/data/subject-6.csv","legacy","9","192","25","Jazzy James","3.1.3","yes","598477b2b83f69022949e7e9","47","green","rectangular","red","rectangular","0","\","1294","space","20780","20780","(80, 80, 80)","(0, 122, 0)","(179, 0, 0)","(155, 155, 155)","2","legacy","experiment","[5, 6, 7, 0, 1, 2, 3, 4]","\","2500","3000","0","8","252.758751519","1024","2","48000","-16","main","[(0, -252), (178, -178), (252, 0), (178, 178), (0, 252), (-178, 178), (-252, 0), (-178, -178)]","[]","6","even","7","118326","178154","178154","18144","17136","1771","41259","41259","1771","1771","38924","247987","1770","178154","246689","245882","245882","NA","799","study_X","0","20780","1","yes","1680"
"undefined","undefined","20780","20780","black","no","legacy","legacy","legacy","0","green","(0, 122, 0)","color","present","lowProb3","rectangular","same","same","same","same","red","(179, 0, 0)","lowProb","lowProb6","rectangular","uniform","1","undefined","0.130208333333","1","1","189.526041667","1","25","36389","0","0","0","0","0","0","0","0","49","0","1","0.130208333333","189.526041667","25","36389","49","49","49","08/17/17 12:07:45","Default description","yes","<openexp._canvas.legacy.legacy object at 0x0499F7F0>","<openexp._canvas.legacy.legacy object at 0x049AA7B0>","<openexp._canvas.legacy.legacy object at 0x04994410>","<openexp._canvas.legacy.legacy object at 0x04A8C9D0>","<openexp._canvas.legacy.legacy object at 0x04A5E4B0>","<openexp._canvas.legacy.legacy object at 0x049A6B50>","<openexp._canvas.legacy.legacy object at 0x04A5F910>","75","IndividualPriorityWithDis_v1.osexp","C:/Userdata/Michel/IndividualPriorityMaps/Experiment2","no","mono","no","18","no","white","no","yes","0.09","98","1050","legacy","45","24","24","1","C:/Userdata/Michel/IndividualPriorityMaps/Experiment2/data/subject-6.csv","legacy","9","192","25","Jazzy James","3.1.3","yes","598477b2b83f69022949e7e9","47","green","rectangular","red","rectangular","0","\","1262","space","20780","20780","(80, 80, 80)","(0, 122, 0)","(179, 0, 0)","(155, 155, 155)","2","legacy","experiment","[5, 6, 7, 0, 1, 2, 3, 4]","\","2500","3000","0","8","252.758751519","1024","2","48000","-16","main","[(0, -252), (178, -178), (252, 0), (178, 178), (0, 252), (-178, 178), (-252, 0), (-178, -178)]","[]","6","even","4","118326","178154","178154","18144","17136","1771","41259","41259","1771","1771","38924","250475","1770","178154","249209","248402","248402","NA","799","study_X","0","20780","1","yes","1680"
"undefined","undefined","20780","20780","black","no","legacy","legacy","legacy","0","red","(179, 0, 0)","shape","present","highProb","circular","swap","swap","same","same","red","(179, 0, 0)","lowProb","lowProb1","rectangular","uniform","1","undefined","0.135416666667","1","1","195.171875","1","26","37473","0","0","0","0","0","0","0","0","50","0","1","0.135416666667","195.171875","26","37473","50","50","50","08/17/17 12:07:45","Default description","yes","<openexp._canvas.legacy.legacy object at 0x0499F7F0>","<openexp._canvas.legacy.legacy object at 0x049AA7B0>","<openexp._canvas.legacy.legacy object at 0x04994410>","<openexp._canvas.legacy.legacy object at 0x04A8C9D0>","<openexp._canvas.legacy.legacy object at 0x04A5E4B0>","<openexp._canvas.legacy.legacy object at 0x04A88FD0>","<openexp._canvas.legacy.legacy object at 0x04A5F910>","75","IndividualPriorityWithDis_v1.osexp","C:/Userdata/Michel/IndividualPriorityMaps/Experiment2","no","mono","no","18","no","white","no","yes","0.09","98","1050","legacy","315","25","25","1","C:/Userdata/Michel/IndividualPriorityMaps/Experiment2/data/subject-6.csv","legacy","9","192","25","Jazzy James","3.1.3","yes","598477b2b83f69022949e7e9","47","red","circular","red","rectangular","0","/","1084","space","20780","20780","(80, 80, 80)","(0, 122, 0)","(179, 0, 0)","(155, 155, 155)","2","legacy","experiment","[5, 6, 7, 0, 1, 2, 3, 4]","/","2500","3000","0","8","252.758751519","1024","2","48000","-16","main","[(0, -252), (178, -178), (252, 0), (178, 178), (0, 252), (-178, 178), (-252, 0), (-178, -178)]","[]","6","even","6","118326","178154","178154","18144","17136","1771","41259","41259","1771","1771","38924","252786","1770","178154","251699","250892","250892","NA","799","study_X","0","20780","1","yes","1680"
"undefined","undefined","20780","20780","black","no","legacy","legacy","legacy","0","red","(179, 0, 0)","color","present","highProbOther","rectangular","same","swap","swap","same","green","(0, 122, 0)","lowProb","lowProb2","rectangular","uniform","1","undefined","0.140625","1","1","205.125","1","27","39384","0","0","0","0","0","0","0","0","51","0","1","0.140625","205.125","27","39384","51","51","51","08/17/17 12:07:45","Default description","yes","<openexp._canvas.legacy.legacy object at 0x0499F7F0>","<openexp._canvas.legacy.legacy object at 0x049AA7B0>","<openexp._canvas.legacy.legacy object at 0x04994410>","<openexp._canvas.legacy.legacy object at 0x04A8C9D0>","<openexp._canvas.legacy.legacy object at 0x04A5E4B0>","<openexp._canvas.legacy.legacy object at 0x049AE530>","<openexp._canvas.legacy.legacy object at 0x04A5F910>","75","IndividualPriorityWithDis_v1.osexp","C:/Userdata/Michel/IndividualPriorityMaps/Experiment2","no","mono","no","18","no","white","no","yes","0.09","98","1050","legacy","45","26","26","1","C:/Userdata/Michel/IndividualPriorityMaps/Experiment2/data/subject-6.csv","legacy","9","192","25","Jazzy James","3.1.3","yes","598477b2b83f69022949e7e9","47","red","rectangular","green","rectangular","0","\","1911","space","20780","20780","(80, 80, 80)","(0, 122, 0)","(179, 0, 0)","(155, 155, 155)","2","legacy","experiment","[5, 6, 7, 0, 1, 2, 3, 4]","\","2500","3000","0","8","252.758751519","1024","2","48000","-16","main","[(0, -252), (178, -178), (252, 0), (178, 178), (0, 252), (-178, 178), (-252, 0), (-178, -178)]","[]","6","even","7","118326","178154","178154","18144","17136","1771","41259","41259","1771","1771","38924","255922","1770","178154","254008","253201","253201","NA","799","study_X","0","20780","1","yes","1680"
"undefined","undefined","20780","20780","black","no","legacy","legacy","legacy","0","red","(179, 0, 0)","shape","present","highProb","rectangular","same","same","swap","swap","red","(179, 0, 0)","highProbColor","highProbColor","circular","uniform","1","undefined","0.145833333333","1","1","211.932291667","1","28","40691","0","0","0","0","0","0","0","0","52","0","1","0.145833333333","211.932291667","28","40691","52","52","52","08/17/17 12:07:45","Default description","yes","<openexp._canvas.legacy.legacy object at 0x0499F7F0>","<openexp._canvas.legacy.legacy object at 0x049AA7B0>","<openexp._canvas.legacy.legacy object at 0x04994410>","<openexp._canvas.legacy.legacy object at 0x04A8C9D0>","<openexp._canvas.legacy.legacy object at 0x04A5E4B0>","<openexp._canvas.legacy.legacy object at 0x04A8C690>","<openexp._canvas.legacy.legacy object at 0x04A5F910>","75","IndividualPriorityWithDis_v1.osexp","C:/Userdata/Michel/IndividualPriorityMaps/Experiment2","no","mono","no","18","no","white","no","yes","0.09","98","1050","legacy","45","27","27","1","C:/Userdata/Michel/IndividualPriorityMaps/Experiment2/data/subject-6.csv","legacy","9","192","25","Jazzy James","3.1.3","yes","598477b2b83f69022949e7e9","47","red","rectangular","red","circular","0","\","1307","space","20780","20780","(80, 80, 80)","(0, 122, 0)","(179, 0, 0)","(155, 155, 155)","2","legacy","experiment","[5, 6, 7, 0, 1, 2, 3, 4]","\","2500","3000","0","8","252.758751519","1024","2","48000","-16","main","[(0, -252), (178, -178), (252, 0), (178, 178), (0, 252), (-178, 178), (-252, 0), (-178, -178)]","[]","6","even","5","118326","178154","178154","18144","17136","1771","41259","41259","1771","1771","38924","258466","1770","178154","257156","256349","256349","NA","799","study_X","0","20780","1","yes","1680"
"undefined","undefined","20780","20780","black","no","legacy","legacy","legacy","0","red","(179, 0, 0)","shape","present","highProbOther","rectangular","same","same","same","same","red","(179, 0, 0)","lowProb","lowProb3","circular","uniform","1","undefined","0.151041666667","1","1","222.171875","1","29","42657","0","0","0","0","0","0","0","0","53","0","1","0.151041666667","222.171875","29","42657","53","53","53","08/17/17 12:07:45","Default description","yes","<openexp._canvas.legacy.legacy object at 0x0499F7F0>","<openexp._canvas.legacy.legacy object at 0x049AA7B0>","<openexp._canvas.legacy.legacy object at 0x04994410>","<openexp._canvas.legacy.legacy object at 0x04A8C9D0>","<openexp._canvas.legacy.legacy object at 0x04A5E4B0>","<openexp._canvas.legacy.legacy object at 0x049A67B0>","<openexp._canvas.legacy.legacy object at 0x04A5F910>","75","IndividualPriorityWithDis_v1.osexp","C:/Userdata/Michel/IndividualPriorityMaps/Experiment2","no","mono","no","18","no","white","no","yes","0.09","98","1050","legacy","45","28","28","1","C:/Userdata/Michel/IndividualPriorityMaps/Experiment2/data/subject-6.csv","legacy","9","192","25","Jazzy James","3.1.3","yes","598477b2b83f69022949e7e9","47","red","rectangular","red","circular","0","\","1966","space","20780","20780","(80, 80, 80)","(0, 122, 0)","(179, 0, 0)","(155, 155, 155)","2","legacy","experiment","[5, 6, 7, 0, 1, 2, 3, 4]","\","2500","3000","0","8","252.758751519","1024","2","48000","-16","main","[(0, -252), (178, -178), (252, 0), (178, 178), (0, 252), (-178, 178), (-252, 0), (-178, -178)]","[]","6","even","0","118326","178154","178154","18144","17136","1771","41259","41259","1771","1771","38924","261659","1770","178154","259689","258882","258882","NA","799","study_X","0","20780","1","yes","1680"
"undefined","undefined","20780","20780","black","no","legacy","legacy","legacy","0","red","(179, 0, 0)","color","present","highProb","rectangular","same","same","swap","swap","green","(0, 122, 0)","lowProb","lowProb4","rectangular","uniform","1","undefined","0.15625","1","1","228.578125","1","30","43887","0","0","0","0","0","0","0","0","54","0","1","0.15625","228.578125","30","43887","54","54","54","08/17/17 12:07:45","Default description","yes","<openexp._canvas.legacy.legacy object at 0x0499F7F0>","<openexp._canvas.legacy.legacy object at 0x049AA7B0>","<openexp._canvas.legacy.legacy object at 0x04994410>","<openexp._canvas.legacy.legacy object at 0x04A8C9D0>","<openexp._canvas.legacy.legacy object at 0x04A5E4B0>","<openexp._canvas.legacy.legacy object at 0x04A8C610>","<openexp._canvas.legacy.legacy object at 0x04A5F910>","75","IndividualPriorityWithDis_v1.osexp","C:/Userdata/Michel/IndividualPriorityMaps/Experiment2","no","mono","no","18","no","white","no","yes","0.09","98","1050","legacy","45","29","29","1","C:/Userdata/Michel/IndividualPriorityMaps/Experiment2/data/subject-6.csv","legacy","9","192","25","Jazzy James","3.1.3","yes","598477b2b83f69022949e7e9","47","red","rectangular","green","rectangular","0","\","1230","space","20780","20780","(80, 80, 80)","(0, 122, 0)","(179, 0, 0)","(155, 155, 155)","2","legacy","experiment","[5, 6, 7, 0, 1, 2, 3, 4]","\","2500","3000","0","8","252.758751519","1024","2","48000","-16","main","[(0, -252), (178, -178), (252, 0), (178, 178), (0, 252), (-178, 178), (-252, 0), (-178, -178)]","[]","6","even","2","118326","178154","178154","18144","17136","1771","41259","41259","1771","1771","38924","264115","1770","178154","262881","262074","262074","NA","799","study_X","0","20780","1","yes","1680"
"undefined","undefined","20780","20780","black","no","legacy","legacy","legacy","0","red","(179, 0, 0)","shape","present","highProb","rectangular","same","same","swap","swap","red","(179, 0, 0)","lowProb","lowProb6","circular","uniform","1","undefined","0.161458333333","1","1","240.5","1","31","46176","0","0","0","0","0","0","0","0","55","0","1","0.161458333333","240.5","31","46176","55","55","55","08/17/17 12:07:45","Default description","yes","<openexp._canvas.legacy.legacy object at 0x0499F7F0>","<openexp._canvas.legacy.legacy object at 0x049AA7B0>","<openexp._canvas.legacy.legacy object at 0x04994410>","<openexp._canvas.legacy.legacy object at 0x04A8C9D0>","<openexp._canvas.legacy.legacy object at 0x04A5E4B0>","<openexp._canvas.legacy.legacy object at 0x04A92630>","<openexp._canvas.legacy.legacy object at 0x04A5F910>","75","IndividualPriorityWithDis_v1.osexp","C:/Userdata/Michel/IndividualPriorityMaps/Experiment2","no","mono","no","18","no","white","no","yes","0.09","98","1050","legacy","315","30","30","1","C:/Userdata/Michel/IndividualPriorityMaps/Experiment2/data/subject-6.csv","legacy","9","192","25","Jazzy James","3.1.3","yes","598477b2b83f69022949e7e9","47","red","rectangular","red","circular","0","/","2289","space","20780","20780","(80, 80, 80)","(0, 122, 0)","(179, 0, 0)","(155, 155, 155)","2","legacy","experiment","[5, 6, 7, 0, 1, 2, 3, 4]","/","2500","3000","0","8","252.758751519","1024","2","48000","-16","main","[(0, -252), (178, -178), (252, 0), (178, 178), (0, 252), (-178, 178), (-252, 0), (-178, -178)]","[]","6","even","4","118326","178154","178154","18144","17136","1771","41259","41259","1771","1771","38924","267690","1770","178154","265398","264591","264591","NA","799","study_X","0","20780","1","yes","1680"
"undefined","undefined","20780","20780","black","no","legacy","legacy","legacy","0","red","(179, 0, 0)","color","present","highProb","rectangular","same","same","swap","swap","green","(0, 122, 0)","lowProb","lowProb6","rectangular","uniform","1","undefined","0.166666666667","1","1","247.729166667","1","32","47564","0","0","0","0","0","0","0","0","56","0","1","0.166666666667","247.729166667","32","47564","56","56","56","08/17/17 12:07:45","Default description","yes","<openexp._canvas.legacy.legacy object at 0x0499F7F0>","<openexp._canvas.legacy.legacy object at 0x049AA7B0>","<openexp._canvas.legacy.legacy object at 0x04994410>","<openexp._canvas.legacy.legacy object at 0x04A8C9D0>","<openexp._canvas.legacy.legacy object at 0x04A5E4B0>","<openexp._canvas.legacy.legacy object at 0x0499F090>","<openexp._canvas.legacy.legacy object at 0x04A5F910>","75","IndividualPriorityWithDis_v1.osexp","C:/Userdata/Michel/IndividualPriorityMaps/Experiment2","no","mono","no","18","no","white","no","yes","0.09","98","1050","legacy","45","31","31","1","C:/Userdata/Michel/IndividualPriorityMaps/Experiment2/data/subject-6.csv","legacy","9","192","25","Jazzy James","3.1.3","yes","598477b2b83f69022949e7e9","47","red","rectangular","green","rectangular","0","\","1388","space","20780","20780","(80, 80, 80)","(0, 122, 0)","(179, 0, 0)","(155, 155, 155)","2","legacy","experiment","[5, 6, 7, 0, 1, 2, 3, 4]","\","2500","3000","0","8","252.758751519","1024","2","48000","-16","main","[(0, -252), (178, -178), (252, 0), (178, 178), (0, 252), (-178, 178), (-252, 0), (-178, -178)]","[]","6","even","4","118326","178154","178154","18144","17136","1771","41259","41259","1771","1771","38924","270306","1770","178154","268915","268107","268107","NA","799","study_X","0","20780","1","yes","1680"
"undefined","undefined","20780","20780","black","no","legacy","legacy","legacy","0","red","(179, 0, 0)","color","present","highProb","rectangular","same","same","same","same","green","(0, 122, 0)","lowProb","lowProb6","rectangular","uniform","1","undefined","0.171875","1","1","253.25","1","33","48624","0","0","0","0","0","0","0","0","57","0","1","0.171875","253.25","33","48624","57","57","57","08/17/17 12:07:45","Default description","yes","<openexp._canvas.legacy.legacy object at 0x0499F7F0>","<openexp._canvas.legacy.legacy object at 0x049AA7B0>","<openexp._canvas.legacy.legacy object at 0x04994410>","<openexp._canvas.legacy.legacy object at 0x04A8C9D0>","<openexp._canvas.legacy.legacy object at 0x04A5E4B0>","<openexp._canvas.legacy.legacy object at 0x049A6230>","<openexp._canvas.legacy.legacy object at 0x04A5F910>","75","IndividualPriorityWithDis_v1.osexp","C:/Userdata/Michel/IndividualPriorityMaps/Experiment2","no","mono","no","18","no","white","no","yes","0.09","98","1050","legacy","45","32","32","1","C:/Userdata/Michel/IndividualPriorityMaps/Experiment2/data/subject-6.csv","legacy","9","192","25","Jazzy James","3.1.3","yes","598477b2b83f69022949e7e9","47","red","rectangular","green","rectangular","0","\","1060","space","20780","20780","(80, 80, 80)","(0, 122, 0)","(179, 0, 0)","(155, 155, 155)","2","legacy","experiment","[5, 6, 7, 0, 1, 2, 3, 4]","\","2500","3000","0","8","252.758751519","1024","2","48000","-16","main","[(0, -252), (178, -178), (252, 0), (178, 178), (0, 252), (-178, 178), (-252, 0), (-178, -178)]","[]","6","even","4","118326","178154","178154","18144","17136","1771","41259","41259","1771","1771","38924","272594","1770","178154","271531","270724","270724","NA","799","study_X","0","20780","1","yes","1680"
"undefined","undefined","20780","20780","black","no","legacy","legacy","legacy","0","red","(179, 0, 0)","shape","absent","lowProb3","rectangular","same","same","swap","same","red","(179, 0, 0)","lowProb","lowProb2","rectangular","uniform","1","undefined","0.177083333333","1","1","259.869791667","1","34","49895","0","0","0","0","0","0","0","0","58","0","1","0.177083333333","259.869791667","34","49895","58","58","58","08/17/17 12:07:45","Default description","yes","<openexp._canvas.legacy.legacy object at 0x0499F7F0>","<openexp._canvas.legacy.legacy object at 0x049AA7B0>","<openexp._canvas.legacy.legacy object at 0x04994410>","<openexp._canvas.legacy.legacy object at 0x04A8C9D0>","<openexp._canvas.legacy.legacy object at 0x04A5E4B0>","<openexp._canvas.legacy.legacy object at 0x049A15B0>","<openexp._canvas.legacy.legacy object at 0x04A5F910>","75","IndividualPriorityWithDis_v1.osexp","C:/Userdata/Michel/IndividualPriorityMaps/Experiment2","no","mono","no","18","no","white","no","yes","0.09","98","1050","legacy","45","33","33","1","C:/Userdata/Michel/IndividualPriorityMaps/Experiment2/data/subject-6.csv","legacy","9","192","25","Jazzy James","3.1.3","yes","598477b2b83f69022949e7e9","47","red","rectangular","red","rectangular","0","\","1271","space","20780","20780","(80, 80, 80)","(0, 122, 0)","(179, 0, 0)","(155, 155, 155)","2","legacy","experiment","[5, 6, 7, 0, 1, 2, 3, 4]","\","2500","3000","0","8","252.758751519","1024","2","48000","-16","main","[(0, -252), (178, -178), (252, 0), (178, 178), (0, 252), (-178, 178), (-252, 0), (-178, -178)]","[]","6","even","7","118326","178154","178154","18144","17136","1771","41259","41259","1771","1771","38924","275106","1770","178154","273832","273025","273025","NA","799","study_X","0","20780","1","yes","1680"
"undefined","undefined","20780","20780","black","no","legacy","legacy","legacy","0","green","(0, 122, 0)","color","present","highProb","circular","swap","swap","same","swap","red","(179, 0, 0)","lowProb","lowProb1","circular","uniform","0","undefined","0.177083333333","1","1","272.890625","1","34","52395","0","0","0","0","0","0","0","0","59","0","1","0.177083333333","272.890625","34","52395","59","59","59","08/17/17 12:07:45","Default description","yes","<openexp._canvas.legacy.legacy object at 0x0499F7F0>","<openexp._canvas.legacy.legacy object at 0x049AA7B0>","<openexp._canvas.legacy.legacy object at 0x04994410>","<openexp._canvas.legacy.legacy object at 0x04A8C9D0>","<openexp._canvas.legacy.legacy object at 0x04A5E4B0>","<openexp._canvas.legacy.legacy object at 0x04994830>","<openexp._canvas.legacy.legacy object at 0x04A5F910>","75","IndividualPriorityWithDis_v1.osexp","C:/Userdata/Michel/IndividualPriorityMaps/Experiment2","no","mono","no","18","no","white","no","yes","0.09","98","1050","legacy","45","34","34","1","C:/Userdata/Michel/IndividualPriorityMaps/Experiment2/data/subject-6.csv","legacy","9","192","25","Jazzy James","3.1.3","yes","598477b2b83f69022949e7e9","47","green","circular","red","circular","0","None","2500","space","20780","20780","(80, 80, 80)","(0, 122, 0)","(179, 0, 0)","(155, 155, 155)","2","legacy","experiment","[5, 6, 7, 0, 1, 2, 3, 4]","\","2500","3000","0","8","252.758751519","1024","2","48000","-16","main","[(0, -252), (178, -178), (252, 0), (178, 178), (0, 252), (-178, 178), (-252, 0), (-178, -178)]","[]","6","even","6","118326","178154","178154","18144","17136","1771","41259","41259","1771","1771","38924","278841","1770","178154","276338","275531","275531","NA","799","study_X","0","20780","1","yes","1680"
"undefined","undefined","20780","20780","black","no","legacy","legacy","legacy","0","red","(179, 0, 0)","color","present","lowProb1","rectangular","swap","swap","swap","swap","green","(0, 122, 0)","highProbColor","highProbColor","rectangular","uniform","1","undefined","0.182291666667","1","1","280.921875","1","35","53937","0","0","0","0","0","0","0","0","60","0","1","0.182291666667","280.921875","35","53937","60","60","60","08/17/17 12:07:45","Default description","yes","<openexp._canvas.legacy.legacy object at 0x0499F7F0>","<openexp._canvas.legacy.legacy object at 0x049AA7B0>","<openexp._canvas.legacy.legacy object at 0x04994410>","<openexp._canvas.legacy.legacy object at 0x04A8C9D0>","<openexp._canvas.legacy.legacy object at 0x04A5E4B0>","<openexp._canvas.legacy.legacy object at 0x04A8C3B0>","<openexp._canvas.legacy.legacy object at 0x04A5F910>","75","IndividualPriorityWithDis_v1.osexp","C:/Userdata/Michel/IndividualPriorityMaps/Experiment2","no","mono","no","18","no","white","no","yes","0.09","98","1050","legacy","45","35","35","1","C:/Userdata/Michel/IndividualPriorityMaps/Experiment2/data/subject-6.csv","legacy","9","192","25","Jazzy James","3.1.3","yes","598477b2b83f69022949e7e9","47","red","rectangular","green","rectangular","0","\","1542","space","20780","20780","(80, 80, 80)","(0, 122, 0)","(179, 0, 0)","(155, 155, 155)","2","legacy","experiment","[5, 6, 7, 0, 1, 2, 3, 4]","\","2500","3000","0","8","252.758751519","1024","2","48000","-16","main","[(0, -252), (178, -178), (252, 0), (178, 178), (0, 252), (-178, 178), (-252, 0), (-178, -178)]","[]","6","even","5","118326","178154","178154","18144","17136","1771","41259","41259","1771","1771","38924","281603","1770","178154","280057","279250","279250","NA","799","study_X","0","20780","1","yes","1680"
"undefined","undefined","20780","20780","black","no","legacy","legacy","legacy","0","green","(0, 122, 0)","shape","absent","lowProb6","circular","swap","swap","same","swap","green","(0, 122, 0)","highProbColor","highProbColor","circular","uniform","1","undefined","0.1875","1","1","287.234375","1","36","55149","0","0","0","0","0","0","0","0","61","0","1","0.1875","287.234375","36","55149","61","61","61","08/17/17 12:07:45","Default description","yes","<openexp._canvas.legacy.legacy object at 0x0499F7F0>","<openexp._canvas.legacy.legacy object at 0x049AA7B0>","<openexp._canvas.legacy.legacy object at 0x04994410>","<openexp._canvas.legacy.legacy object at 0x04A8C9D0>","<openexp._canvas.legacy.legacy object at 0x04A5E4B0>","<openexp._canvas.legacy.legacy object at 0x049A6D90>","<openexp._canvas.legacy.legacy object at 0x04A5F910>","75","IndividualPriorityWithDis_v1.osexp","C:/Userdata/Michel/IndividualPriorityMaps/Experiment2","no","mono","no","18","no","white","no","yes","0.09","98","1050","legacy","315","36","36","1","C:/Userdata/Michel/IndividualPriorityMaps/Experiment2/data/subject-6.csv","legacy","9","192","25","Jazzy James","3.1.3","yes","598477b2b83f69022949e7e9","47","green","circular","green","circular","0","/","1212","space","20780","20780","(80, 80, 80)","(0, 122, 0)","(179, 0, 0)","(155, 155, 155)","2","legacy","experiment","[5, 6, 7, 0, 1, 2, 3, 4]","/","2500","3000","0","8","252.758751519","1024","2","48000","-16","main","[(0, -252), (178, -178), (252, 0), (178, 178), (0, 252), (-178, 178), (-252, 0), (-178, -178)]","[]","6","even","5","118326","178154","178154","18144","17136","1771","41259","41259","1771","1771","38924","284082","1770","178154","282867","282060","282060","NA","799","study_X","0","20780","1","yes","1680"
"undefined","undefined","20780","20780","black","no","legacy","legacy","legacy","0","green","(0, 122, 0)","shape","present","highProb","circular","same","same","same","swap","green","(0, 122, 0)","highProbColor","highProbColor","rectangular","uniform","1","undefined","0.192708333333","1","1","294.359375","1","37","56517","0","0","0","0","0","0","0","0","62","0","1","0.192708333333","294.359375","37","56517","62","62","62","08/17/17 12:07:45","Default description","yes","<openexp._canvas.legacy.legacy object at 0x0499F7F0>","<openexp._canvas.legacy.legacy object at 0x049AA7B0>","<openexp._canvas.legacy.legacy object at 0x04994410>","<openexp._canvas.legacy.legacy object at 0x04A8C9D0>","<openexp._canvas.legacy.legacy object at 0x04A5E4B0>","<openexp._canvas.legacy.legacy object at 0x0499B3B0>","<openexp._canvas.legacy.legacy object at 0x04A5F910>","75","IndividualPriorityWithDis_v1.osexp","C:/Userdata/Michel/IndividualPriorityMaps/Experiment2","no","mono","no","18","no","white","no","yes","0.09","98","1050","legacy","315","37","37","1","C:/Userdata/Michel/IndividualPriorityMaps/Experiment2/data/subject-6.csv","legacy","9","192","25","Jazzy James","3.1.3","yes","598477b2b83f69022949e7e9","47","green","circular","green","rectangular","0","/","1368","space","20780","20780","(80, 80, 80)","(0, 122, 0)","(179, 0, 0)","(155, 155, 155)","2","legacy","experiment","[5, 6, 7, 0, 1, 2, 3, 4]","/","2500","3000","0","8","252.758751519","1024","2","48000","-16","main","[(0, -252), (178, -178), (252, 0), (178, 178), (0, 252), (-178, 178), (-252, 0), (-178, -178)]","[]","6","even","5","118326","178154","178154","18144","17136","1771","41259","41259","1771","1771","38924","286690","1770","178154","285320","284513","284513","NA","799","study_X","0","20780","1","yes","1680"
"undefined","undefined","20780","20780","black","no","legacy","legacy","legacy","0","red","(179, 0, 0)","color","present","highProb","circular","swap","same","same","swap","green","(0, 122, 0)","lowProb","lowProb5","circular","uniform","1","undefined","0.197916666667","1","1","301.364583333","1","38","57862","0","0","0","0","0","0","0","0","63","0","1","0.197916666667","301.364583333","38","57862","63","63","63","08/17/17 12:07:45","Default description","yes","<openexp._canvas.legacy.legacy object at 0x0499F7F0>","<openexp._canvas.legacy.legacy object at 0x049AA7B0>","<openexp._canvas.legacy.legacy object at 0x04994410>","<openexp._canvas.legacy.legacy object at 0x04A8C9D0>","<openexp._canvas.legacy.legacy object at 0x04A5E4B0>","<openexp._canvas.legacy.legacy object at 0x049946B0>","<openexp._canvas.legacy.legacy object at 0x04A5F910>","75","IndividualPriorityWithDis_v1.osexp","C:/Userdata/Michel/IndividualPriorityMaps/Experiment2","no","mono","no","18","no","white","no","yes","0.09","98","1050","legacy","45","38","38","1","C:/Userdata/Michel/IndividualPriorityMaps/Experiment2/data/subject-6.csv","legacy","9","192","25","Jazzy James","3.1.3","yes","598477b2b83f69022949e7e9","47","red","circular","green","circular","0","\","1345","space","20780","20780","(80, 80, 80)","(0, 122, 0)","(179, 0, 0)","(155, 155, 155)","2","legacy","experiment","[5, 6, 7, 0, 1, 2, 3, 4]","\","2500","3000","0","8","252.758751519","1024","2","48000","-16","main","[(0, -252), (178, -178), (252, 0), (178, 178), (0, 252), (-178, 178), (-252, 0), (-178, -178)]","[]","6","even","3","118326","178154","178154","18144","17136","1771","41259","41259","1771","1771","38924","289290","1770","178154","287942","287135","287135","NA","799","study_X","0","20780","1","yes","1680"
"undefined","undefined","20780","20780","black","no","legacy","legacy","legacy","0","green","(0, 122, 0)","shape","present","lowProb5","circular","swap","same","same","swap","green","(0, 122, 0)","highProbShape","highProbShape","rectangular","uniform","1","undefined","0.203125","1","1","307.208333333","1","39","58984","0","0","0","0","0","0","0","0","64","0","1","0.203125","307.208333333","39","58984","64","64","64","08/17/17 12:07:45","Default description","yes","<openexp._canvas.legacy.legacy object at 0x0499F7F0>","<openexp._canvas.legacy.legacy object at 0x049AA7B0>","<openexp._canvas.legacy.legacy object at 0x04994410>","<openexp._canvas.legacy.legacy object at 0x04A8C9D0>","<openexp._canvas.legacy.legacy object at 0x04A5E4B0>","<openexp._canvas.legacy.legacy object at 0x04A8CE90>","<openexp._canvas.legacy.legacy object at 0x04A5F910>","75","IndividualPriorityWithDis_v1.osexp","C:/Userdata/Michel/IndividualPriorityMaps/Experiment2","no","mono","no","18","no","white","no","yes","0.09","98","1050","legacy","315","39","39","1","C:/Userdata/Michel/IndividualPriorityMaps/Experiment2/data/subject-6.csv","legacy","9","192","25","Jazzy James","3.1.3","yes","598477b2b83f69022949e7e9","47","green","circular","green","rectangular","0","/","1122","space","20780","20780","(80, 80, 80)","(0, 122, 0)","(179, 0, 0)","(155, 155, 155)","2","legacy","experiment","[5, 6, 7, 0, 1, 2, 3, 4]","/","2500","3000","0","8","252.758751519","1024","2","48000","-16","main","[(0, -252), (178, -178), (252, 0), (178, 178), (0, 252), (-178, 178), (-252, 0), (-178, -178)]","[]","6","even","1","118326","178154","178154","18144","17136","1771","41259","41259","1771","1771","38924","291650","1770","178154","290524","289717","289717","NA","799","study_X","0","20780","1","yes","1680"
"undefined","undefined","20780","20780","black","no","legacy","legacy","legacy","0","red","(179, 0, 0)","shape","present","lowProb6","circular","swap","same","swap","same","red","(179, 0, 0)","lowProb","lowProb5","rectangular","uniform","1","undefined","0.208333333333","1","1","314.25","1","40","60336","0","0","0","0","0","0","0","0","65","0","1","0.208333333333","314.25","40","60336","65","65","65","08/17/17 12:07:45","Default description","yes","<openexp._canvas.legacy.legacy object at 0x0499F7F0>","<openexp._canvas.legacy.legacy object at 0x049AA7B0>","<openexp._canvas.legacy.legacy object at 0x04994410>","<openexp._canvas.legacy.legacy object at 0x04A8C9D0>","<openexp._canvas.legacy.legacy object at 0x04A5E4B0>","<openexp._canvas.legacy.legacy object at 0x04994ED0>","<openexp._canvas.legacy.legacy object at 0x04A5F910>","75","IndividualPriorityWithDis_v1.osexp","C:/Userdata/Michel/IndividualPriorityMaps/Experiment2","no","mono","no","18","no","white","no","yes","0.09","98","1050","legacy","45","40","40","1","C:/Userdata/Michel/IndividualPriorityMaps/Experiment2/data/subject-6.csv","legacy","9","192","25","Jazzy James","3.1.3","yes","598477b2b83f69022949e7e9","47","red","circular","red","rectangular","0","\","1352","space","20780","20780","(80, 80, 80)","(0, 122, 0)","(179, 0, 0)","(155, 155, 155)","2","legacy","experiment","[5, 6, 7, 0, 1, 2, 3, 4]","\","2500","3000","0","8","252.758751519","1024","2","48000","-16","main","[(0, -252), (178, -178), (252, 0), (178, 178), (0, 252), (-178, 178), (-252, 0), (-178, -178)]","[]","6","even","3","118326","178154","178154","18144","17136","1771","41259","41259","1771","1771","38924","294219","1770","178154","292863","292056","292056","NA","799","study_X","0","20780","1","yes","1680"
"undefined","undefined","20780","20780","black","no","legacy","legacy","legacy","0","green","(0, 122, 0)","shape","absent","lowProb1","circular","swap","same","swap","swap","green","(0, 122, 0)","lowProb","lowProb1","circular","uniform","1","undefined","0.213541666667","1","1","327.036458333","1","41","62791","0","0","0","0","0","0","0","0","66","0","1","0.213541666667","327.036458333","41","62791","66","66","66","08/17/17 12:07:45","Default description","yes","<openexp._canvas.legacy.legacy object at 0x0499F7F0>","<openexp._canvas.legacy.legacy object at 0x049AA7B0>","<openexp._canvas.legacy.legacy object at 0x04994410>","<openexp._canvas.legacy.legacy object at 0x04A8C9D0>","<openexp._canvas.legacy.legacy object at 0x04A5E4B0>","<openexp._canvas.legacy.legacy object at 0x049A6B10>","<openexp._canvas.legacy.legacy object at 0x04A5F910>","75","IndividualPriorityWithDis_v1.osexp","C:/Userdata/Michel/IndividualPriorityMaps/Experiment2","no","mono","no","18","no","white","no","yes","0.09","98","1050","legacy","45","41","41","1","C:/Userdata/Michel/IndividualPriorityMaps/Experiment2/data/subject-6.csv","legacy","9","192","25","Jazzy James","3.1.3","yes","598477b2b83f69022949e7e9","47","green","circular","green","circular","0","\","2455","space","20780","20780","(80, 80, 80)","(0, 122, 0)","(179, 0, 0)","(155, 155, 155)","2","legacy","experiment","[5, 6, 7, 0, 1, 2, 3, 4]","\","2500","3000","0","8","252.758751519","1024","2","48000","-16","main","[(0, -252), (178, -178), (252, 0), (178, 178), (0, 252), (-178, 178), (-252, 0), (-178, -178)]","[]","6","even","6","118326","178154","178154","18144","17136","1771","41259","41259","1771","1771","38924","297906","1770","178154","295448","294641","294641","NA","799","study_X","0","20780","1","yes","1680"
"undefined","undefined","20780","20780","black","no","legacy","legacy","legacy","0","green","(0, 122, 0)","shape","present","lowProb5","rectangular","same","swap","same","same","green","(0, 122, 0)","lowProb","lowProb1","circular","uniform","1","undefined","0.21875","1","1","332.604166667","1","42","63860","0","0","0","0","0","0","0","0","67","0","1","0.21875","332.604166667","42","63860","67","67","67","08/17/17 12:07:45","Default description","yes","<openexp._canvas.legacy.legacy object at 0x0499F7F0>","<openexp._canvas.legacy.legacy object at 0x049AA7B0>","<openexp._canvas.legacy.legacy object at 0x04994410>","<openexp._canvas.legacy.legacy object at 0x04A8C9D0>","<openexp._canvas.legacy.legacy object at 0x04A5E4B0>","<openexp._canvas.legacy.legacy object at 0x0499B490>","<openexp._canvas.legacy.legacy object at 0x04A5F910>","75","IndividualPriorityWithDis_v1.osexp","C:/Userdata/Michel/IndividualPriorityMaps/Experiment2","no","mono","no","18","no","white","no","yes","0.09","98","1050","legacy","315","42","42","1","C:/Userdata/Michel/IndividualPriorityMaps/Experiment2/data/subject-6.csv","legacy","9","192","25","Jazzy James","3.1.3","yes","598477b2b83f69022949e7e9","47","green","rectangular","green","circular","0","/","1069","space","20780","20780","(80, 80, 80)","(0, 122, 0)","(179, 0, 0)","(155, 155, 155)","2","legacy","experiment","[5, 6, 7, 0, 1, 2, 3, 4]","/","2500","3000","0","8","252.758751519","1024","2","48000","-16","main","[(0, -252), (178, -178), (252, 0), (178, 178), (0, 252), (-178, 178), (-252, 0), (-178, -178)]","[]","6","even","6","118326","178154","178154","18144","17136","1771","41259","41259","1771","1771","38924","300202","1770","178154","299130","298323","298323","NA","799","study_X","0","20780","1","yes","1680"
"undefined","undefined","20780","20780","black","no","legacy","legacy","legacy","0","red","(179, 0, 0)","color","present","lowProb5","rectangular","swap","same","same","swap","green","(0, 122, 0)","lowProb","lowProb4","rectangular","uniform","1","undefined","0.223958333333","1","1","338.645833333","1","43","65020","0","0","0","0","0","0","0","0","68","0","1","0.223958333333","338.645833333","43","65020","68","68","68","08/17/17 12:07:45","Default description","yes","<openexp._canvas.legacy.legacy object at 0x0499F7F0>","<openexp._canvas.legacy.legacy object at 0x049AA7B0>","<openexp._canvas.legacy.legacy object at 0x04994410>","<openexp._canvas.legacy.legacy object at 0x04A8C9D0>","<openexp._canvas.legacy.legacy object at 0x04A5E4B0>","<openexp._canvas.legacy.legacy object at 0x04A8CBF0>","<openexp._canvas.legacy.legacy object at 0x04A5F910>","75","IndividualPriorityWithDis_v1.osexp","C:/Userdata/Michel/IndividualPriorityMaps/Experiment2","no","mono","no","18","no","white","no","yes","0.09","98","1050","legacy","315","43","43","1","C:/Userdata/Michel/IndividualPriorityMaps/Experiment2/data/subject-6.csv","legacy","9","192","25","Jazzy James","3.1.3","yes","598477b2b83f69022949e7e9","47","red","rectangular","green","rectangular","0","/","1160","space","20780","20780","(80, 80, 80)","(0, 122, 0)","(179, 0, 0)","(155, 155, 155)","2","legacy","experiment","[5, 6, 7, 0, 1, 2, 3, 4]","/","2500","3000","0","8","252.758751519","1024","2","48000","-16","main","[(0, -252), (178, -178), (252, 0), (178, 178), (0, 252), (-178, 178), (-252, 0), (-178, -178)]","[]","6","even","2","118326","178154","178154","18144","17136","1771","41259","41259","1771","1771","38924","302594","1770","178154","301431","300624","300624","NA","799","study_X","0","20780","1","yes","1680"
"undefined","undefined","20780","20780","black","no","legacy","legacy","legacy","0","red","(179, 0, 0)","shape","present","highProb","rectangular","same","same","swap","swap","red","(179, 0, 0)","lowProb","lowProb4","circular","uniform","0","undefined","0.223958333333","1","1","351.666666667","1","43","67520","0","0","0","0","0","0","0","0","69","0","1","0.223958333333","351.666666667","43","67520","69","69","69","08/17/17 12:07:45","Default description","yes","<openexp._canvas.legacy.legacy object at 0x0499F7F0>","<openexp._canvas.legacy.legacy object at 0x049AA7B0>","<openexp._canvas.legacy.legacy object at 0x04994410>","<openexp._canvas.legacy.legacy object at 0x04A8C9D0>","<openexp._canvas.legacy.legacy object at 0x04A5E4B0>","<openexp._canvas.legacy.legacy object at 0x049B5750>","<openexp._canvas.legacy.legacy object at 0x04A5F910>","75","IndividualPriorityWithDis_v1.osexp","C:/Userdata/Michel/IndividualPriorityMaps/Experiment2","no","mono","no","18","no","white","no","yes","0.09","98","1050","legacy","315","44","44","1","C:/Userdata/Michel/IndividualPriorityMaps/Experiment2/data/subject-6.csv","legacy","9","192","25","Jazzy James","3.1.3","yes","598477b2b83f69022949e7e9","47","red","rectangular","red","circular","0","None","2500","space","20780","20780","(80, 80, 80)","(0, 122, 0)","(179, 0, 0)","(155, 155, 155)","2","legacy","experiment","[5, 6, 7, 0, 1, 2, 3, 4]","/","2500","3000","0","8","252.758751519","1024","2","48000","-16","main","[(0, -252), (178, -178), (252, 0), (178, 178), (0, 252), (-178, 178), (-252, 0), (-178, -178)]","[]","6","even","2","118326","178154","178154","18144","17136","1771","41259","41259","1771","1771","38924","306322","1770","178154","303819","303012","303012","NA","799","study_X","0","20780","1","yes","1680"
"undefined","undefined","20780","20780","black","no","legacy","legacy","legacy","0","red","(179, 0, 0)","color","present","highProb","circular","same","swap","swap","same","green","(0, 122, 0)","highProbShape","highProbShape","circular","uniform","1","undefined","0.229166666667","1","1","361.505208333","1","44","69409","0","0","0","0","0","0","0","0","70","0","1","0.229166666667","361.505208333","44","69409","70","70","70","08/17/17 12:07:45","Default description","yes","<openexp._canvas.legacy.legacy object at 0x0499F7F0>","<openexp._canvas.legacy.legacy object at 0x049AA7B0>","<openexp._canvas.legacy.legacy object at 0x04994410>","<openexp._canvas.legacy.legacy object at 0x04A8C9D0>","<openexp._canvas.legacy.legacy object at 0x04A5E4B0>","<openexp._canvas.legacy.legacy object at 0x04A8CC50>","<openexp._canvas.legacy.legacy object at 0x04A5F910>","75","IndividualPriorityWithDis_v1.osexp","C:/Userdata/Michel/IndividualPriorityMaps/Experiment2","no","mono","no","18","no","white","no","yes","0.09","98","1050","legacy","45","45","45","1","C:/Userdata/Michel/IndividualPriorityMaps/Experiment2/data/subject-6.csv","legacy","9","192","25","Jazzy James","3.1.3","yes","598477b2b83f69022949e7e9","47","red","circular","green","circular","0","\","1889","space","20780","20780","(80, 80, 80)","(0, 122, 0)","(179, 0, 0)","(155, 155, 155)","2","legacy","experiment","[5, 6, 7, 0, 1, 2, 3, 4]","\","2500","3000","0","8","252.758751519","1024","2","48000","-16","main","[(0, -252), (178, -178), (252, 0), (178, 178), (0, 252), (-178, 178), (-252, 0), (-178, -178)]","[]","6","even","1","118326","178154","178154","18144","17136","1771","41259","41259","1771","1771","38924","309458","1770","178154","307565","306758","306758","NA","799","study_X","0","20780","1","yes","1680"
"undefined","undefined","20780","20780","black","no","legacy","legacy","legacy","0","red","(179, 0, 0)","shape","absent","lowProb5","circular","same","same","swap","same","red","(179, 0, 0)","lowProb","lowProb1","circular","uniform","1","undefined","0.234375","1","1","366.234375","1","45","70317","0","0","0","0","0","0","0","0","71","0","1","0.234375","366.234375","45","70317","71","71","71","08/17/17 12:07:45","Default description","yes","<openexp._canvas.legacy.legacy object at 0x0499F7F0>","<openexp._canvas.legacy.legacy object at 0x049AA7B0>","<openexp._canvas.legacy.legacy object at 0x04994410>","<openexp._canvas.legacy.legacy object at 0x04A8C9D0>","<openexp._canvas.legacy.legacy object at 0x04A5E4B0>","<openexp._canvas.legacy.legacy object at 0x049B51F0>","<openexp._canvas.legacy.legacy object at 0x04A5F910>","75","IndividualPriorityWithDis_v1.osexp","C:/Userdata/Michel/IndividualPriorityMaps/Experiment2","no","mono","no","18","no","white","no","yes","0.09","98","1050","legacy","315","46","46","1","C:/Userdata/Michel/IndividualPriorityMaps/Experiment2/data/subject-6.csv","legacy","9","192","25","Jazzy James","3.1.3","yes","598477b2b83f69022949e7e9","47","red","circular","red","circular","0","/","908","space","20780","20780","(80, 80, 80)","(0, 122, 0)","(179, 0, 0)","(155, 155, 155)","2","legacy","experiment","[5, 6, 7, 0, 1, 2, 3, 4]","/","2500","3000","0","8","252.758751519","1024","2","48000","-16","main","[(0, -252), (178, -178), (252, 0), (178, 178), (0, 252), (-178, 178), (-252, 0), (-178, -178)]","[]","6","even","6","118326","178154","178154","18144","17136","1771","41259","41259","1771","1771","38924","311619","1770","178154","310707","309900","309900","NA","799","study_X","0","20780","1","yes","1680"
"undefined","undefined","20780","20780","black","no","legacy","legacy","legacy","0","red","(179, 0, 0)","shape","absent","lowProb1","rectangular","same","swap","same","swap","red","(179, 0, 0)","lowProb","lowProb5","rectangular","uniform","1","undefined","0.239583333333","1","1","372.28125","1","46","71478","0","0","0","0","0","0","0","0","72","0","1","0.239583333333","372.28125","46","71478","72","72","72","08/17/17 12:07:45","Default description","yes","<openexp._canvas.legacy.legacy object at 0x0499F7F0>","<openexp._canvas.legacy.legacy object at 0x049AA7B0>","<openexp._canvas.legacy.legacy object at 0x04994410>","<openexp._canvas.legacy.legacy object at 0x04A8C9D0>","<openexp._canvas.legacy.legacy object at 0x04A5E4B0>","<openexp._canvas.legacy.legacy object at 0x0499B830>","<openexp._canvas.legacy.legacy object at 0x04A5F910>","75","IndividualPriorityWithDis_v1.osexp","C:/Userdata/Michel/IndividualPriorityMaps/Experiment2","no","mono","no","18","no","white","no","yes","0.09","98","1050","legacy","45","47","47","1","C:/Userdata/Michel/IndividualPriorityMaps/Experiment2/data/subject-6.csv","legacy","9","192","25","Jazzy James","3.1.3","yes","598477b2b83f69022949e7e9","47","red","rectangular","red","rectangular","0","\","1161","space","20780","20780","(80, 80, 80)","(0, 122, 0)","(179, 0, 0)","(155, 155, 155)","2","legacy","experiment","[5, 6, 7, 0, 1, 2, 3, 4]","\","2500","3000","0","8","252.758751519","1024","2","48000","-16","main","[(0, -252), (178, -178), (252, 0), (178, 178), (0, 252), (-178, 178), (-252, 0), (-178, -178)]","[]","6","even","3","118326","178154","178154","18144","17136","1771","41259","41259","1771","1771","38924","314002","1770","178154","312838","312031","312031","NA","799","study_X","0","20780","1","yes","1680"
"undefined","undefined","20780","20780","black","no","legacy","legacy","legacy","0","red","(179, 0, 0)","color","present","highProb","rectangular","same","same","swap","same","green","(0, 122, 0)","lowProb","lowProb5","rectangular","uniform","1","undefined","0.244791666667","1","1","376.65625","1","47","72318","0","0","0","0","0","0","0","0","73","0","1","0.244791666667","376.65625","47","72318","73","73","73","08/17/17 12:07:45","Default description","yes","<openexp._canvas.legacy.legacy object at 0x0499F7F0>","<openexp._canvas.legacy.legacy object at 0x049AA7B0>","<openexp._canvas.legacy.legacy object at 0x04994410>","<openexp._canvas.legacy.legacy object at 0x04A8C9D0>","<openexp._canvas.legacy.legacy object at 0x04A5E4B0>","<openexp._canvas.legacy.legacy object at 0x049B5F90>","<openexp._canvas.legacy.legacy object at 0x04A5F910>","75","IndividualPriorityWithDis_v1.osexp","C:/Userdata/Michel/IndividualPriorityMaps/Experiment2","no","mono","no","18","no","white","no","yes","0.09","98","1050","legacy","45","48","48","1","C:/Userdata/Michel/IndividualPriorityMaps/Experiment2/data/subject-6.csv","legacy","9","192","25","Jazzy James","3.1.3","yes","598477b2b83f69022949e7e9","47","red","rectangular","green","rectangular","0","\","840","space","20780","20780","(80, 80, 80)","(0, 122, 0)","(179, 0, 0)","(155, 155, 155)","2","legacy","experiment","[5, 6, 7, 0, 1, 2, 3, 4]","\","2500","3000","0","8","252.758751519","1024","2","48000","-16","main","[(0, -252), (178, -178), (252, 0), (178, 178), (0, 252), (-178, 178), (-252, 0), (-178, -178)]","[]","6","even","3","118326","178154","178154","18144","17136","1771","41259","41259","1771","1771","38924","316074","1770","178154","315231","314424","314424","NA","799","study_X","0","20780","1","yes","1680"
"undefined","undefined","20780","20780","black","no","legacy","legacy","legacy","0","red","(179, 0, 0)","color","present","highProb","circular","same","swap","same","swap","green","(0, 122, 0)","lowProb","lowProb4","circular","uniform","1","undefined","0.25","1","1","384.984375","1","48","73917","0","0","0","0","0","0","0","0","74","0","1","0.25","384.984375","48","73917","74","74","74","08/17/17 12:07:45","Default description","yes","<openexp._canvas.legacy.legacy object at 0x0499F7F0>","<openexp._canvas.legacy.legacy object at 0x049AA7B0>","<openexp._canvas.legacy.legacy object at 0x04994410>","<openexp._canvas.legacy.legacy object at 0x04A8C9D0>","<openexp._canvas.legacy.legacy object at 0x04A5E4B0>","<openexp._canvas.legacy.legacy object at 0x049AACD0>","<openexp._canvas.legacy.legacy object at 0x04A5F910>","75","IndividualPriorityWithDis_v1.osexp","C:/Userdata/Michel/IndividualPriorityMaps/Experiment2","no","mono","no","18","no","white","no","yes","0.09","98","1050","legacy","315","49","49","1","C:/Userdata/Michel/IndividualPriorityMaps/Experiment2/data/subject-6.csv","legacy","9","192","25","Jazzy James","3.1.3","yes","598477b2b83f69022949e7e9","47","red","circular","green","circular","0","/","1599","space","20780","20780","(80, 80, 80)","(0, 122, 0)","(179, 0, 0)","(155, 155, 155)","2","legacy","experiment","[5, 6, 7, 0, 1, 2, 3, 4]","/","2500","3000","0","8","252.758751519","1024","2","48000","-16","main","[(0, -252), (178, -178), (252, 0), (178, 178), (0, 252), (-178, 178), (-252, 0), (-178, -178)]","[]","6","even","2","118326","178154","178154","18144","17136","1771","41259","41259","1771","1771","38924","318946","1770","178154","317344","316537","316537","NA","799","study_X","0","20780","1","yes","1680"
"undefined","undefined","20780","20780","black","no","legacy","legacy","legacy","0","green","(0, 122, 0)","color","present","highProb","circular","swap","same","swap","same","red","(179, 0, 0)","highProbShape","highProbShape","circular","uniform","1","undefined","0.255208333333","1","1","389.375","1","49","74760","0","0","0","0","0","0","0","0","75","0","1","0.255208333333","389.375","49","74760","75","75","75","08/17/17 12:07:45","Default description","yes","<openexp._canvas.legacy.legacy object at 0x0499F7F0>","<openexp._canvas.legacy.legacy object at 0x049AA7B0>","<openexp._canvas.legacy.legacy object at 0x04994410>","<openexp._canvas.legacy.legacy object at 0x04A8C9D0>","<openexp._canvas.legacy.legacy object at 0x04A5E4B0>","<openexp._canvas.legacy.legacy object at 0x04A88FD0>","<openexp._canvas.legacy.legacy object at 0x04A5F910>","75","IndividualPriorityWithDis_v1.osexp","C:/Userdata/Michel/IndividualPriorityMaps/Experiment2","no","mono","no","18","no","white","no","yes","0.09","98","1050","legacy","45","50","50","1","C:/Userdata/Michel/IndividualPriorityMaps/Experiment2/data/subject-6.csv","legacy","9","192","25","Jazzy James","3.1.3","yes","598477b2b83f69022949e7e9","47","green","circular","red","circular","0","\","843","space","20780","20780","(80, 80, 80)","(0, 122, 0)","(179, 0, 0)","(155, 155, 155)","2","legacy","experiment","[5, 6, 7, 0, 1, 2, 3, 4]","\","2500","3000","0","8","252.758751519","1024","2","48000","-16","main","[(0, -252), (178, -178), (252, 0), (178, 178), (0, 252), (-178, 178), (-252, 0), (-178, -178)]","[]","6","even","1","118326","178154","178154","18144","17136","1771","41259","41259","1771","1771","38924","321026","1770","178154","320180","319373","319373","NA","799","study_X","0","20780","1","yes","1680"
"undefined","undefined","20780","20780","black","no","legacy","legacy","legacy","0","green","(0, 122, 0)","shape","present","highProb","rectangular","same","swap","swap","same","green","(0, 122, 0)","lowProb","lowProb6","circular","uniform","1","undefined","0.260416666667","1","1","401.161458333","1","50","77023","0","0","0","0","0","0","0","0","76","0","1","0.260416666667","401.161458333","50","77023","76","76","76","08/17/17 12:07:45","Default description","yes","<openexp._canvas.legacy.legacy object at 0x0499F7F0>","<openexp._canvas.legacy.legacy object at 0x049AA7B0>","<openexp._canvas.legacy.legacy object at 0x04994410>","<openexp._canvas.legacy.legacy object at 0x04A8C9D0>","<openexp._canvas.legacy.legacy object at 0x04A5E4B0>","<openexp._canvas.legacy.legacy object at 0x049AE9D0>","<openexp._canvas.legacy.legacy object at 0x04A5F910>","75","IndividualPriorityWithDis_v1.osexp","C:/Userdata/Michel/IndividualPriorityMaps/Experiment2","no","mono","no","18","no","white","no","yes","0.09","98","1050","legacy","45","51","51","1","C:/Userdata/Michel/IndividualPriorityMaps/Experiment2/data/subject-6.csv","legacy","9","192","25","Jazzy James","3.1.3","yes","598477b2b83f69022949e7e9","47","green","rectangular","green","circular","0","\","2263","space","20780","20780","(80, 80, 80)","(0, 122, 0)","(179, 0, 0)","(155, 155, 155)","2","legacy","experiment","[5, 6, 7, 0, 1, 2, 3, 4]","\","2500","3000","0","8","252.758751519","1024","2","48000","-16","main","[(0, -252), (178, -178), (252, 0), (178, 178), (0, 252), (-178, 178), (-252, 0), (-178, -178)]","[]","6","even","4","118326","178154","178154","18144","17136","1771","41259","41259","1771","1771","38924","324538","1770","178154","322271","321464","321464","NA","799","study_X","0","20780","1","yes","1680"
"undefined","undefined","20780","20780","black","no","legacy","legacy","legacy","0","green","(0, 122, 0)","shape","present","highProb","circular","same","swap","same","swap","green","(0, 122, 0)","lowProb","lowProb6","rectangular","uniform","1","undefined","0.265625","1","1","410.463541667","1","51","78809","0","0","0","0","0","0","0","0","77","0","1","0.265625","410.463541667","51","78809","77","77","77","08/17/17 12:07:45","Default description","yes","<openexp._canvas.legacy.legacy object at 0x0499F7F0>","<openexp._canvas.legacy.legacy object at 0x049AA7B0>","<openexp._canvas.legacy.legacy object at 0x04994410>","<openexp._canvas.legacy.legacy object at 0x04A8C9D0>","<openexp._canvas.legacy.legacy object at 0x04A5E4B0>","<openexp._canvas.legacy.legacy object at 0x049B55B0>","<openexp._canvas.legacy.legacy object at 0x04A5F910>","75","IndividualPriorityWithDis_v1.osexp","C:/Userdata/Michel/IndividualPriorityMaps/Experiment2","no","mono","no","18","no","white","no","yes","0.09","98","1050","legacy","45","52","52","1","C:/Userdata/Michel/IndividualPriorityMaps/Experiment2/data/subject-6.csv","legacy","9","192","25","Jazzy James","3.1.3","yes","598477b2b83f69022949e7e9","47","green","circular","green","rectangular","0","\","1786","space","20780","20780","(80, 80, 80)","(0, 122, 0)","(179, 0, 0)","(155, 155, 155)","2","legacy","experiment","[5, 6, 7, 0, 1, 2, 3, 4]","\","2500","3000","0","8","252.758751519","1024","2","48000","-16","main","[(0, -252), (178, -178), (252, 0), (178, 178), (0, 252), (-178, 178), (-252, 0), (-178, -178)]","[]","6","even","4","118326","178154","178154","18144","17136","1771","41259","41259","1771","1771","38924","327554","1770","178154","325764","324957","324957","NA","799","study_X","0","20780","1","yes","1680"
"undefined","undefined","20780","20780","black","no","legacy","legacy","legacy","0","red","(179, 0, 0)","shape","present","highProb","circular","swap","same","swap","same","red","(179, 0, 0)","highProbColor","highProbColor","rectangular","uniform","1","undefined","0.270833333333","1","1","415.802083333","1","52","79834","0","0","0","0","0","0","0","0","78","0","1","0.270833333333","415.802083333","52","79834","78","78","78","08/17/17 12:07:45","Default description","yes","<openexp._canvas.legacy.legacy object at 0x0499F7F0>","<openexp._canvas.legacy.legacy object at 0x049AA7B0>","<openexp._canvas.legacy.legacy object at 0x04994410>","<openexp._canvas.legacy.legacy object at 0x04A8C9D0>","<openexp._canvas.legacy.legacy object at 0x04A5E4B0>","<openexp._canvas.legacy.legacy object at 0x049AAFD0>","<openexp._canvas.legacy.legacy object at 0x04A5F910>","75","IndividualPriorityWithDis_v1.osexp","C:/Userdata/Michel/IndividualPriorityMaps/Experiment2","no","mono","no","18","no","white","no","yes","0.09","98","1050","legacy","315","53","53","1","C:/Userdata/Michel/IndividualPriorityMaps/Experiment2/data/subject-6.csv","legacy","9","192","25","Jazzy James","3.1.3","yes","598477b2b83f69022949e7e9","47","red","circular","red","rectangular","0","/","1025","space","20780","20780","(80, 80, 80)","(0, 122, 0)","(179, 0, 0)","(155, 155, 155)","2","legacy","experiment","[5, 6, 7, 0, 1, 2, 3, 4]","/","2500","3000","0","8","252.758751519","1024","2","48000","-16","main","[(0, -252), (178, -178), (252, 0), (178, 178), (0, 252), (-178, 178), (-252, 0), (-178, -178)]","[]","6","even","5","118326","178154","178154","18144","17136","1771","41259","41259","1771","1771","38924","329818","1770","178154","328790","327983","327983","NA","799","study_X","0","20780","1","yes","1680"
"undefined","undefined","20780","20780","black","no","legacy","legacy","legacy","0","red","(179, 0, 0)","shape","present","lowProb5","rectangular","same","swap","same","swap","red","(179, 0, 0)","lowProb","lowProb3","circular","uniform","1","undefined","0.276041666667","1","1","426.776041667","1","53","81941","0","0","0","0","0","0","0","0","79","0","1","0.276041666667","426.776041667","53","81941","79","79","79","08/17/17 12:07:45","Default description","yes","<openexp._canvas.legacy.legacy object at 0x0499F7F0>","<openexp._canvas.legacy.legacy object at 0x049AA7B0>","<openexp._canvas.legacy.legacy object at 0x04994410>","<openexp._canvas.legacy.legacy object at 0x04A8C9D0>","<openexp._canvas.legacy.legacy object at 0x04A5E4B0>","<openexp._canvas.legacy.legacy object at 0x04A92E10>","<openexp._canvas.legacy.legacy object at 0x04A5F910>","75","IndividualPriorityWithDis_v1.osexp","C:/Userdata/Michel/IndividualPriorityMaps/Experiment2","no","mono","no","18","no","white","no","yes","0.09","98","1050","legacy","315","54","54","1","C:/Userdata/Michel/IndividualPriorityMaps/Experiment2/data/subject-6.csv","legacy","9","192","25","Jazzy James","3.1.3","yes","598477b2b83f69022949e7e9","47","red","rectangular","red","circular","0","/","2107","space","20780","20780","(80, 80, 80)","(0, 122, 0)","(179, 0, 0)","(155, 155, 155)","2","legacy","experiment","[5, 6, 7, 0, 1, 2, 3, 4]","/","2500","3000","0","8","252.758751519","1024","2","48000","-16","main","[(0, -252), (178, -178), (252, 0), (178, 178), (0, 252), (-178, 178), (-252, 0), (-178, -178)]","[]","6","even","0","118326","178154","178154","18144","17136","1771","41259","41259","1771","1771","38924","333154","1770","178154","331044","330237","330237","NA","799","study_X","0","20780","1","yes","1680"
