"acc","accuracy","average_response_time","avg_rt","background","bidi","canvas_backend","clock_backend","color_backend","compensation","cond_disColor","cond_disColorRGB","cond_disFeature","cond_disPresent","cond_disProbability","cond_disShape","cond_primingDisColor","cond_primingDisShape","cond_primingTarColor","cond_primingTarShape","cond_tarColor","cond_tarColorRGB","cond_tarLocation","cond_tarLocationLong","cond_tarShape","coordinates","correct","correct_continuePress","count_blockAcc","count_blockFeed","count_blockLoop","count_blockRT","count_blockSeq","count_blockSumCorrect","count_blockSumRT","count_continuePress","count_example","count_expSettings","count_exp_mainLoop","count_experiment","count_instructions","count_instructions1","count_instructions2","count_log","count_main","count_prepCanvas","count_totalAcc","count_totalRT","count_totalSumCorrect","count_totalSumRT","count_trialResp","count_trialSeq","count_trialTask","datetime","description","disable_garbage_collection","dispBlank","dispBlockStart","dispFeedBlock","dispFix","dispInstructions","dispSearch","dispStartScreen","distance2screen","experiment_file","experiment_path","font_bold","font_family","font_italic","font_size","font_underline","foreground","form_clicks","fullscreen","gaborFreq","gaborSize","height","keyboard_backend","lineOriTar","live_row","live_row_blockLoop","live_row_exp_mainLoop","logfile","mouse_backend","noExpBlocks","noExpTrials","noPracTrials","opensesame_codename","opensesame_version","osf_always_upload_experiment","osf_id","physical_screensize","previousDisColor","previousDisShape","previousTarColor","previousTarShape","repeat_cycle","response","responseTime","response_continuePress","response_time","response_time_continuePress","rgb_gray","rgb_green","rgb_red","rgb_white","round_decimals","sampler_backend","set_blockType","set_counterPositions","set_respCorrect","set_respTimeoutExp","set_respTimeoutPrac","set_rotation","set_setSize","sizeImaginary","sound_buf_size","sound_channels","sound_freq","sound_sample_size","start","stimPositions","stimuli","subject_nr","subject_parity","tarIdx","time_blockFeed","time_blockLoop","time_blockSeq","time_continuePress","time_example","time_expSettings","time_exp_mainLoop","time_experiment","time_instructions","time_instructions1","time_instructions2","time_log","time_main","time_prepCanvas","time_trialResp","time_trialSeq","time_trialTask","timing_EEGwait","timing_fix","title","total_correct","total_response_time","total_responses","uniform_coordinates","width"
"undefined","undefined","18501","18501","black","no","legacy","legacy","legacy","0","green","(0, 122, 0)","shape","present","highProbOther","circular","swap","same","swap","same","green","(0, 122, 0)","lowProb","lowProb5","rectangular","uniform","1","undefined","0.00520833333333","1","1","7.65625","1","1","1470","0","0","0","0","0","0","0","0","25","0","1","0.00520833333333","7.65625","1","1470","25","25","25","08/24/17 11:53:52","Default description","yes","<openexp._canvas.legacy.legacy object at 0x047C27F0>","<openexp._canvas.legacy.legacy object at 0x047CE7B0>","<openexp._canvas.legacy.legacy object at 0x047BA290>","<openexp._canvas.legacy.legacy object at 0x048B09D0>","<openexp._canvas.legacy.legacy object at 0x048814B0>","<openexp._canvas.legacy.legacy object at 0x047BE550>","<openexp._canvas.legacy.legacy object at 0x048829F0>","75","IndividualPriorityWithDis_v1.osexp","C:/Userdata/Michel/SpatialProb/IndividualPriorityMaps/Experiment2","no","mono","no","18","no","white","no","yes","0.09","98","1050","legacy","45","0","0","1","C:/Userdata/Michel/SpatialProb/IndividualPriorityMaps/Experiment2/data/subject-21.csv","legacy","9","192","25","Jazzy James","3.1.3","yes","598477b2b83f69022949e7e9","47","green","circular","green","rectangular","0","\","1470","space","18501","18501","(80, 80, 80)","(0, 122, 0)","(179, 0, 0)","(155, 155, 155)","2","legacy","experiment","[4, 5, 6, 7, 0, 1, 2, 3]","\","2500","3000","0","8","252.758751519","1024","2","48000","-16","main","[(0, -252), (178, -178), (252, 0), (178, 178), (0, 252), (-178, 178), (-252, 0), (-178, -178)]","[]","21","odd","2","294472","579192","579192","185529","184522","1810","231086","231086","1810","1810","204030","587051","1809","579192","585578","579570","579570","NA","931","study_X","0","18501","1","yes","1680"
"undefined","undefined","18501","18501","black","no","legacy","legacy","legacy","0","green","(0, 122, 0)","shape","present","highProb","rectangular","same","swap","same","swap","green","(0, 122, 0)","lowProb","lowProb1","circular","uniform","1","undefined","0.0104166666667","1","1","14.265625","1","2","2739","0","0","0","0","0","0","0","0","26","0","1","0.0104166666667","14.265625","2","2739","26","26","26","08/24/17 11:53:52","Default description","yes","<openexp._canvas.legacy.legacy object at 0x047C27F0>","<openexp._canvas.legacy.legacy object at 0x047CE7B0>","<openexp._canvas.legacy.legacy object at 0x047BA290>","<openexp._canvas.legacy.legacy object at 0x048B09D0>","<openexp._canvas.legacy.legacy object at 0x048814B0>","<openexp._canvas.legacy.legacy object at 0x047CEFB0>","<openexp._canvas.legacy.legacy object at 0x048829F0>","75","IndividualPriorityWithDis_v1.osexp","C:/Userdata/Michel/SpatialProb/IndividualPriorityMaps/Experiment2","no","mono","no","18","no","white","no","yes","0.09","98","1050","legacy","45","1","1","1","C:/Userdata/Michel/SpatialProb/IndividualPriorityMaps/Experiment2/data/subject-21.csv","legacy","9","192","25","Jazzy James","3.1.3","yes","598477b2b83f69022949e7e9","47","green","rectangular","green","circular","0","\","1269","space","18501","18501","(80, 80, 80)","(0, 122, 0)","(179, 0, 0)","(155, 155, 155)","2","legacy","experiment","[4, 5, 6, 7, 0, 1, 2, 3]","\","2500","3000","0","8","252.758751519","1024","2","48000","-16","main","[(0, -252), (178, -178), (252, 0), (178, 178), (0, 252), (-178, 178), (-252, 0), (-178, -178)]","[]","21","odd","5","294472","579192","579192","185529","184522","1810","231086","231086","1810","1810","204030","589691","1809","579192","588419","587482","587482","NA","931","study_X","0","18501","1","yes","1680"
"undefined","undefined","18501","18501","black","no","legacy","legacy","legacy","0","red","(179, 0, 0)","shape","present","highProb","circular","swap","swap","swap","swap","red","(179, 0, 0)","highProbColor","highProbColor","rectangular","uniform","1","undefined","0.015625","1","1","18.9635416667","1","3","3641","0","0","0","0","0","0","0","0","27","0","1","0.015625","18.9635416667","3","3641","27","27","27","08/24/17 11:53:52","Default description","yes","<openexp._canvas.legacy.legacy object at 0x047C27F0>","<openexp._canvas.legacy.legacy object at 0x047CE7B0>","<openexp._canvas.legacy.legacy object at 0x047BA290>","<openexp._canvas.legacy.legacy object at 0x048B09D0>","<openexp._canvas.legacy.legacy object at 0x048814B0>","<openexp._canvas.legacy.legacy object at 0x047BF950>","<openexp._canvas.legacy.legacy object at 0x048829F0>","75","IndividualPriorityWithDis_v1.osexp","C:/Userdata/Michel/SpatialProb/IndividualPriorityMaps/Experiment2","no","mono","no","18","no","white","no","yes","0.09","98","1050","legacy","45","2","2","1","C:/Userdata/Michel/SpatialProb/IndividualPriorityMaps/Experiment2/data/subject-21.csv","legacy","9","192","25","Jazzy James","3.1.3","yes","598477b2b83f69022949e7e9","47","red","circular","red","rectangular","0","\","902","space","18501","18501","(80, 80, 80)","(0, 122, 0)","(179, 0, 0)","(155, 155, 155)","2","legacy","experiment","[4, 5, 6, 7, 0, 1, 2, 3]","\","2500","3000","0","8","252.758751519","1024","2","48000","-16","main","[(0, -252), (178, -178), (252, 0), (178, 178), (0, 252), (-178, 178), (-252, 0), (-178, -178)]","[]","21","odd","4","294472","579192","579192","185529","184522","1810","231086","231086","1810","1810","204030","591931","1809","579192","591026","590089","590089","NA","931","study_X","0","18501","1","yes","1680"
"undefined","undefined","18501","18501","black","no","legacy","legacy","legacy","0","green","(0, 122, 0)","shape","present","highProb","rectangular","swap","swap","swap","swap","green","(0, 122, 0)","lowProb","lowProb5","circular","uniform","1","undefined","0.0208333333333","1","1","24.65625","1","4","4734","0","0","0","0","0","0","0","0","28","0","1","0.0208333333333","24.65625","4","4734","28","28","28","08/24/17 11:53:52","Default description","yes","<openexp._canvas.legacy.legacy object at 0x047C27F0>","<openexp._canvas.legacy.legacy object at 0x047CE7B0>","<openexp._canvas.legacy.legacy object at 0x047BA290>","<openexp._canvas.legacy.legacy object at 0x048B09D0>","<openexp._canvas.legacy.legacy object at 0x048814B0>","<openexp._canvas.legacy.legacy object at 0x047BAFD0>","<openexp._canvas.legacy.legacy object at 0x048829F0>","75","IndividualPriorityWithDis_v1.osexp","C:/Userdata/Michel/SpatialProb/IndividualPriorityMaps/Experiment2","no","mono","no","18","no","white","no","yes","0.09","98","1050","legacy","45","3","3","1","C:/Userdata/Michel/SpatialProb/IndividualPriorityMaps/Experiment2/data/subject-21.csv","legacy","9","192","25","Jazzy James","3.1.3","yes","598477b2b83f69022949e7e9","47","green","rectangular","green","circular","0","\","1093","space","18501","18501","(80, 80, 80)","(0, 122, 0)","(179, 0, 0)","(155, 155, 155)","2","legacy","experiment","[4, 5, 6, 7, 0, 1, 2, 3]","\","2500","3000","0","8","252.758751519","1024","2","48000","-16","main","[(0, -252), (178, -178), (252, 0), (178, 178), (0, 252), (-178, 178), (-252, 0), (-178, -178)]","[]","21","odd","2","294472","579192","579192","185529","184522","1810","231086","231086","1810","1810","204030","594371","1809","579192","593275","592339","592339","NA","931","study_X","0","18501","1","yes","1680"
"undefined","undefined","18501","18501","black","no","legacy","legacy","legacy","0","green","(0, 122, 0)","shape","absent","lowProb3","circular","same","swap","same","same","green","(0, 122, 0)","lowProb","lowProb6","circular","uniform","1","undefined","0.0260416666667","1","1","28.2291666667","1","5","5420","0","0","0","0","0","0","0","0","29","0","1","0.0260416666667","28.2291666667","5","5420","29","29","29","08/24/17 11:53:52","Default description","yes","<openexp._canvas.legacy.legacy object at 0x047C27F0>","<openexp._canvas.legacy.legacy object at 0x047CE7B0>","<openexp._canvas.legacy.legacy object at 0x047BA290>","<openexp._canvas.legacy.legacy object at 0x048B09D0>","<openexp._canvas.legacy.legacy object at 0x048814B0>","<openexp._canvas.legacy.legacy object at 0x048B0F70>","<openexp._canvas.legacy.legacy object at 0x048829F0>","75","IndividualPriorityWithDis_v1.osexp","C:/Userdata/Michel/SpatialProb/IndividualPriorityMaps/Experiment2","no","mono","no","18","no","white","no","yes","0.09","98","1050","legacy","315","4","4","1","C:/Userdata/Michel/SpatialProb/IndividualPriorityMaps/Experiment2/data/subject-21.csv","legacy","9","192","25","Jazzy James","3.1.3","yes","598477b2b83f69022949e7e9","47","green","circular","green","circular","0","/","686","space","18501","18501","(80, 80, 80)","(0, 122, 0)","(179, 0, 0)","(155, 155, 155)","2","legacy","experiment","[4, 5, 6, 7, 0, 1, 2, 3]","/","2500","3000","0","8","252.758751519","1024","2","48000","-16","main","[(0, -252), (178, -178), (252, 0), (178, 178), (0, 252), (-178, 178), (-252, 0), (-178, -178)]","[]","21","odd","3","294472","579192","579192","185529","184522","1810","231086","231086","1810","1810","204030","596404","1809","579192","595714","594777","594778","NA","931","study_X","0","18501","1","yes","1680"
"undefined","undefined","18501","18501","black","no","legacy","legacy","legacy","0","green","(0, 122, 0)","color","present","highProb","rectangular","same","swap","swap","swap","red","(179, 0, 0)","lowProb","lowProb6","rectangular","uniform","1","undefined","0.03125","1","1","31.65625","1","6","6078","0","0","0","0","0","0","0","0","30","0","1","0.03125","31.65625","6","6078","30","30","30","08/24/17 11:53:52","Default description","yes","<openexp._canvas.legacy.legacy object at 0x047C27F0>","<openexp._canvas.legacy.legacy object at 0x047CE7B0>","<openexp._canvas.legacy.legacy object at 0x047BA290>","<openexp._canvas.legacy.legacy object at 0x048B09D0>","<openexp._canvas.legacy.legacy object at 0x048814B0>","<openexp._canvas.legacy.legacy object at 0x047BE610>","<openexp._canvas.legacy.legacy object at 0x048829F0>","75","IndividualPriorityWithDis_v1.osexp","C:/Userdata/Michel/SpatialProb/IndividualPriorityMaps/Experiment2","no","mono","no","18","no","white","no","yes","0.09","98","1050","legacy","315","5","5","1","C:/Userdata/Michel/SpatialProb/IndividualPriorityMaps/Experiment2/data/subject-21.csv","legacy","9","192","25","Jazzy James","3.1.3","yes","598477b2b83f69022949e7e9","47","green","rectangular","red","rectangular","0","/","658","space","18501","18501","(80, 80, 80)","(0, 122, 0)","(179, 0, 0)","(155, 155, 155)","2","legacy","experiment","[4, 5, 6, 7, 0, 1, 2, 3]","/","2500","3000","0","8","252.758751519","1024","2","48000","-16","main","[(0, -252), (178, -178), (252, 0), (178, 178), (0, 252), (-178, 178), (-252, 0), (-178, -178)]","[]","21","odd","3","294472","579192","579192","185529","184522","1810","231086","231086","1810","1810","204030","598412","1809","579192","597750","596813","596813","NA","931","study_X","0","18501","1","yes","1680"
"undefined","undefined","18501","18501","black","no","legacy","legacy","legacy","0","green","(0, 122, 0)","shape","present","highProb","circular","same","swap","swap","same","green","(0, 122, 0)","lowProb","lowProb4","rectangular","uniform","1","undefined","0.0364583333333","1","1","35.734375","1","7","6861","0","0","0","0","0","0","0","0","31","0","1","0.0364583333333","35.734375","7","6861","31","31","31","08/24/17 11:53:52","Default description","yes","<openexp._canvas.legacy.legacy object at 0x047C27F0>","<openexp._canvas.legacy.legacy object at 0x047CE7B0>","<openexp._canvas.legacy.legacy object at 0x047BA290>","<openexp._canvas.legacy.legacy object at 0x048B09D0>","<openexp._canvas.legacy.legacy object at 0x048814B0>","<openexp._canvas.legacy.legacy object at 0x047BF930>","<openexp._canvas.legacy.legacy object at 0x048829F0>","75","IndividualPriorityWithDis_v1.osexp","C:/Userdata/Michel/SpatialProb/IndividualPriorityMaps/Experiment2","no","mono","no","18","no","white","no","yes","0.09","98","1050","legacy","45","6","6","1","C:/Userdata/Michel/SpatialProb/IndividualPriorityMaps/Experiment2/data/subject-21.csv","legacy","9","192","25","Jazzy James","3.1.3","yes","598477b2b83f69022949e7e9","47","green","circular","green","rectangular","0","\","783","space","18501","18501","(80, 80, 80)","(0, 122, 0)","(179, 0, 0)","(155, 155, 155)","2","legacy","experiment","[4, 5, 6, 7, 0, 1, 2, 3]","\","2500","3000","0","8","252.758751519","1024","2","48000","-16","main","[(0, -252), (178, -178), (252, 0), (178, 178), (0, 252), (-178, 178), (-252, 0), (-178, -178)]","[]","21","odd","1","294472","579192","579192","185529","184522","1810","231086","231086","1810","1810","204030","600540","1809","579192","599753","598816","598816","NA","931","study_X","0","18501","1","yes","1680"
"undefined","undefined","18501","18501","black","no","legacy","legacy","legacy","0","red","(179, 0, 0)","shape","present","lowProb1","rectangular","swap","swap","swap","swap","red","(179, 0, 0)","highProbColor","highProbColor","circular","uniform","1","undefined","0.0416666666667","1","1","40.625","1","8","7800","0","0","0","0","0","0","0","0","32","0","1","0.0416666666667","40.625","8","7800","32","32","32","08/24/17 11:53:52","Default description","yes","<openexp._canvas.legacy.legacy object at 0x047C27F0>","<openexp._canvas.legacy.legacy object at 0x047CE7B0>","<openexp._canvas.legacy.legacy object at 0x047BA290>","<openexp._canvas.legacy.legacy object at 0x048B09D0>","<openexp._canvas.legacy.legacy object at 0x048814B0>","<openexp._canvas.legacy.legacy object at 0x047BE070>","<openexp._canvas.legacy.legacy object at 0x048829F0>","75","IndividualPriorityWithDis_v1.osexp","C:/Userdata/Michel/SpatialProb/IndividualPriorityMaps/Experiment2","no","mono","no","18","no","white","no","yes","0.09","98","1050","legacy","315","7","7","1","C:/Userdata/Michel/SpatialProb/IndividualPriorityMaps/Experiment2/data/subject-21.csv","legacy","9","192","25","Jazzy James","3.1.3","yes","598477b2b83f69022949e7e9","47","red","rectangular","red","circular","0","/","939","space","18501","18501","(80, 80, 80)","(0, 122, 0)","(179, 0, 0)","(155, 155, 155)","2","legacy","experiment","[4, 5, 6, 7, 0, 1, 2, 3]","/","2500","3000","0","8","252.758751519","1024","2","48000","-16","main","[(0, -252), (178, -178), (252, 0), (178, 178), (0, 252), (-178, 178), (-252, 0), (-178, -178)]","[]","21","odd","4","294472","579192","579192","185529","184522","1810","231086","231086","1810","1810","204030","602835","1809","579192","601893","600956","600956","NA","931","study_X","0","18501","1","yes","1680"
"undefined","undefined","18501","18501","black","no","legacy","legacy","legacy","0","green","(0, 122, 0)","color","present","highProb","circular","swap","swap","same","same","red","(179, 0, 0)","lowProb","lowProb1","circular","uniform","1","undefined","0.046875","1","1","43.9791666667","1","9","8444","0","0","0","0","0","0","0","0","33","0","1","0.046875","43.9791666667","9","8444","33","33","33","08/24/17 11:53:52","Default description","yes","<openexp._canvas.legacy.legacy object at 0x047C27F0>","<openexp._canvas.legacy.legacy object at 0x047CE7B0>","<openexp._canvas.legacy.legacy object at 0x047BA290>","<openexp._canvas.legacy.legacy object at 0x048B09D0>","<openexp._canvas.legacy.legacy object at 0x048814B0>","<openexp._canvas.legacy.legacy object at 0x047BF3B0>","<openexp._canvas.legacy.legacy object at 0x048829F0>","75","IndividualPriorityWithDis_v1.osexp","C:/Userdata/Michel/SpatialProb/IndividualPriorityMaps/Experiment2","no","mono","no","18","no","white","no","yes","0.09","98","1050","legacy","315","8","8","1","C:/Userdata/Michel/SpatialProb/IndividualPriorityMaps/Experiment2/data/subject-21.csv","legacy","9","192","25","Jazzy James","3.1.3","yes","598477b2b83f69022949e7e9","47","green","circular","red","circular","0","/","644","space","18501","18501","(80, 80, 80)","(0, 122, 0)","(179, 0, 0)","(155, 155, 155)","2","legacy","experiment","[4, 5, 6, 7, 0, 1, 2, 3]","/","2500","3000","0","8","252.758751519","1024","2","48000","-16","main","[(0, -252), (178, -178), (252, 0), (178, 178), (0, 252), (-178, 178), (-252, 0), (-178, -178)]","[]","21","odd","5","294472","579192","579192","185529","184522","1810","231086","231086","1810","1810","204030","604819","1809","579192","604172","603235","603235","NA","931","study_X","0","18501","1","yes","1680"
"undefined","undefined","18501","18501","black","no","legacy","legacy","legacy","0","red","(179, 0, 0)","color","present","highProb","rectangular","swap","swap","swap","swap","green","(0, 122, 0)","lowProb","lowProb5","rectangular","uniform","1","undefined","0.0520833333333","1","1","47.203125","1","10","9063","0","0","0","0","0","0","0","0","34","0","1","0.0520833333333","47.203125","10","9063","34","34","34","08/24/17 11:53:52","Default description","yes","<openexp._canvas.legacy.legacy object at 0x047C27F0>","<openexp._canvas.legacy.legacy object at 0x047CE7B0>","<openexp._canvas.legacy.legacy object at 0x047BA290>","<openexp._canvas.legacy.legacy object at 0x048B09D0>","<openexp._canvas.legacy.legacy object at 0x048814B0>","<openexp._canvas.legacy.legacy object at 0x048B00F0>","<openexp._canvas.legacy.legacy object at 0x048829F0>","75","IndividualPriorityWithDis_v1.osexp","C:/Userdata/Michel/SpatialProb/IndividualPriorityMaps/Experiment2","no","mono","no","18","no","white","no","yes","0.09","98","1050","legacy","45","9","9","1","C:/Userdata/Michel/SpatialProb/IndividualPriorityMaps/Experiment2/data/subject-21.csv","legacy","9","192","25","Jazzy James","3.1.3","yes","598477b2b83f69022949e7e9","47","red","rectangular","green","rectangular","0","\","619","space","18501","18501","(80, 80, 80)","(0, 122, 0)","(179, 0, 0)","(155, 155, 155)","2","legacy","experiment","[4, 5, 6, 7, 0, 1, 2, 3]","\","2500","3000","0","8","252.758751519","1024","2","48000","-16","main","[(0, -252), (178, -178), (252, 0), (178, 178), (0, 252), (-178, 178), (-252, 0), (-178, -178)]","[]","21","odd","2","294472","579192","579192","185529","184522","1810","231086","231086","1810","1810","204030","606779","1809","579192","606157","605220","605220","NA","931","study_X","0","18501","1","yes","1680"
"undefined","undefined","18501","18501","black","no","legacy","legacy","legacy","0","red","(179, 0, 0)","shape","absent","lowProb1","circular","same","swap","swap","swap","red","(179, 0, 0)","lowProb","lowProb1","circular","uniform","1","undefined","0.0572916666667","1","1","51.4635416667","1","11","9881","0","0","0","0","0","0","0","0","35","0","1","0.0572916666667","51.4635416667","11","9881","35","35","35","08/24/17 11:53:52","Default description","yes","<openexp._canvas.legacy.legacy object at 0x047C27F0>","<openexp._canvas.legacy.legacy object at 0x047CE7B0>","<openexp._canvas.legacy.legacy object at 0x047BA290>","<openexp._canvas.legacy.legacy object at 0x048B09D0>","<openexp._canvas.legacy.legacy object at 0x048814B0>","<openexp._canvas.legacy.legacy object at 0x047C9110>","<openexp._canvas.legacy.legacy object at 0x048829F0>","75","IndividualPriorityWithDis_v1.osexp","C:/Userdata/Michel/SpatialProb/IndividualPriorityMaps/Experiment2","no","mono","no","18","no","white","no","yes","0.09","98","1050","legacy","45","10","10","1","C:/Userdata/Michel/SpatialProb/IndividualPriorityMaps/Experiment2/data/subject-21.csv","legacy","9","192","25","Jazzy James","3.1.3","yes","598477b2b83f69022949e7e9","47","red","circular","red","circular","0","\","818","space","18501","18501","(80, 80, 80)","(0, 122, 0)","(179, 0, 0)","(155, 155, 155)","2","legacy","experiment","[4, 5, 6, 7, 0, 1, 2, 3]","\","2500","3000","0","8","252.758751519","1024","2","48000","-16","main","[(0, -252), (178, -178), (252, 0), (178, 178), (0, 252), (-178, 178), (-252, 0), (-178, -178)]","[]","21","odd","5","294472","579192","579192","185529","184522","1810","231086","231086","1810","1810","204030","608947","1809","579192","608126","607190","607190","NA","931","study_X","0","18501","1","yes","1680"
"undefined","undefined","18501","18501","black","no","legacy","legacy","legacy","0","green","(0, 122, 0)","color","absent","lowProb2","rectangular","swap","swap","swap","swap","green","(0, 122, 0)","lowProb","lowProb1","rectangular","uniform","1","undefined","0.0625","1","1","54.3125","1","12","10428","0","0","0","0","0","0","0","0","36","0","1","0.0625","54.3125","12","10428","36","36","36","08/24/17 11:53:52","Default description","yes","<openexp._canvas.legacy.legacy object at 0x047C27F0>","<openexp._canvas.legacy.legacy object at 0x047CE7B0>","<openexp._canvas.legacy.legacy object at 0x047BA290>","<openexp._canvas.legacy.legacy object at 0x048B09D0>","<openexp._canvas.legacy.legacy object at 0x048814B0>","<openexp._canvas.legacy.legacy object at 0x047BFEB0>","<openexp._canvas.legacy.legacy object at 0x048829F0>","75","IndividualPriorityWithDis_v1.osexp","C:/Userdata/Michel/SpatialProb/IndividualPriorityMaps/Experiment2","no","mono","no","18","no","white","no","yes","0.09","98","1050","legacy","45","11","11","1","C:/Userdata/Michel/SpatialProb/IndividualPriorityMaps/Experiment2/data/subject-21.csv","legacy","9","192","25","Jazzy James","3.1.3","yes","598477b2b83f69022949e7e9","47","green","rectangular","green","rectangular","0","\","547","space","18501","18501","(80, 80, 80)","(0, 122, 0)","(179, 0, 0)","(155, 155, 155)","2","legacy","experiment","[4, 5, 6, 7, 0, 1, 2, 3]","\","2500","3000","0","8","252.758751519","1024","2","48000","-16","main","[(0, -252), (178, -178), (252, 0), (178, 178), (0, 252), (-178, 178), (-252, 0), (-178, -178)]","[]","21","odd","5","294472","579192","579192","185529","184522","1810","231086","231086","1810","1810","204030","610827","1809","579192","610278","609341","609341","NA","931","study_X","0","18501","1","yes","1680"
"undefined","undefined","18501","18501","black","no","legacy","legacy","legacy","0","green","(0, 122, 0)","shape","present","highProb","circular","same","swap","same","same","green","(0, 122, 0)","highProbColor","highProbColor","rectangular","uniform","1","undefined","0.0677083333333","1","1","57.953125","1","13","11127","0","0","0","0","0","0","0","0","37","0","1","0.0677083333333","57.953125","13","11127","37","37","37","08/24/17 11:53:52","Default description","yes","<openexp._canvas.legacy.legacy object at 0x047C27F0>","<openexp._canvas.legacy.legacy object at 0x047CE7B0>","<openexp._canvas.legacy.legacy object at 0x047BA290>","<openexp._canvas.legacy.legacy object at 0x048B09D0>","<openexp._canvas.legacy.legacy object at 0x048814B0>","<openexp._canvas.legacy.legacy object at 0x047D2710>","<openexp._canvas.legacy.legacy object at 0x048829F0>","75","IndividualPriorityWithDis_v1.osexp","C:/Userdata/Michel/SpatialProb/IndividualPriorityMaps/Experiment2","no","mono","no","18","no","white","no","yes","0.09","98","1050","legacy","45","12","12","1","C:/Userdata/Michel/SpatialProb/IndividualPriorityMaps/Experiment2/data/subject-21.csv","legacy","9","192","25","Jazzy James","3.1.3","yes","598477b2b83f69022949e7e9","47","green","circular","green","rectangular","0","\","699","space","18501","18501","(80, 80, 80)","(0, 122, 0)","(179, 0, 0)","(155, 155, 155)","2","legacy","experiment","[4, 5, 6, 7, 0, 1, 2, 3]","\","2500","3000","0","8","252.758751519","1024","2","48000","-16","main","[(0, -252), (178, -178), (252, 0), (178, 178), (0, 252), (-178, 178), (-252, 0), (-178, -178)]","[]","21","odd","4","294472","579192","579192","185529","184522","1810","231086","231086","1810","1810","204030","612868","1809","579192","612165","611228","611228","NA","931","study_X","0","18501","1","yes","1680"
"undefined","undefined","18501","18501","black","no","legacy","legacy","legacy","0","red","(179, 0, 0)","color","present","highProbOther","circular","swap","same","same","swap","green","(0, 122, 0)","lowProb","lowProb6","circular","uniform","1","undefined","0.0729166666667","1","1","61.859375","1","14","11877","0","0","0","0","0","0","0","0","38","0","1","0.0729166666667","61.859375","14","11877","38","38","38","08/24/17 11:53:52","Default description","yes","<openexp._canvas.legacy.legacy object at 0x047C27F0>","<openexp._canvas.legacy.legacy object at 0x047CE7B0>","<openexp._canvas.legacy.legacy object at 0x047BA290>","<openexp._canvas.legacy.legacy object at 0x048B09D0>","<openexp._canvas.legacy.legacy object at 0x048814B0>","<openexp._canvas.legacy.legacy object at 0x047BF6B0>","<openexp._canvas.legacy.legacy object at 0x048829F0>","75","IndividualPriorityWithDis_v1.osexp","C:/Userdata/Michel/SpatialProb/IndividualPriorityMaps/Experiment2","no","mono","no","18","no","white","no","yes","0.09","98","1050","legacy","45","13","13","1","C:/Userdata/Michel/SpatialProb/IndividualPriorityMaps/Experiment2/data/subject-21.csv","legacy","9","192","25","Jazzy James","3.1.3","yes","598477b2b83f69022949e7e9","47","red","circular","green","circular","0","\","750","space","18501","18501","(80, 80, 80)","(0, 122, 0)","(179, 0, 0)","(155, 155, 155)","2","legacy","experiment","[4, 5, 6, 7, 0, 1, 2, 3]","\","2500","3000","0","8","252.758751519","1024","2","48000","-16","main","[(0, -252), (178, -178), (252, 0), (178, 178), (0, 252), (-178, 178), (-252, 0), (-178, -178)]","[]","21","odd","3","294472","579192","579192","185529","184522","1810","231086","231086","1810","1810","204030","614980","1809","579192","614227","613290","613290","NA","931","study_X","0","18501","1","yes","1680"
"undefined","undefined","18501","18501","black","no","legacy","legacy","legacy","0","green","(0, 122, 0)","color","present","lowProb1","rectangular","swap","swap","swap","swap","red","(179, 0, 0)","lowProb","lowProb4","rectangular","uniform","1","undefined","0.078125","1","1","65.0208333333","1","15","12484","0","0","0","0","0","0","0","0","39","0","1","0.078125","65.0208333333","15","12484","39","39","39","08/24/17 11:53:52","Default description","yes","<openexp._canvas.legacy.legacy object at 0x047C27F0>","<openexp._canvas.legacy.legacy object at 0x047CE7B0>","<openexp._canvas.legacy.legacy object at 0x047BA290>","<openexp._canvas.legacy.legacy object at 0x048B09D0>","<openexp._canvas.legacy.legacy object at 0x048814B0>","<openexp._canvas.legacy.legacy object at 0x047BF910>","<openexp._canvas.legacy.legacy object at 0x048829F0>","75","IndividualPriorityWithDis_v1.osexp","C:/Userdata/Michel/SpatialProb/IndividualPriorityMaps/Experiment2","no","mono","no","18","no","white","no","yes","0.09","98","1050","legacy","315","14","14","1","C:/Userdata/Michel/SpatialProb/IndividualPriorityMaps/Experiment2/data/subject-21.csv","legacy","9","192","25","Jazzy James","3.1.3","yes","598477b2b83f69022949e7e9","47","green","rectangular","red","rectangular","0","/","607","space","18501","18501","(80, 80, 80)","(0, 122, 0)","(179, 0, 0)","(155, 155, 155)","2","legacy","experiment","[4, 5, 6, 7, 0, 1, 2, 3]","/","2500","3000","0","8","252.758751519","1024","2","48000","-16","main","[(0, -252), (178, -178), (252, 0), (178, 178), (0, 252), (-178, 178), (-252, 0), (-178, -178)]","[]","21","odd","1","294472","579192","579192","185529","184522","1810","231086","231086","1810","1810","204030","616979","1809","579192","616369","615432","615432","NA","931","study_X","0","18501","1","yes","1680"
"undefined","undefined","18501","18501","black","no","legacy","legacy","legacy","0","green","(0, 122, 0)","color","present","highProb","rectangular","same","same","same","same","red","(179, 0, 0)","lowProb","lowProb6","rectangular","uniform","1","undefined","0.0833333333333","1","1","67.921875","1","16","13041","0","0","0","0","0","0","0","0","40","0","1","0.0833333333333","67.921875","16","13041","40","40","40","08/24/17 11:53:52","Default description","yes","<openexp._canvas.legacy.legacy object at 0x047C27F0>","<openexp._canvas.legacy.legacy object at 0x047CE7B0>","<openexp._canvas.legacy.legacy object at 0x047BA290>","<openexp._canvas.legacy.legacy object at 0x048B09D0>","<openexp._canvas.legacy.legacy object at 0x048814B0>","<openexp._canvas.legacy.legacy object at 0x047BE850>","<openexp._canvas.legacy.legacy object at 0x048829F0>","75","IndividualPriorityWithDis_v1.osexp","C:/Userdata/Michel/SpatialProb/IndividualPriorityMaps/Experiment2","no","mono","no","18","no","white","no","yes","0.09","98","1050","legacy","315","15","15","1","C:/Userdata/Michel/SpatialProb/IndividualPriorityMaps/Experiment2/data/subject-21.csv","legacy","9","192","25","Jazzy James","3.1.3","yes","598477b2b83f69022949e7e9","47","green","rectangular","red","rectangular","0","/","557","space","18501","18501","(80, 80, 80)","(0, 122, 0)","(179, 0, 0)","(155, 155, 155)","2","legacy","experiment","[4, 5, 6, 7, 0, 1, 2, 3]","/","2500","3000","0","8","252.758751519","1024","2","48000","-16","main","[(0, -252), (178, -178), (252, 0), (178, 178), (0, 252), (-178, 178), (-252, 0), (-178, -178)]","[]","21","odd","3","294472","579192","579192","185529","184522","1810","231086","231086","1810","1810","204030","618875","1809","579192","618315","617378","617378","NA","931","study_X","0","18501","1","yes","1680"
"undefined","undefined","18501","18501","black","no","legacy","legacy","legacy","0","red","(179, 0, 0)","shape","present","lowProb2","rectangular","swap","same","same","swap","red","(179, 0, 0)","lowProb","lowProb4","circular","uniform","1","undefined","0.0885416666667","1","1","71.671875","1","17","13761","0","0","0","0","0","0","0","0","41","0","1","0.0885416666667","71.671875","17","13761","41","41","41","08/24/17 11:53:52","Default description","yes","<openexp._canvas.legacy.legacy object at 0x047C27F0>","<openexp._canvas.legacy.legacy object at 0x047CE7B0>","<openexp._canvas.legacy.legacy object at 0x047BA290>","<openexp._canvas.legacy.legacy object at 0x048B09D0>","<openexp._canvas.legacy.legacy object at 0x048814B0>","<openexp._canvas.legacy.legacy object at 0x047CE950>","<openexp._canvas.legacy.legacy object at 0x048829F0>","75","IndividualPriorityWithDis_v1.osexp","C:/Userdata/Michel/SpatialProb/IndividualPriorityMaps/Experiment2","no","mono","no","18","no","white","no","yes","0.09","98","1050","legacy","315","16","16","1","C:/Userdata/Michel/SpatialProb/IndividualPriorityMaps/Experiment2/data/subject-21.csv","legacy","9","192","25","Jazzy James","3.1.3","yes","598477b2b83f69022949e7e9","47","red","rectangular","red","circular","0","/","720","space","18501","18501","(80, 80, 80)","(0, 122, 0)","(179, 0, 0)","(155, 155, 155)","2","legacy","experiment","[4, 5, 6, 7, 0, 1, 2, 3]","/","2500","3000","0","8","252.758751519","1024","2","48000","-16","main","[(0, -252), (178, -178), (252, 0), (178, 178), (0, 252), (-178, 178), (-252, 0), (-178, -178)]","[]","21","odd","1","294472","579192","579192","185529","184522","1810","231086","231086","1810","1810","204030","620939","1809","579192","620216","619279","619279","NA","931","study_X","0","18501","1","yes","1680"
"undefined","undefined","18501","18501","black","no","legacy","legacy","legacy","0","red","(179, 0, 0)","color","present","highProb","rectangular","same","same","swap","swap","green","(0, 122, 0)","lowProb","lowProb1","rectangular","uniform","1","undefined","0.09375","1","1","75.8072916667","1","18","14555","0","0","0","0","0","0","0","0","42","0","1","0.09375","75.8072916667","18","14555","42","42","42","08/24/17 11:53:52","Default description","yes","<openexp._canvas.legacy.legacy object at 0x047C27F0>","<openexp._canvas.legacy.legacy object at 0x047CE7B0>","<openexp._canvas.legacy.legacy object at 0x047BA290>","<openexp._canvas.legacy.legacy object at 0x048B09D0>","<openexp._canvas.legacy.legacy object at 0x048814B0>","<openexp._canvas.legacy.legacy object at 0x047BFBB0>","<openexp._canvas.legacy.legacy object at 0x048829F0>","75","IndividualPriorityWithDis_v1.osexp","C:/Userdata/Michel/SpatialProb/IndividualPriorityMaps/Experiment2","no","mono","no","18","no","white","no","yes","0.09","98","1050","legacy","315","17","17","1","C:/Userdata/Michel/SpatialProb/IndividualPriorityMaps/Experiment2/data/subject-21.csv","legacy","9","192","25","Jazzy James","3.1.3","yes","598477b2b83f69022949e7e9","47","red","rectangular","green","rectangular","0","/","794","space","18501","18501","(80, 80, 80)","(0, 122, 0)","(179, 0, 0)","(155, 155, 155)","2","legacy","experiment","[4, 5, 6, 7, 0, 1, 2, 3]","/","2500","3000","0","8","252.758751519","1024","2","48000","-16","main","[(0, -252), (178, -178), (252, 0), (178, 178), (0, 252), (-178, 178), (-252, 0), (-178, -178)]","[]","21","odd","5","294472","579192","579192","185529","184522","1810","231086","231086","1810","1810","204030","623075","1809","579192","622278","621341","621341","NA","931","study_X","0","18501","1","yes","1680"
"undefined","undefined","18501","18501","black","no","legacy","legacy","legacy","0","red","(179, 0, 0)","shape","absent","lowProb2","circular","same","swap","swap","swap","red","(179, 0, 0)","lowProb","lowProb2","circular","uniform","1","undefined","0.0989583333333","1","1","79.28125","1","19","15222","0","0","0","0","0","0","0","0","43","0","1","0.0989583333333","79.28125","19","15222","43","43","43","08/24/17 11:53:52","Default description","yes","<openexp._canvas.legacy.legacy object at 0x047C27F0>","<openexp._canvas.legacy.legacy object at 0x047CE7B0>","<openexp._canvas.legacy.legacy object at 0x047BA290>","<openexp._canvas.legacy.legacy object at 0x048B09D0>","<openexp._canvas.legacy.legacy object at 0x048814B0>","<openexp._canvas.legacy.legacy object at 0x048B0430>","<openexp._canvas.legacy.legacy object at 0x048829F0>","75","IndividualPriorityWithDis_v1.osexp","C:/Userdata/Michel/SpatialProb/IndividualPriorityMaps/Experiment2","no","mono","no","18","no","white","no","yes","0.09","98","1050","legacy","45","18","18","1","C:/Userdata/Michel/SpatialProb/IndividualPriorityMaps/Experiment2/data/subject-21.csv","legacy","9","192","25","Jazzy James","3.1.3","yes","598477b2b83f69022949e7e9","47","red","circular","red","circular","0","\","667","space","18501","18501","(80, 80, 80)","(0, 122, 0)","(179, 0, 0)","(155, 155, 155)","2","legacy","experiment","[4, 5, 6, 7, 0, 1, 2, 3]","\","2500","3000","0","8","252.758751519","1024","2","48000","-16","main","[(0, -252), (178, -178), (252, 0), (178, 178), (0, 252), (-178, 178), (-252, 0), (-178, -178)]","[]","21","odd","6","294472","579192","579192","185529","184522","1810","231086","231086","1810","1810","204030","625083","1809","579192","624413","623476","623476","NA","931","study_X","0","18501","1","yes","1680"
"undefined","undefined","18501","18501","black","no","legacy","legacy","legacy","0","red","(179, 0, 0)","shape","present","lowProb3","circular","same","same","same","swap","red","(179, 0, 0)","lowProb","lowProb1","rectangular","uniform","1","undefined","0.104166666667","1","1","84.8541666667","1","20","16292","0","0","0","0","0","0","0","0","44","0","1","0.104166666667","84.8541666667","20","16292","44","44","44","08/24/17 11:53:52","Default description","yes","<openexp._canvas.legacy.legacy object at 0x047C27F0>","<openexp._canvas.legacy.legacy object at 0x047CE7B0>","<openexp._canvas.legacy.legacy object at 0x047BA290>","<openexp._canvas.legacy.legacy object at 0x048B09D0>","<openexp._canvas.legacy.legacy object at 0x048814B0>","<openexp._canvas.legacy.legacy object at 0x047BE310>","<openexp._canvas.legacy.legacy object at 0x048829F0>","75","IndividualPriorityWithDis_v1.osexp","C:/Userdata/Michel/SpatialProb/IndividualPriorityMaps/Experiment2","no","mono","no","18","no","white","no","yes","0.09","98","1050","legacy","315","19","19","1","C:/Userdata/Michel/SpatialProb/IndividualPriorityMaps/Experiment2/data/subject-21.csv","legacy","9","192","25","Jazzy James","3.1.3","yes","598477b2b83f69022949e7e9","47","red","circular","red","rectangular","0","/","1070","space","18501","18501","(80, 80, 80)","(0, 122, 0)","(179, 0, 0)","(155, 155, 155)","2","legacy","experiment","[4, 5, 6, 7, 0, 1, 2, 3]","/","2500","3000","0","8","252.758751519","1024","2","48000","-16","main","[(0, -252), (178, -178), (252, 0), (178, 178), (0, 252), (-178, 178), (-252, 0), (-178, -178)]","[]","21","odd","5","294472","579192","579192","185529","184522","1810","231086","231086","1810","1810","204030","627491","1809","579192","626418","625481","625481","NA","931","study_X","0","18501","1","yes","1680"
"undefined","undefined","18501","18501","black","no","legacy","legacy","legacy","0","red","(179, 0, 0)","color","present","highProb","rectangular","same","swap","swap","same","green","(0, 122, 0)","lowProb","lowProb6","rectangular","uniform","1","undefined","0.109375","1","1","89.3072916667","1","21","17147","0","0","0","0","0","0","0","0","45","0","1","0.109375","89.3072916667","21","17147","45","45","45","08/24/17 11:53:52","Default description","yes","<openexp._canvas.legacy.legacy object at 0x047C27F0>","<openexp._canvas.legacy.legacy object at 0x047CE7B0>","<openexp._canvas.legacy.legacy object at 0x047BA290>","<openexp._canvas.legacy.legacy object at 0x048B09D0>","<openexp._canvas.legacy.legacy object at 0x048814B0>","<openexp._canvas.legacy.legacy object at 0x047C9590>","<openexp._canvas.legacy.legacy object at 0x048829F0>","75","IndividualPriorityWithDis_v1.osexp","C:/Userdata/Michel/SpatialProb/IndividualPriorityMaps/Experiment2","no","mono","no","18","no","white","no","yes","0.09","98","1050","legacy","45","20","20","1","C:/Userdata/Michel/SpatialProb/IndividualPriorityMaps/Experiment2/data/subject-21.csv","legacy","9","192","25","Jazzy James","3.1.3","yes","598477b2b83f69022949e7e9","47","red","rectangular","green","rectangular","0","\","855","space","18501","18501","(80, 80, 80)","(0, 122, 0)","(179, 0, 0)","(155, 155, 155)","2","legacy","experiment","[4, 5, 6, 7, 0, 1, 2, 3]","\","2500","3000","0","8","252.758751519","1024","2","48000","-16","main","[(0, -252), (178, -178), (252, 0), (178, 178), (0, 252), (-178, 178), (-252, 0), (-178, -178)]","[]","21","odd","3","294472","579192","579192","185529","184522","1810","231086","231086","1810","1810","204030","629708","1809","579192","628849","627912","627912","NA","931","study_X","0","18501","1","yes","1680"
"undefined","undefined","18501","18501","black","no","legacy","legacy","legacy","0","green","(0, 122, 0)","shape","absent","highProb","circular","swap","swap","same","swap","green","(0, 122, 0)","lowProb","lowProb1","circular","uniform","1","undefined","0.114583333333","1","1","94.1927083333","1","22","18085","0","0","0","0","0","0","0","0","46","0","1","0.114583333333","94.1927083333","22","18085","46","46","46","08/24/17 11:53:52","Default description","yes","<openexp._canvas.legacy.legacy object at 0x047C27F0>","<openexp._canvas.legacy.legacy object at 0x047CE7B0>","<openexp._canvas.legacy.legacy object at 0x047BA290>","<openexp._canvas.legacy.legacy object at 0x048B09D0>","<openexp._canvas.legacy.legacy object at 0x048814B0>","<openexp._canvas.legacy.legacy object at 0x047BE810>","<openexp._canvas.legacy.legacy object at 0x048829F0>","75","IndividualPriorityWithDis_v1.osexp","C:/Userdata/Michel/SpatialProb/IndividualPriorityMaps/Experiment2","no","mono","no","18","no","white","no","yes","0.09","98","1050","legacy","45","21","21","1","C:/Userdata/Michel/SpatialProb/IndividualPriorityMaps/Experiment2/data/subject-21.csv","legacy","9","192","25","Jazzy James","3.1.3","yes","598477b2b83f69022949e7e9","47","green","circular","green","circular","0","\","938","space","18501","18501","(80, 80, 80)","(0, 122, 0)","(179, 0, 0)","(155, 155, 155)","2","legacy","experiment","[4, 5, 6, 7, 0, 1, 2, 3]","\","2500","3000","0","8","252.758751519","1024","2","48000","-16","main","[(0, -252), (178, -178), (252, 0), (178, 178), (0, 252), (-178, 178), (-252, 0), (-178, -178)]","[]","21","odd","5","294472","579192","579192","185529","184522","1810","231086","231086","1810","1810","204030","631996","1809","579192","631054","630118","630118","NA","931","study_X","0","18501","1","yes","1680"
"undefined","undefined","18501","18501","black","no","legacy","legacy","legacy","0","green","(0, 122, 0)","shape","present","lowProb4","rectangular","same","swap","same","same","green","(0, 122, 0)","lowProb","lowProb5","circular","uniform","1","undefined","0.119791666667","1","1","97.34375","1","23","18690","0","0","0","0","0","0","0","0","47","0","1","0.119791666667","97.34375","23","18690","47","47","47","08/24/17 11:53:52","Default description","yes","<openexp._canvas.legacy.legacy object at 0x047C27F0>","<openexp._canvas.legacy.legacy object at 0x047CE7B0>","<openexp._canvas.legacy.legacy object at 0x047BA290>","<openexp._canvas.legacy.legacy object at 0x048B09D0>","<openexp._canvas.legacy.legacy object at 0x048814B0>","<openexp._canvas.legacy.legacy object at 0x047C9970>","<openexp._canvas.legacy.legacy object at 0x048829F0>","75","IndividualPriorityWithDis_v1.osexp","C:/Userdata/Michel/SpatialProb/IndividualPriorityMaps/Experiment2","no","mono","no","18","no","white","no","yes","0.09","98","1050","legacy","315","22","22","1","C:/Userdata/Michel/SpatialProb/IndividualPriorityMaps/Experiment2/data/subject-21.csv","legacy","9","192","25","Jazzy James","3.1.3","yes","598477b2b83f69022949e7e9","47","green","rectangular","green","circular","0","/","605","space","18501","18501","(80, 80, 80)","(0, 122, 0)","(179, 0, 0)","(155, 155, 155)","2","legacy","experiment","[4, 5, 6, 7, 0, 1, 2, 3]","/","2500","3000","0","8","252.758751519","1024","2","48000","-16","main","[(0, -252), (178, -178), (252, 0), (178, 178), (0, 252), (-178, 178), (-252, 0), (-178, -178)]","[]","21","odd","2","294472","579192","579192","185529","184522","1810","231086","231086","1810","1810","204030","633939","1809","579192","633331","632394","632394","NA","931","study_X","0","18501","1","yes","1680"
"undefined","undefined","18501","18501","black","no","legacy","legacy","legacy","0","red","(179, 0, 0)","color","present","highProb","rectangular","swap","same","same","swap","green","(0, 122, 0)","lowProb","lowProb1","rectangular","uniform","1","undefined","0.125","1","1","107.333333333","1","24","20608","0","0","0","0","0","0","0","0","48","0","1","0.125","107.333333333","24","20608","48","48","48","08/24/17 11:53:52","Default description","yes","<openexp._canvas.legacy.legacy object at 0x047C27F0>","<openexp._canvas.legacy.legacy object at 0x047CE7B0>","<openexp._canvas.legacy.legacy object at 0x047BA290>","<openexp._canvas.legacy.legacy object at 0x048B09D0>","<openexp._canvas.legacy.legacy object at 0x048814B0>","<openexp._canvas.legacy.legacy object at 0x047BE410>","<openexp._canvas.legacy.legacy object at 0x048829F0>","75","IndividualPriorityWithDis_v1.osexp","C:/Userdata/Michel/SpatialProb/IndividualPriorityMaps/Experiment2","no","mono","no","18","no","white","no","yes","0.09","98","1050","legacy","45","23","23","1","C:/Userdata/Michel/SpatialProb/IndividualPriorityMaps/Experiment2/data/subject-21.csv","legacy","9","192","25","Jazzy James","3.1.3","yes","598477b2b83f69022949e7e9","47","red","rectangular","green","rectangular","0","\","1918","space","18501","18501","(80, 80, 80)","(0, 122, 0)","(179, 0, 0)","(155, 155, 155)","2","legacy","experiment","[4, 5, 6, 7, 0, 1, 2, 3]","\","2500","3000","0","8","252.758751519","1024","2","48000","-16","main","[(0, -252), (178, -178), (252, 0), (178, 178), (0, 252), (-178, 178), (-252, 0), (-178, -178)]","[]","21","odd","5","294472","579192","579192","185529","184522","1810","231086","231086","1810","1810","204030","637219","1809","579192","635299","634362","634362","NA","931","study_X","0","18501","1","yes","1680"
"undefined","undefined","18501","18501","black","no","legacy","legacy","legacy","0","red","(179, 0, 0)","color","present","highProb","circular","same","swap","same","swap","green","(0, 122, 0)","highProbShape","highProbShape","circular","uniform","1","undefined","0.130208333333","1","1","113.286458333","1","25","21751","0","0","0","0","0","0","0","0","49","0","1","0.130208333333","113.286458333","25","21751","49","49","49","08/24/17 11:53:52","Default description","yes","<openexp._canvas.legacy.legacy object at 0x047C27F0>","<openexp._canvas.legacy.legacy object at 0x047CE7B0>","<openexp._canvas.legacy.legacy object at 0x047BA290>","<openexp._canvas.legacy.legacy object at 0x048B09D0>","<openexp._canvas.legacy.legacy object at 0x048814B0>","<openexp._canvas.legacy.legacy object at 0x047D2910>","<openexp._canvas.legacy.legacy object at 0x048829F0>","75","IndividualPriorityWithDis_v1.osexp","C:/Userdata/Michel/SpatialProb/IndividualPriorityMaps/Experiment2","no","mono","no","18","no","white","no","yes","0.09","98","1050","legacy","315","24","24","1","C:/Userdata/Michel/SpatialProb/IndividualPriorityMaps/Experiment2/data/subject-21.csv","legacy","9","192","25","Jazzy James","3.1.3","yes","598477b2b83f69022949e7e9","47","red","circular","green","circular","0","/","1143","space","18501","18501","(80, 80, 80)","(0, 122, 0)","(179, 0, 0)","(155, 155, 155)","2","legacy","experiment","[4, 5, 6, 7, 0, 1, 2, 3]","/","2500","3000","0","8","252.758751519","1024","2","48000","-16","main","[(0, -252), (178, -178), (252, 0), (178, 178), (0, 252), (-178, 178), (-252, 0), (-178, -178)]","[]","21","odd","0","294472","579192","579192","185529","184522","1810","231086","231086","1810","1810","204030","639707","1809","579192","638561","637624","637624","NA","931","study_X","0","18501","1","yes","1680"
"undefined","undefined","18501","18501","black","no","legacy","legacy","legacy","0","red","(179, 0, 0)","shape","present","highProb","circular","same","same","swap","swap","red","(179, 0, 0)","lowProb","lowProb4","rectangular","uniform","1","undefined","0.135416666667","1","1","118.171875","1","26","22689","0","0","0","0","0","0","0","0","50","0","1","0.135416666667","118.171875","26","22689","50","50","50","08/24/17 11:53:52","Default description","yes","<openexp._canvas.legacy.legacy object at 0x047C27F0>","<openexp._canvas.legacy.legacy object at 0x047CE7B0>","<openexp._canvas.legacy.legacy object at 0x047BA290>","<openexp._canvas.legacy.legacy object at 0x048B09D0>","<openexp._canvas.legacy.legacy object at 0x048814B0>","<openexp._canvas.legacy.legacy object at 0x047BE050>","<openexp._canvas.legacy.legacy object at 0x048829F0>","75","IndividualPriorityWithDis_v1.osexp","C:/Userdata/Michel/SpatialProb/IndividualPriorityMaps/Experiment2","no","mono","no","18","no","white","no","yes","0.09","98","1050","legacy","45","25","25","1","C:/Userdata/Michel/SpatialProb/IndividualPriorityMaps/Experiment2/data/subject-21.csv","legacy","9","192","25","Jazzy James","3.1.3","yes","598477b2b83f69022949e7e9","47","red","circular","red","rectangular","0","\","938","space","18501","18501","(80, 80, 80)","(0, 122, 0)","(179, 0, 0)","(155, 155, 155)","2","legacy","experiment","[4, 5, 6, 7, 0, 1, 2, 3]","\","2500","3000","0","8","252.758751519","1024","2","48000","-16","main","[(0, -252), (178, -178), (252, 0), (178, 178), (0, 252), (-178, 178), (-252, 0), (-178, -178)]","[]","21","odd","1","294472","579192","579192","185529","184522","1810","231086","231086","1810","1810","204030","641987","1809","579192","641046","640109","640109","NA","931","study_X","0","18501","1","yes","1680"
"undefined","undefined","18501","18501","black","no","legacy","legacy","legacy","0","green","(0, 122, 0)","color","present","highProb","circular","swap","same","same","swap","red","(179, 0, 0)","lowProb","lowProb4","circular","uniform","1","undefined","0.140625","1","1","121.78125","1","27","23382","0","0","0","0","0","0","0","0","51","0","1","0.140625","121.78125","27","23382","51","51","51","08/24/17 11:53:52","Default description","yes","<openexp._canvas.legacy.legacy object at 0x047C27F0>","<openexp._canvas.legacy.legacy object at 0x047CE7B0>","<openexp._canvas.legacy.legacy object at 0x047BA290>","<openexp._canvas.legacy.legacy object at 0x048B09D0>","<openexp._canvas.legacy.legacy object at 0x048814B0>","<openexp._canvas.legacy.legacy object at 0x047BA030>","<openexp._canvas.legacy.legacy object at 0x048829F0>","75","IndividualPriorityWithDis_v1.osexp","C:/Userdata/Michel/SpatialProb/IndividualPriorityMaps/Experiment2","no","mono","no","18","no","white","no","yes","0.09","98","1050","legacy","315","26","26","1","C:/Userdata/Michel/SpatialProb/IndividualPriorityMaps/Experiment2/data/subject-21.csv","legacy","9","192","25","Jazzy James","3.1.3","yes","598477b2b83f69022949e7e9","47","green","circular","red","circular","0","/","693","space","18501","18501","(80, 80, 80)","(0, 122, 0)","(179, 0, 0)","(155, 155, 155)","2","legacy","experiment","[4, 5, 6, 7, 0, 1, 2, 3]","/","2500","3000","0","8","252.758751519","1024","2","48000","-16","main","[(0, -252), (178, -178), (252, 0), (178, 178), (0, 252), (-178, 178), (-252, 0), (-178, -178)]","[]","21","odd","1","294472","579192","579192","185529","184522","1810","231086","231086","1810","1810","204030","644027","1809","579192","643330","642393","642393","NA","931","study_X","0","18501","1","yes","1680"
"undefined","undefined","18501","18501","black","no","legacy","legacy","legacy","0","green","(0, 122, 0)","color","present","lowProb3","rectangular","same","swap","same","swap","red","(179, 0, 0)","lowProb","lowProb5","rectangular","uniform","1","undefined","0.145833333333","1","1","125.130208333","1","28","24025","0","0","0","0","0","0","0","0","52","0","1","0.145833333333","125.130208333","28","24025","52","52","52","08/24/17 11:53:52","Default description","yes","<openexp._canvas.legacy.legacy object at 0x047C27F0>","<openexp._canvas.legacy.legacy object at 0x047CE7B0>","<openexp._canvas.legacy.legacy object at 0x047BA290>","<openexp._canvas.legacy.legacy object at 0x048B09D0>","<openexp._canvas.legacy.legacy object at 0x048814B0>","<openexp._canvas.legacy.legacy object at 0x047BE0B0>","<openexp._canvas.legacy.legacy object at 0x048829F0>","75","IndividualPriorityWithDis_v1.osexp","C:/Userdata/Michel/SpatialProb/IndividualPriorityMaps/Experiment2","no","mono","no","18","no","white","no","yes","0.09","98","1050","legacy","45","27","27","1","C:/Userdata/Michel/SpatialProb/IndividualPriorityMaps/Experiment2/data/subject-21.csv","legacy","9","192","25","Jazzy James","3.1.3","yes","598477b2b83f69022949e7e9","47","green","rectangular","red","rectangular","0","\","643","space","18501","18501","(80, 80, 80)","(0, 122, 0)","(179, 0, 0)","(155, 155, 155)","2","legacy","experiment","[4, 5, 6, 7, 0, 1, 2, 3]","\","2500","3000","0","8","252.758751519","1024","2","48000","-16","main","[(0, -252), (178, -178), (252, 0), (178, 178), (0, 252), (-178, 178), (-252, 0), (-178, -178)]","[]","21","odd","2","294472","579192","579192","185529","184522","1810","231086","231086","1810","1810","204030","646059","1809","579192","645412","644475","644475","NA","931","study_X","0","18501","1","yes","1680"
"undefined","undefined","18501","18501","black","no","legacy","legacy","legacy","0","red","(179, 0, 0)","shape","present","highProb","rectangular","swap","same","same","swap","red","(179, 0, 0)","lowProb","lowProb6","circular","uniform","1","undefined","0.151041666667","1","1","128.5","1","29","24672","0","0","0","0","0","0","0","0","53","0","1","0.151041666667","128.5","29","24672","53","53","53","08/24/17 11:53:52","Default description","yes","<openexp._canvas.legacy.legacy object at 0x047C27F0>","<openexp._canvas.legacy.legacy object at 0x047CE7B0>","<openexp._canvas.legacy.legacy object at 0x047BA290>","<openexp._canvas.legacy.legacy object at 0x048B09D0>","<openexp._canvas.legacy.legacy object at 0x048814B0>","<openexp._canvas.legacy.legacy object at 0x047BAF10>","<openexp._canvas.legacy.legacy object at 0x048829F0>","75","IndividualPriorityWithDis_v1.osexp","C:/Userdata/Michel/SpatialProb/IndividualPriorityMaps/Experiment2","no","mono","no","18","no","white","no","yes","0.09","98","1050","legacy","315","28","28","1","C:/Userdata/Michel/SpatialProb/IndividualPriorityMaps/Experiment2/data/subject-21.csv","legacy","9","192","25","Jazzy James","3.1.3","yes","598477b2b83f69022949e7e9","47","red","rectangular","red","circular","0","/","647","space","18501","18501","(80, 80, 80)","(0, 122, 0)","(179, 0, 0)","(155, 155, 155)","2","legacy","experiment","[4, 5, 6, 7, 0, 1, 2, 3]","/","2500","3000","0","8","252.758751519","1024","2","48000","-16","main","[(0, -252), (178, -178), (252, 0), (178, 178), (0, 252), (-178, 178), (-252, 0), (-178, -178)]","[]","21","odd","3","294472","579192","579192","185529","184522","1810","231086","231086","1810","1810","204030","648052","1809","579192","647401","646464","646464","NA","931","study_X","0","18501","1","yes","1680"
"undefined","undefined","18501","18501","black","no","legacy","legacy","legacy","0","green","(0, 122, 0)","shape","present","lowProb1","circular","swap","swap","swap","swap","green","(0, 122, 0)","highProbColor","highProbColor","rectangular","uniform","1","undefined","0.15625","1","1","133.375","1","30","25608","0","0","0","0","0","0","0","0","54","0","1","0.15625","133.375","30","25608","54","54","54","08/24/17 11:53:52","Default description","yes","<openexp._canvas.legacy.legacy object at 0x047C27F0>","<openexp._canvas.legacy.legacy object at 0x047CE7B0>","<openexp._canvas.legacy.legacy object at 0x047BA290>","<openexp._canvas.legacy.legacy object at 0x048B09D0>","<openexp._canvas.legacy.legacy object at 0x048814B0>","<openexp._canvas.legacy.legacy object at 0x048B1090>","<openexp._canvas.legacy.legacy object at 0x048829F0>","75","IndividualPriorityWithDis_v1.osexp","C:/Userdata/Michel/SpatialProb/IndividualPriorityMaps/Experiment2","no","mono","no","18","no","white","no","yes","0.09","98","1050","legacy","315","29","29","1","C:/Userdata/Michel/SpatialProb/IndividualPriorityMaps/Experiment2/data/subject-21.csv","legacy","9","192","25","Jazzy James","3.1.3","yes","598477b2b83f69022949e7e9","47","green","circular","green","rectangular","0","/","936","space","18501","18501","(80, 80, 80)","(0, 122, 0)","(179, 0, 0)","(155, 155, 155)","2","legacy","experiment","[4, 5, 6, 7, 0, 1, 2, 3]","/","2500","3000","0","8","252.758751519","1024","2","48000","-16","main","[(0, -252), (178, -178), (252, 0), (178, 178), (0, 252), (-178, 178), (-252, 0), (-178, -178)]","[]","21","odd","4","294472","579192","579192","185529","184522","1810","231086","231086","1810","1810","204030","650331","1809","579192","649392","648455","648455","NA","931","study_X","0","18501","1","yes","1680"
"undefined","undefined","18501","18501","black","no","legacy","legacy","legacy","0","green","(0, 122, 0)","shape","absent","lowProb6","rectangular","same","swap","same","same","green","(0, 122, 0)","lowProb","lowProb4","rectangular","uniform","1","undefined","0.161458333333","1","1","136.734375","1","31","26253","0","0","0","0","0","0","0","0","55","0","1","0.161458333333","136.734375","31","26253","55","55","55","08/24/17 11:53:52","Default description","yes","<openexp._canvas.legacy.legacy object at 0x047C27F0>","<openexp._canvas.legacy.legacy object at 0x047CE7B0>","<openexp._canvas.legacy.legacy object at 0x047BA290>","<openexp._canvas.legacy.legacy object at 0x048B09D0>","<openexp._canvas.legacy.legacy object at 0x048814B0>","<openexp._canvas.legacy.legacy object at 0x048ABE90>","<openexp._canvas.legacy.legacy object at 0x048829F0>","75","IndividualPriorityWithDis_v1.osexp","C:/Userdata/Michel/SpatialProb/IndividualPriorityMaps/Experiment2","no","mono","no","18","no","white","no","yes","0.09","98","1050","legacy","315","30","30","1","C:/Userdata/Michel/SpatialProb/IndividualPriorityMaps/Experiment2/data/subject-21.csv","legacy","9","192","25","Jazzy James","3.1.3","yes","598477b2b83f69022949e7e9","47","green","rectangular","green","rectangular","0","/","645","space","18501","18501","(80, 80, 80)","(0, 122, 0)","(179, 0, 0)","(155, 155, 155)","2","legacy","experiment","[4, 5, 6, 7, 0, 1, 2, 3]","/","2500","3000","0","8","252.758751519","1024","2","48000","-16","main","[(0, -252), (178, -178), (252, 0), (178, 178), (0, 252), (-178, 178), (-252, 0), (-178, -178)]","[]","21","odd","1","294472","579192","579192","185529","184522","1810","231086","231086","1810","1810","204030","652315","1809","579192","651667","650730","650730","NA","931","study_X","0","18501","1","yes","1680"
"undefined","undefined","18501","18501","black","no","legacy","legacy","legacy","0","green","(0, 122, 0)","shape","present","highProb","rectangular","same","same","same","swap","green","(0, 122, 0)","lowProb","lowProb5","circular","uniform","1","undefined","0.166666666667","1","1","140.75","1","32","27024","0","0","0","0","0","0","0","0","56","0","1","0.166666666667","140.75","32","27024","56","56","56","08/24/17 11:53:52","Default description","yes","<openexp._canvas.legacy.legacy object at 0x047C27F0>","<openexp._canvas.legacy.legacy object at 0x047CE7B0>","<openexp._canvas.legacy.legacy object at 0x047BA290>","<openexp._canvas.legacy.legacy object at 0x048B09D0>","<openexp._canvas.legacy.legacy object at 0x048814B0>","<openexp._canvas.legacy.legacy object at 0x048B1B30>","<openexp._canvas.legacy.legacy object at 0x048829F0>","75","IndividualPriorityWithDis_v1.osexp","C:/Userdata/Michel/SpatialProb/IndividualPriorityMaps/Experiment2","no","mono","no","18","no","white","no","yes","0.09","98","1050","legacy","45","31","31","1","C:/Userdata/Michel/SpatialProb/IndividualPriorityMaps/Experiment2/data/subject-21.csv","legacy","9","192","25","Jazzy James","3.1.3","yes","598477b2b83f69022949e7e9","47","green","rectangular","green","circular","0","\","771","space","18501","18501","(80, 80, 80)","(0, 122, 0)","(179, 0, 0)","(155, 155, 155)","2","legacy","experiment","[4, 5, 6, 7, 0, 1, 2, 3]","\","2500","3000","0","8","252.758751519","1024","2","48000","-16","main","[(0, -252), (178, -178), (252, 0), (178, 178), (0, 252), (-178, 178), (-252, 0), (-178, -178)]","[]","21","odd","2","294472","579192","579192","185529","184522","1810","231086","231086","1810","1810","204030","654443","1809","579192","653669","652732","652732","NA","931","study_X","0","18501","1","yes","1680"
"undefined","undefined","18501","18501","black","no","legacy","legacy","legacy","0","green","(0, 122, 0)","shape","present","highProb","rectangular","same","same","same","same","green","(0, 122, 0)","lowProb","lowProb1","circular","uniform","1","undefined","0.171875","1","1","146.859375","1","33","28197","0","0","0","0","0","0","0","0","57","0","1","0.171875","146.859375","33","28197","57","57","57","08/24/17 11:53:52","Default description","yes","<openexp._canvas.legacy.legacy object at 0x047C27F0>","<openexp._canvas.legacy.legacy object at 0x047CE7B0>","<openexp._canvas.legacy.legacy object at 0x047BA290>","<openexp._canvas.legacy.legacy object at 0x048B09D0>","<openexp._canvas.legacy.legacy object at 0x048814B0>","<openexp._canvas.legacy.legacy object at 0x047D2890>","<openexp._canvas.legacy.legacy object at 0x048829F0>","75","IndividualPriorityWithDis_v1.osexp","C:/Userdata/Michel/SpatialProb/IndividualPriorityMaps/Experiment2","no","mono","no","18","no","white","no","yes","0.09","98","1050","legacy","315","32","32","1","C:/Userdata/Michel/SpatialProb/IndividualPriorityMaps/Experiment2/data/subject-21.csv","legacy","9","192","25","Jazzy James","3.1.3","yes","598477b2b83f69022949e7e9","47","green","rectangular","green","circular","0","/","1173","space","18501","18501","(80, 80, 80)","(0, 122, 0)","(179, 0, 0)","(155, 155, 155)","2","legacy","experiment","[4, 5, 6, 7, 0, 1, 2, 3]","/","2500","3000","0","8","252.758751519","1024","2","48000","-16","main","[(0, -252), (178, -178), (252, 0), (178, 178), (0, 252), (-178, 178), (-252, 0), (-178, -178)]","[]","21","odd","5","294472","579192","579192","185529","184522","1810","231086","231086","1810","1810","204030","656971","1809","579192","655795","654858","654858","NA","931","study_X","0","18501","1","yes","1680"
"undefined","undefined","18501","18501","black","no","legacy","legacy","legacy","0","red","(179, 0, 0)","color","present","highProb","rectangular","swap","same","same","swap","green","(0, 122, 0)","lowProb","lowProb1","rectangular","uniform","1","undefined","0.177083333333","1","1","151.765625","1","34","29139","0","0","0","0","0","0","0","0","58","0","1","0.177083333333","151.765625","34","29139","58","58","58","08/24/17 11:53:52","Default description","yes","<openexp._canvas.legacy.legacy object at 0x047C27F0>","<openexp._canvas.legacy.legacy object at 0x047CE7B0>","<openexp._canvas.legacy.legacy object at 0x047BA290>","<openexp._canvas.legacy.legacy object at 0x048B09D0>","<openexp._canvas.legacy.legacy object at 0x048814B0>","<openexp._canvas.legacy.legacy object at 0x047D9C90>","<openexp._canvas.legacy.legacy object at 0x048829F0>","75","IndividualPriorityWithDis_v1.osexp","C:/Userdata/Michel/SpatialProb/IndividualPriorityMaps/Experiment2","no","mono","no","18","no","white","no","yes","0.09","98","1050","legacy","315","33","33","1","C:/Userdata/Michel/SpatialProb/IndividualPriorityMaps/Experiment2/data/subject-21.csv","legacy","9","192","25","Jazzy James","3.1.3","yes","598477b2b83f69022949e7e9","47","red","rectangular","green","rectangular","0","/","942","space","18501","18501","(80, 80, 80)","(0, 122, 0)","(179, 0, 0)","(155, 155, 155)","2","legacy","experiment","[4, 5, 6, 7, 0, 1, 2, 3]","/","2500","3000","0","8","252.758751519","1024","2","48000","-16","main","[(0, -252), (178, -178), (252, 0), (178, 178), (0, 252), (-178, 178), (-252, 0), (-178, -178)]","[]","21","odd","5","294472","579192","579192","185529","184522","1810","231086","231086","1810","1810","204030","659267","1809","579192","658321","657384","657384","NA","931","study_X","0","18501","1","yes","1680"
"undefined","undefined","18501","18501","black","no","legacy","legacy","legacy","0","green","(0, 122, 0)","shape","present","highProb","rectangular","swap","same","same","swap","green","(0, 122, 0)","lowProb","lowProb3","circular","uniform","1","undefined","0.182291666667","1","1","155.255208333","1","35","29809","0","0","0","0","0","0","0","0","59","0","1","0.182291666667","155.255208333","35","29809","59","59","59","08/24/17 11:53:52","Default description","yes","<openexp._canvas.legacy.legacy object at 0x047C27F0>","<openexp._canvas.legacy.legacy object at 0x047CE7B0>","<openexp._canvas.legacy.legacy object at 0x047BA290>","<openexp._canvas.legacy.legacy object at 0x048B09D0>","<openexp._canvas.legacy.legacy object at 0x048814B0>","<openexp._canvas.legacy.legacy object at 0x047BEF70>","<openexp._canvas.legacy.legacy object at 0x048829F0>","75","IndividualPriorityWithDis_v1.osexp","C:/Userdata/Michel/SpatialProb/IndividualPriorityMaps/Experiment2","no","mono","no","18","no","white","no","yes","0.09","98","1050","legacy","45","34","34","1","C:/Userdata/Michel/SpatialProb/IndividualPriorityMaps/Experiment2/data/subject-21.csv","legacy","9","192","25","Jazzy James","3.1.3","yes","598477b2b83f69022949e7e9","47","green","rectangular","green","circular","0","\","670","space","18501","18501","(80, 80, 80)","(0, 122, 0)","(179, 0, 0)","(155, 155, 155)","2","legacy","experiment","[4, 5, 6, 7, 0, 1, 2, 3]","\","2500","3000","0","8","252.758751519","1024","2","48000","-16","main","[(0, -252), (178, -178), (252, 0), (178, 178), (0, 252), (-178, 178), (-252, 0), (-178, -178)]","[]","21","odd","7","294472","579192","579192","185529","184522","1810","231086","231086","1810","1810","204030","661275","1809","579192","660601","659664","659664","NA","931","study_X","0","18501","1","yes","1680"
"undefined","undefined","18501","18501","black","no","legacy","legacy","legacy","0","red","(179, 0, 0)","color","present","highProb","circular","swap","swap","same","same","green","(0, 122, 0)","highProbShape","highProbShape","circular","uniform","0","undefined","0.182291666667","1","1","158.854166667","1","35","30500","0","0","0","0","0","0","0","0","60","0","1","0.182291666667","158.854166667","35","30500","60","60","60","08/24/17 11:53:52","Default description","yes","<openexp._canvas.legacy.legacy object at 0x047C27F0>","<openexp._canvas.legacy.legacy object at 0x047CE7B0>","<openexp._canvas.legacy.legacy object at 0x047BA290>","<openexp._canvas.legacy.legacy object at 0x048B09D0>","<openexp._canvas.legacy.legacy object at 0x048814B0>","<openexp._canvas.legacy.legacy object at 0x047BF830>","<openexp._canvas.legacy.legacy object at 0x048829F0>","75","IndividualPriorityWithDis_v1.osexp","C:/Userdata/Michel/SpatialProb/IndividualPriorityMaps/Experiment2","no","mono","no","18","no","white","no","yes","0.09","98","1050","legacy","45","35","35","1","C:/Userdata/Michel/SpatialProb/IndividualPriorityMaps/Experiment2/data/subject-21.csv","legacy","9","192","25","Jazzy James","3.1.3","yes","598477b2b83f69022949e7e9","47","red","circular","green","circular","0","/","691","space","18501","18501","(80, 80, 80)","(0, 122, 0)","(179, 0, 0)","(155, 155, 155)","2","legacy","experiment","[4, 5, 6, 7, 0, 1, 2, 3]","\","2500","3000","0","8","252.758751519","1024","2","48000","-16","main","[(0, -252), (178, -178), (252, 0), (178, 178), (0, 252), (-178, 178), (-252, 0), (-178, -178)]","[]","21","odd","0","294472","579192","579192","185529","184522","1810","231086","231086","1810","1810","204030","663315","1809","579192","662620","661684","661684","NA","931","study_X","0","18501","1","yes","1680"
"undefined","undefined","18501","18501","black","no","legacy","legacy","legacy","0","red","(179, 0, 0)","color","absent","lowProb2","rectangular","same","swap","swap","swap","red","(179, 0, 0)","lowProb","lowProb2","rectangular","uniform","1","undefined","0.1875","1","1","162.020833333","1","36","31108","0","0","0","0","0","0","0","0","61","0","1","0.1875","162.020833333","36","31108","61","61","61","08/24/17 11:53:52","Default description","yes","<openexp._canvas.legacy.legacy object at 0x047C27F0>","<openexp._canvas.legacy.legacy object at 0x047CE7B0>","<openexp._canvas.legacy.legacy object at 0x047BA290>","<openexp._canvas.legacy.legacy object at 0x048B09D0>","<openexp._canvas.legacy.legacy object at 0x048814B0>","<openexp._canvas.legacy.legacy object at 0x047C4DF0>","<openexp._canvas.legacy.legacy object at 0x048829F0>","75","IndividualPriorityWithDis_v1.osexp","C:/Userdata/Michel/SpatialProb/IndividualPriorityMaps/Experiment2","no","mono","no","18","no","white","no","yes","0.09","98","1050","legacy","315","36","36","1","C:/Userdata/Michel/SpatialProb/IndividualPriorityMaps/Experiment2/data/subject-21.csv","legacy","9","192","25","Jazzy James","3.1.3","yes","598477b2b83f69022949e7e9","47","red","rectangular","red","rectangular","0","/","608","space","18501","18501","(80, 80, 80)","(0, 122, 0)","(179, 0, 0)","(155, 155, 155)","2","legacy","experiment","[4, 5, 6, 7, 0, 1, 2, 3]","/","2500","3000","0","8","252.758751519","1024","2","48000","-16","main","[(0, -252), (178, -178), (252, 0), (178, 178), (0, 252), (-178, 178), (-252, 0), (-178, -178)]","[]","21","odd","6","294472","579192","579192","185529","184522","1810","231086","231086","1810","1810","204030","665283","1809","579192","664673","663736","663737","NA","931","study_X","0","18501","1","yes","1680"
"undefined","undefined","18501","18501","black","no","legacy","legacy","legacy","0","red","(179, 0, 0)","color","present","lowProb2","rectangular","same","same","swap","same","green","(0, 122, 0)","lowProb","lowProb4","rectangular","uniform","1","undefined","0.192708333333","1","1","164.765625","1","37","31635","0","0","0","0","0","0","0","0","62","0","1","0.192708333333","164.765625","37","31635","62","62","62","08/24/17 11:53:52","Default description","yes","<openexp._canvas.legacy.legacy object at 0x047C27F0>","<openexp._canvas.legacy.legacy object at 0x047CE7B0>","<openexp._canvas.legacy.legacy object at 0x047BA290>","<openexp._canvas.legacy.legacy object at 0x048B09D0>","<openexp._canvas.legacy.legacy object at 0x048814B0>","<openexp._canvas.legacy.legacy object at 0x047D96D0>","<openexp._canvas.legacy.legacy object at 0x048829F0>","75","IndividualPriorityWithDis_v1.osexp","C:/Userdata/Michel/SpatialProb/IndividualPriorityMaps/Experiment2","no","mono","no","18","no","white","no","yes","0.09","98","1050","legacy","315","37","37","1","C:/Userdata/Michel/SpatialProb/IndividualPriorityMaps/Experiment2/data/subject-21.csv","legacy","9","192","25","Jazzy James","3.1.3","yes","598477b2b83f69022949e7e9","47","red","rectangular","green","rectangular","0","/","527","space","18501","18501","(80, 80, 80)","(0, 122, 0)","(179, 0, 0)","(155, 155, 155)","2","legacy","experiment","[4, 5, 6, 7, 0, 1, 2, 3]","/","2500","3000","0","8","252.758751519","1024","2","48000","-16","main","[(0, -252), (178, -178), (252, 0), (178, 178), (0, 252), (-178, 178), (-252, 0), (-178, -178)]","[]","21","odd","1","294472","579192","579192","185529","184522","1810","231086","231086","1810","1810","204030","667147","1809","579192","666618","665681","665681","NA","931","study_X","0","18501","1","yes","1680"
"undefined","undefined","18501","18501","black","no","legacy","legacy","legacy","0","red","(179, 0, 0)","color","present","highProb","rectangular","same","same","same","same","green","(0, 122, 0)","highProbShape","highProbShape","rectangular","uniform","1","undefined","0.197916666667","1","1","169.739583333","1","38","32590","0","0","0","0","0","0","0","0","63","0","1","0.197916666667","169.739583333","38","32590","63","63","63","08/24/17 11:53:52","Default description","yes","<openexp._canvas.legacy.legacy object at 0x047C27F0>","<openexp._canvas.legacy.legacy object at 0x047CE7B0>","<openexp._canvas.legacy.legacy object at 0x047BA290>","<openexp._canvas.legacy.legacy object at 0x048B09D0>","<openexp._canvas.legacy.legacy object at 0x048814B0>","<openexp._canvas.legacy.legacy object at 0x047BE810>","<openexp._canvas.legacy.legacy object at 0x048829F0>","75","IndividualPriorityWithDis_v1.osexp","C:/Userdata/Michel/SpatialProb/IndividualPriorityMaps/Experiment2","no","mono","no","18","no","white","no","yes","0.09","98","1050","legacy","315","38","38","1","C:/Userdata/Michel/SpatialProb/IndividualPriorityMaps/Experiment2/data/subject-21.csv","legacy","9","192","25","Jazzy James","3.1.3","yes","598477b2b83f69022949e7e9","47","red","rectangular","green","rectangular","0","/","955","space","18501","18501","(80, 80, 80)","(0, 122, 0)","(179, 0, 0)","(155, 155, 155)","2","legacy","experiment","[4, 5, 6, 7, 0, 1, 2, 3]","/","2500","3000","0","8","252.758751519","1024","2","48000","-16","main","[(0, -252), (178, -178), (252, 0), (178, 178), (0, 252), (-178, 178), (-252, 0), (-178, -178)]","[]","21","odd","0","294472","579192","579192","185529","184522","1810","231086","231086","1810","1810","204030","669443","1809","579192","668486","667549","667549","NA","931","study_X","0","18501","1","yes","1680"
"undefined","undefined","18501","18501","black","no","legacy","legacy","legacy","0","green","(0, 122, 0)","shape","present","highProbOther","circular","swap","swap","same","same","green","(0, 122, 0)","lowProb","lowProb4","rectangular","uniform","1","undefined","0.203125","1","1","172.921875","1","39","33201","0","0","0","0","0","0","0","0","64","0","1","0.203125","172.921875","39","33201","64","64","64","08/24/17 11:53:52","Default description","yes","<openexp._canvas.legacy.legacy object at 0x047C27F0>","<openexp._canvas.legacy.legacy object at 0x047CE7B0>","<openexp._canvas.legacy.legacy object at 0x047BA290>","<openexp._canvas.legacy.legacy object at 0x048B09D0>","<openexp._canvas.legacy.legacy object at 0x048814B0>","<openexp._canvas.legacy.legacy object at 0x047D2EB0>","<openexp._canvas.legacy.legacy object at 0x048829F0>","75","IndividualPriorityWithDis_v1.osexp","C:/Userdata/Michel/SpatialProb/IndividualPriorityMaps/Experiment2","no","mono","no","18","no","white","no","yes","0.09","98","1050","legacy","315","39","39","1","C:/Userdata/Michel/SpatialProb/IndividualPriorityMaps/Experiment2/data/subject-21.csv","legacy","9","192","25","Jazzy James","3.1.3","yes","598477b2b83f69022949e7e9","47","green","circular","green","rectangular","0","/","611","space","18501","18501","(80, 80, 80)","(0, 122, 0)","(179, 0, 0)","(155, 155, 155)","2","legacy","experiment","[4, 5, 6, 7, 0, 1, 2, 3]","/","2500","3000","0","8","252.758751519","1024","2","48000","-16","main","[(0, -252), (178, -178), (252, 0), (178, 178), (0, 252), (-178, 178), (-252, 0), (-178, -178)]","[]","21","odd","1","294472","579192","579192","185529","184522","1810","231086","231086","1810","1810","204030","671387","1809","579192","670773","669836","669836","NA","931","study_X","0","18501","1","yes","1680"
"undefined","undefined","18501","18501","black","no","legacy","legacy","legacy","0","red","(179, 0, 0)","shape","present","highProb","circular","swap","same","swap","same","red","(179, 0, 0)","lowProb","lowProb5","rectangular","uniform","1","undefined","0.208333333333","1","1","176.395833333","1","40","33868","0","0","0","0","0","0","0","0","65","0","1","0.208333333333","176.395833333","40","33868","65","65","65","08/24/17 11:53:52","Default description","yes","<openexp._canvas.legacy.legacy object at 0x047C27F0>","<openexp._canvas.legacy.legacy object at 0x047CE7B0>","<openexp._canvas.legacy.legacy object at 0x047BA290>","<openexp._canvas.legacy.legacy object at 0x048B09D0>","<openexp._canvas.legacy.legacy object at 0x048814B0>","<openexp._canvas.legacy.legacy object at 0x048B08F0>","<openexp._canvas.legacy.legacy object at 0x048829F0>","75","IndividualPriorityWithDis_v1.osexp","C:/Userdata/Michel/SpatialProb/IndividualPriorityMaps/Experiment2","no","mono","no","18","no","white","no","yes","0.09","98","1050","legacy","45","40","40","1","C:/Userdata/Michel/SpatialProb/IndividualPriorityMaps/Experiment2/data/subject-21.csv","legacy","9","192","25","Jazzy James","3.1.3","yes","598477b2b83f69022949e7e9","47","red","circular","red","rectangular","0","\","667","space","18501","18501","(80, 80, 80)","(0, 122, 0)","(179, 0, 0)","(155, 155, 155)","2","legacy","experiment","[4, 5, 6, 7, 0, 1, 2, 3]","\","2500","3000","0","8","252.758751519","1024","2","48000","-16","main","[(0, -252), (178, -178), (252, 0), (178, 178), (0, 252), (-178, 178), (-252, 0), (-178, -178)]","[]","21","odd","2","294472","579192","579192","185529","184522","1810","231086","231086","1810","1810","204030","673395","1809","579192","672725","671788","671788","NA","931","study_X","0","18501","1","yes","1680"
"undefined","undefined","18501","18501","black","no","legacy","legacy","legacy","0","green","(0, 122, 0)","color","present","highProb","rectangular","swap","swap","same","same","red","(179, 0, 0)","lowProb","lowProb6","rectangular","uniform","1","undefined","0.213541666667","1","1","180.411458333","1","41","34639","0","0","0","0","0","0","0","0","66","0","1","0.213541666667","180.411458333","41","34639","66","66","66","08/24/17 11:53:52","Default description","yes","<openexp._canvas.legacy.legacy object at 0x047C27F0>","<openexp._canvas.legacy.legacy object at 0x047CE7B0>","<openexp._canvas.legacy.legacy object at 0x047BA290>","<openexp._canvas.legacy.legacy object at 0x048B09D0>","<openexp._canvas.legacy.legacy object at 0x048814B0>","<openexp._canvas.legacy.legacy object at 0x048ABCD0>","<openexp._canvas.legacy.legacy object at 0x048829F0>","75","IndividualPriorityWithDis_v1.osexp","C:/Userdata/Michel/SpatialProb/IndividualPriorityMaps/Experiment2","no","mono","no","18","no","white","no","yes","0.09","98","1050","legacy","315","41","41","1","C:/Userdata/Michel/SpatialProb/IndividualPriorityMaps/Experiment2/data/subject-21.csv","legacy","9","192","25","Jazzy James","3.1.3","yes","598477b2b83f69022949e7e9","47","green","rectangular","red","rectangular","0","/","771","space","18501","18501","(80, 80, 80)","(0, 122, 0)","(179, 0, 0)","(155, 155, 155)","2","legacy","experiment","[4, 5, 6, 7, 0, 1, 2, 3]","/","2500","3000","0","8","252.758751519","1024","2","48000","-16","main","[(0, -252), (178, -178), (252, 0), (178, 178), (0, 252), (-178, 178), (-252, 0), (-178, -178)]","[]","21","odd","3","294472","579192","579192","185529","184522","1810","231086","231086","1810","1810","204030","675523","1809","579192","674749","673812","673812","NA","931","study_X","0","18501","1","yes","1680"
"undefined","undefined","18501","18501","black","no","legacy","legacy","legacy","0","green","(0, 122, 0)","color","absent","highProbOther","circular","same","swap","swap","swap","green","(0, 122, 0)","lowProb","lowProb6","circular","uniform","1","undefined","0.21875","1","1","185.833333333","1","42","35680","0","0","0","0","0","0","0","0","67","0","1","0.21875","185.833333333","42","35680","67","67","67","08/24/17 11:53:52","Default description","yes","<openexp._canvas.legacy.legacy object at 0x047C27F0>","<openexp._canvas.legacy.legacy object at 0x047CE7B0>","<openexp._canvas.legacy.legacy object at 0x047BA290>","<openexp._canvas.legacy.legacy object at 0x048B09D0>","<openexp._canvas.legacy.legacy object at 0x048814B0>","<openexp._canvas.legacy.legacy object at 0x048B0130>","<openexp._canvas.legacy.legacy object at 0x048829F0>","75","IndividualPriorityWithDis_v1.osexp","C:/Userdata/Michel/SpatialProb/IndividualPriorityMaps/Experiment2","no","mono","no","18","no","white","no","yes","0.09","98","1050","legacy","315","42","42","1","C:/Userdata/Michel/SpatialProb/IndividualPriorityMaps/Experiment2/data/subject-21.csv","legacy","9","192","25","Jazzy James","3.1.3","yes","598477b2b83f69022949e7e9","47","green","circular","green","circular","0","/","1041","space","18501","18501","(80, 80, 80)","(0, 122, 0)","(179, 0, 0)","(155, 155, 155)","2","legacy","experiment","[4, 5, 6, 7, 0, 1, 2, 3]","/","2500","3000","0","8","252.758751519","1024","2","48000","-16","main","[(0, -252), (178, -178), (252, 0), (178, 178), (0, 252), (-178, 178), (-252, 0), (-178, -178)]","[]","21","odd","3","294472","579192","579192","185529","184522","1810","231086","231086","1810","1810","204030","677915","1809","579192","676871","675934","675934","NA","931","study_X","0","18501","1","yes","1680"
"undefined","undefined","18501","18501","black","no","legacy","legacy","legacy","0","red","(179, 0, 0)","color","present","highProb","rectangular","swap","swap","same","swap","green","(0, 122, 0)","lowProb","lowProb4","rectangular","uniform","1","undefined","0.223958333333","1","1","189.583333333","1","43","36400","0","0","0","0","0","0","0","0","68","0","1","0.223958333333","189.583333333","43","36400","68","68","68","08/24/17 11:53:52","Default description","yes","<openexp._canvas.legacy.legacy object at 0x047C27F0>","<openexp._canvas.legacy.legacy object at 0x047CE7B0>","<openexp._canvas.legacy.legacy object at 0x047BA290>","<openexp._canvas.legacy.legacy object at 0x048B09D0>","<openexp._canvas.legacy.legacy object at 0x048814B0>","<openexp._canvas.legacy.legacy object at 0x048B1270>","<openexp._canvas.legacy.legacy object at 0x048829F0>","75","IndividualPriorityWithDis_v1.osexp","C:/Userdata/Michel/SpatialProb/IndividualPriorityMaps/Experiment2","no","mono","no","18","no","white","no","yes","0.09","98","1050","legacy","45","43","43","1","C:/Userdata/Michel/SpatialProb/IndividualPriorityMaps/Experiment2/data/subject-21.csv","legacy","9","192","25","Jazzy James","3.1.3","yes","598477b2b83f69022949e7e9","47","red","rectangular","green","rectangular","0","\","720","space","18501","18501","(80, 80, 80)","(0, 122, 0)","(179, 0, 0)","(155, 155, 155)","2","legacy","experiment","[4, 5, 6, 7, 0, 1, 2, 3]","\","2500","3000","0","8","252.758751519","1024","2","48000","-16","main","[(0, -252), (178, -178), (252, 0), (178, 178), (0, 252), (-178, 178), (-252, 0), (-178, -178)]","[]","21","odd","1","294472","579192","579192","185529","184522","1810","231086","231086","1810","1810","204030","679986","1809","579192","679263","678326","678326","NA","931","study_X","0","18501","1","yes","1680"
"undefined","undefined","18501","18501","black","no","legacy","legacy","legacy","0","green","(0, 122, 0)","color","present","lowProb6","circular","swap","swap","swap","swap","red","(179, 0, 0)","lowProb","lowProb2","circular","uniform","1","undefined","0.229166666667","1","1","193.34375","1","44","37122","0","0","0","0","0","0","0","0","69","0","1","0.229166666667","193.34375","44","37122","69","69","69","08/24/17 11:53:52","Default description","yes","<openexp._canvas.legacy.legacy object at 0x047C27F0>","<openexp._canvas.legacy.legacy object at 0x047CE7B0>","<openexp._canvas.legacy.legacy object at 0x047BA290>","<openexp._canvas.legacy.legacy object at 0x048B09D0>","<openexp._canvas.legacy.legacy object at 0x048814B0>","<openexp._canvas.legacy.legacy object at 0x047C2090>","<openexp._canvas.legacy.legacy object at 0x048829F0>","75","IndividualPriorityWithDis_v1.osexp","C:/Userdata/Michel/SpatialProb/IndividualPriorityMaps/Experiment2","no","mono","no","18","no","white","no","yes","0.09","98","1050","legacy","45","44","44","1","C:/Userdata/Michel/SpatialProb/IndividualPriorityMaps/Experiment2/data/subject-21.csv","legacy","9","192","25","Jazzy James","3.1.3","yes","598477b2b83f69022949e7e9","47","green","circular","red","circular","0","\","722","space","18501","18501","(80, 80, 80)","(0, 122, 0)","(179, 0, 0)","(155, 155, 155)","2","legacy","experiment","[4, 5, 6, 7, 0, 1, 2, 3]","\","2500","3000","0","8","252.758751519","1024","2","48000","-16","main","[(0, -252), (178, -178), (252, 0), (178, 178), (0, 252), (-178, 178), (-252, 0), (-178, -178)]","[]","21","odd","6","294472","579192","579192","185529","184522","1810","231086","231086","1810","1810","204030","682051","1809","579192","681326","680389","680389","NA","931","study_X","0","18501","1","yes","1680"
"undefined","undefined","18501","18501","black","no","legacy","legacy","legacy","0","green","(0, 122, 0)","shape","present","highProb","rectangular","same","swap","swap","same","green","(0, 122, 0)","lowProb","lowProb4","circular","uniform","1","undefined","0.234375","1","1","197.833333333","1","45","37984","0","0","0","0","0","0","0","0","70","0","1","0.234375","197.833333333","45","37984","70","70","70","08/24/17 11:53:52","Default description","yes","<openexp._canvas.legacy.legacy object at 0x047C27F0>","<openexp._canvas.legacy.legacy object at 0x047CE7B0>","<openexp._canvas.legacy.legacy object at 0x047BA290>","<openexp._canvas.legacy.legacy object at 0x048B09D0>","<openexp._canvas.legacy.legacy object at 0x048814B0>","<openexp._canvas.legacy.legacy object at 0x047D2290>","<openexp._canvas.legacy.legacy object at 0x048829F0>","75","IndividualPriorityWithDis_v1.osexp","C:/Userdata/Michel/SpatialProb/IndividualPriorityMaps/Experiment2","no","mono","no","18","no","white","no","yes","0.09","98","1050","legacy","315","45","45","1","C:/Userdata/Michel/SpatialProb/IndividualPriorityMaps/Experiment2/data/subject-21.csv","legacy","9","192","25","Jazzy James","3.1.3","yes","598477b2b83f69022949e7e9","47","green","rectangular","green","circular","0","/","862","space","18501","18501","(80, 80, 80)","(0, 122, 0)","(179, 0, 0)","(155, 155, 155)","2","legacy","experiment","[4, 5, 6, 7, 0, 1, 2, 3]","/","2500","3000","0","8","252.758751519","1024","2","48000","-16","main","[(0, -252), (178, -178), (252, 0), (178, 178), (0, 252), (-178, 178), (-252, 0), (-178, -178)]","[]","21","odd","1","294472","579192","579192","185529","184522","1810","231086","231086","1810","1810","204030","684323","1809","579192","683458","682521","682521","NA","931","study_X","0","18501","1","yes","1680"
"undefined","undefined","18501","18501","black","no","legacy","legacy","legacy","0","red","(179, 0, 0)","color","present","lowProb3","circular","swap","swap","same","same","green","(0, 122, 0)","lowProb","lowProb6","circular","uniform","1","undefined","0.239583333333","1","1","201.947916667","1","46","38774","0","0","0","0","0","0","0","0","71","0","1","0.239583333333","201.947916667","46","38774","71","71","71","08/24/17 11:53:52","Default description","yes","<openexp._canvas.legacy.legacy object at 0x047C27F0>","<openexp._canvas.legacy.legacy object at 0x047CE7B0>","<openexp._canvas.legacy.legacy object at 0x047BA290>","<openexp._canvas.legacy.legacy object at 0x048B09D0>","<openexp._canvas.legacy.legacy object at 0x048814B0>","<openexp._canvas.legacy.legacy object at 0x048ABB50>","<openexp._canvas.legacy.legacy object at 0x048829F0>","75","IndividualPriorityWithDis_v1.osexp","C:/Userdata/Michel/SpatialProb/IndividualPriorityMaps/Experiment2","no","mono","no","18","no","white","no","yes","0.09","98","1050","legacy","315","46","46","1","C:/Userdata/Michel/SpatialProb/IndividualPriorityMaps/Experiment2/data/subject-21.csv","legacy","9","192","25","Jazzy James","3.1.3","yes","598477b2b83f69022949e7e9","47","red","circular","green","circular","0","/","790","space","18501","18501","(80, 80, 80)","(0, 122, 0)","(179, 0, 0)","(155, 155, 155)","2","legacy","experiment","[4, 5, 6, 7, 0, 1, 2, 3]","/","2500","3000","0","8","252.758751519","1024","2","48000","-16","main","[(0, -252), (178, -178), (252, 0), (178, 178), (0, 252), (-178, 178), (-252, 0), (-178, -178)]","[]","21","odd","3","294472","579192","579192","185529","184522","1810","231086","231086","1810","1810","204030","686475","1809","579192","685682","684745","684745","NA","931","study_X","0","18501","1","yes","1680"
"undefined","undefined","18501","18501","black","no","legacy","legacy","legacy","0","green","(0, 122, 0)","color","present","highProb","rectangular","swap","swap","swap","swap","red","(179, 0, 0)","lowProb","lowProb3","rectangular","uniform","1","undefined","0.244791666667","1","1","205.078125","1","47","39375","0","0","0","0","0","0","0","0","72","0","1","0.244791666667","205.078125","47","39375","72","72","72","08/24/17 11:53:52","Default description","yes","<openexp._canvas.legacy.legacy object at 0x047C27F0>","<openexp._canvas.legacy.legacy object at 0x047CE7B0>","<openexp._canvas.legacy.legacy object at 0x047BA290>","<openexp._canvas.legacy.legacy object at 0x048B09D0>","<openexp._canvas.legacy.legacy object at 0x048814B0>","<openexp._canvas.legacy.legacy object at 0x047D9490>","<openexp._canvas.legacy.legacy object at 0x048829F0>","75","IndividualPriorityWithDis_v1.osexp","C:/Userdata/Michel/SpatialProb/IndividualPriorityMaps/Experiment2","no","mono","no","18","no","white","no","yes","0.09","98","1050","legacy","45","47","47","1","C:/Userdata/Michel/SpatialProb/IndividualPriorityMaps/Experiment2/data/subject-21.csv","legacy","9","192","25","Jazzy James","3.1.3","yes","598477b2b83f69022949e7e9","47","green","rectangular","red","rectangular","0","\","601","space","18501","18501","(80, 80, 80)","(0, 122, 0)","(179, 0, 0)","(155, 155, 155)","2","legacy","experiment","[4, 5, 6, 7, 0, 1, 2, 3]","\","2500","3000","0","8","252.758751519","1024","2","48000","-16","main","[(0, -252), (178, -178), (252, 0), (178, 178), (0, 252), (-178, 178), (-252, 0), (-178, -178)]","[]","21","odd","7","294472","579192","579192","185529","184522","1810","231086","231086","1810","1810","204030","688411","1809","579192","687807","686870","686870","NA","931","study_X","0","18501","1","yes","1680"
"undefined","undefined","18501","18501","black","no","legacy","legacy","legacy","0","green","(0, 122, 0)","shape","present","lowProb3","rectangular","same","same","swap","swap","green","(0, 122, 0)","lowProb","lowProb1","circular","uniform","1","undefined","0.25","1","1","209.942708333","1","48","40309","0","0","0","0","0","0","0","0","73","0","1","0.25","209.942708333","48","40309","73","73","73","08/24/17 11:53:52","Default description","yes","<openexp._canvas.legacy.legacy object at 0x047C27F0>","<openexp._canvas.legacy.legacy object at 0x047CE7B0>","<openexp._canvas.legacy.legacy object at 0x047BA290>","<openexp._canvas.legacy.legacy object at 0x048B09D0>","<openexp._canvas.legacy.legacy object at 0x048814B0>","<openexp._canvas.legacy.legacy object at 0x048ABAD0>","<openexp._canvas.legacy.legacy object at 0x048829F0>","75","IndividualPriorityWithDis_v1.osexp","C:/Userdata/Michel/SpatialProb/IndividualPriorityMaps/Experiment2","no","mono","no","18","no","white","no","yes","0.09","98","1050","legacy","45","48","48","1","C:/Userdata/Michel/SpatialProb/IndividualPriorityMaps/Experiment2/data/subject-21.csv","legacy","9","192","25","Jazzy James","3.1.3","yes","598477b2b83f69022949e7e9","47","green","rectangular","green","circular","0","\","934","space","18501","18501","(80, 80, 80)","(0, 122, 0)","(179, 0, 0)","(155, 155, 155)","2","legacy","experiment","[4, 5, 6, 7, 0, 1, 2, 3]","\","2500","3000","0","8","252.758751519","1024","2","48000","-16","main","[(0, -252), (178, -178), (252, 0), (178, 178), (0, 252), (-178, 178), (-252, 0), (-178, -178)]","[]","21","odd","5","294472","579192","579192","185529","184522","1810","231086","231086","1810","1810","204030","690699","1809","579192","689761","688824","688824","NA","931","study_X","0","18501","1","yes","1680"
"undefined","undefined","18501","18501","black","no","legacy","legacy","legacy","0","red","(179, 0, 0)","shape","present","highProb","rectangular","swap","same","swap","same","red","(179, 0, 0)","highProbColor","highProbColor","circular","uniform","1","undefined","0.255208333333","1","1","213.421875","1","49","40977","0","0","0","0","0","0","0","0","74","0","1","0.255208333333","213.421875","49","40977","74","74","74","08/24/17 11:53:52","Default description","yes","<openexp._canvas.legacy.legacy object at 0x047C27F0>","<openexp._canvas.legacy.legacy object at 0x047CE7B0>","<openexp._canvas.legacy.legacy object at 0x047BA290>","<openexp._canvas.legacy.legacy object at 0x048B09D0>","<openexp._canvas.legacy.legacy object at 0x048814B0>","<openexp._canvas.legacy.legacy object at 0x047C2050>","<openexp._canvas.legacy.legacy object at 0x048829F0>","75","IndividualPriorityWithDis_v1.osexp","C:/Userdata/Michel/SpatialProb/IndividualPriorityMaps/Experiment2","no","mono","no","18","no","white","no","yes","0.09","98","1050","legacy","45","49","49","1","C:/Userdata/Michel/SpatialProb/IndividualPriorityMaps/Experiment2/data/subject-21.csv","legacy","9","192","25","Jazzy James","3.1.3","yes","598477b2b83f69022949e7e9","47","red","rectangular","red","circular","0","\","668","space","18501","18501","(80, 80, 80)","(0, 122, 0)","(179, 0, 0)","(155, 155, 155)","2","legacy","experiment","[4, 5, 6, 7, 0, 1, 2, 3]","\","2500","3000","0","8","252.758751519","1024","2","48000","-16","main","[(0, -252), (178, -178), (252, 0), (178, 178), (0, 252), (-178, 178), (-252, 0), (-178, -178)]","[]","21","odd","4","294472","579192","579192","185529","184522","1810","231086","231086","1810","1810","204030","692715","1809","579192","692043","691106","691106","NA","931","study_X","0","18501","1","yes","1680"
"undefined","undefined","18501","18501","black","no","legacy","legacy","legacy","0","green","(0, 122, 0)","color","present","lowProb6","rectangular","swap","same","same","swap","red","(179, 0, 0)","lowProb","lowProb1","rectangular","uniform","1","undefined","0.260416666667","1","1","216.833333333","1","50","41632","0","0","0","0","0","0","0","0","75","0","1","0.260416666667","216.833333333","50","41632","75","75","75","08/24/17 11:53:52","Default description","yes","<openexp._canvas.legacy.legacy object at 0x047C27F0>","<openexp._canvas.legacy.legacy object at 0x047CE7B0>","<openexp._canvas.legacy.legacy object at 0x047BA290>","<openexp._canvas.legacy.legacy object at 0x048B09D0>","<openexp._canvas.legacy.legacy object at 0x048814B0>","<openexp._canvas.legacy.legacy object at 0x047C9D90>","<openexp._canvas.legacy.legacy object at 0x048829F0>","75","IndividualPriorityWithDis_v1.osexp","C:/Userdata/Michel/SpatialProb/IndividualPriorityMaps/Experiment2","no","mono","no","18","no","white","no","yes","0.09","98","1050","legacy","315","50","50","1","C:/Userdata/Michel/SpatialProb/IndividualPriorityMaps/Experiment2/data/subject-21.csv","legacy","9","192","25","Jazzy James","3.1.3","yes","598477b2b83f69022949e7e9","47","green","rectangular","red","rectangular","0","/","655","space","18501","18501","(80, 80, 80)","(0, 122, 0)","(179, 0, 0)","(155, 155, 155)","2","legacy","experiment","[4, 5, 6, 7, 0, 1, 2, 3]","/","2500","3000","0","8","252.758751519","1024","2","48000","-16","main","[(0, -252), (178, -178), (252, 0), (178, 178), (0, 252), (-178, 178), (-252, 0), (-178, -178)]","[]","21","odd","5","294472","579192","579192","185529","184522","1810","231086","231086","1810","1810","204030","694707","1809","579192","694048","693111","693112","NA","931","study_X","0","18501","1","yes","1680"
"undefined","undefined","18501","18501","black","no","legacy","legacy","legacy","0","green","(0, 122, 0)","color","present","highProb","circular","same","swap","same","swap","red","(179, 0, 0)","lowProb","lowProb5","circular","uniform","1","undefined","0.265625","1","1","219.572916667","1","51","42158","0","0","0","0","0","0","0","0","76","0","1","0.265625","219.572916667","51","42158","76","76","76","08/24/17 11:53:52","Default description","yes","<openexp._canvas.legacy.legacy object at 0x047C27F0>","<openexp._canvas.legacy.legacy object at 0x047CE7B0>","<openexp._canvas.legacy.legacy object at 0x047BA290>","<openexp._canvas.legacy.legacy object at 0x048B09D0>","<openexp._canvas.legacy.legacy object at 0x048814B0>","<openexp._canvas.legacy.legacy object at 0x047BAAB0>","<openexp._canvas.legacy.legacy object at 0x048829F0>","75","IndividualPriorityWithDis_v1.osexp","C:/Userdata/Michel/SpatialProb/IndividualPriorityMaps/Experiment2","no","mono","no","18","no","white","no","yes","0.09","98","1050","legacy","315","51","51","1","C:/Userdata/Michel/SpatialProb/IndividualPriorityMaps/Experiment2/data/subject-21.csv","legacy","9","192","25","Jazzy James","3.1.3","yes","598477b2b83f69022949e7e9","47","green","circular","red","circular","0","/","526","space","18501","18501","(80, 80, 80)","(0, 122, 0)","(179, 0, 0)","(155, 155, 155)","2","legacy","experiment","[4, 5, 6, 7, 0, 1, 2, 3]","/","2500","3000","0","8","252.758751519","1024","2","48000","-16","main","[(0, -252), (178, -178), (252, 0), (178, 178), (0, 252), (-178, 178), (-252, 0), (-178, -178)]","[]","21","odd","2","294472","579192","579192","185529","184522","1810","231086","231086","1810","1810","204030","696578","1809","579192","696049","695113","695113","NA","931","study_X","0","18501","1","yes","1680"
"undefined","undefined","18501","18501","black","no","legacy","legacy","legacy","0","green","(0, 122, 0)","color","present","highProb","rectangular","same","swap","same","swap","red","(179, 0, 0)","highProbShape","highProbShape","rectangular","uniform","1","undefined","0.270833333333","1","1","223.984375","1","52","43005","0","0","0","0","0","0","0","0","77","0","1","0.270833333333","223.984375","52","43005","77","77","77","08/24/17 11:53:52","Default description","yes","<openexp._canvas.legacy.legacy object at 0x047C27F0>","<openexp._canvas.legacy.legacy object at 0x047CE7B0>","<openexp._canvas.legacy.legacy object at 0x047BA290>","<openexp._canvas.legacy.legacy object at 0x048B09D0>","<openexp._canvas.legacy.legacy object at 0x048814B0>","<openexp._canvas.legacy.legacy object at 0x047D2930>","<openexp._canvas.legacy.legacy object at 0x048829F0>","75","IndividualPriorityWithDis_v1.osexp","C:/Userdata/Michel/SpatialProb/IndividualPriorityMaps/Experiment2","no","mono","no","18","no","white","no","yes","0.09","98","1050","legacy","315","52","52","1","C:/Userdata/Michel/SpatialProb/IndividualPriorityMaps/Experiment2/data/subject-21.csv","legacy","9","192","25","Jazzy James","3.1.3","yes","598477b2b83f69022949e7e9","47","green","rectangular","red","rectangular","0","/","847","space","18501","18501","(80, 80, 80)","(0, 122, 0)","(179, 0, 0)","(155, 155, 155)","2","legacy","experiment","[4, 5, 6, 7, 0, 1, 2, 3]","/","2500","3000","0","8","252.758751519","1024","2","48000","-16","main","[(0, -252), (178, -178), (252, 0), (178, 178), (0, 252), (-178, 178), (-252, 0), (-178, -178)]","[]","21","odd","0","294472","579192","579192","185529","184522","1810","231086","231086","1810","1810","204030","698762","1809","579192","697912","696975","696975","NA","931","study_X","0","18501","1","yes","1680"
"undefined","undefined","18501","18501","black","no","legacy","legacy","legacy","0","red","(179, 0, 0)","color","absent","lowProb5","circular","swap","swap","same","swap","red","(179, 0, 0)","lowProb","lowProb5","circular","uniform","1","undefined","0.276041666667","1","1","227.265625","1","53","43635","0","0","0","0","0","0","0","0","78","0","1","0.276041666667","227.265625","53","43635","78","78","78","08/24/17 11:53:52","Default description","yes","<openexp._canvas.legacy.legacy object at 0x047C27F0>","<openexp._canvas.legacy.legacy object at 0x047CE7B0>","<openexp._canvas.legacy.legacy object at 0x047BA290>","<openexp._canvas.legacy.legacy object at 0x048B09D0>","<openexp._canvas.legacy.legacy object at 0x048814B0>","<openexp._canvas.legacy.legacy object at 0x048B0BD0>","<openexp._canvas.legacy.legacy object at 0x048829F0>","75","IndividualPriorityWithDis_v1.osexp","C:/Userdata/Michel/SpatialProb/IndividualPriorityMaps/Experiment2","no","mono","no","18","no","white","no","yes","0.09","98","1050","legacy","45","53","53","1","C:/Userdata/Michel/SpatialProb/IndividualPriorityMaps/Experiment2/data/subject-21.csv","legacy","9","192","25","Jazzy James","3.1.3","yes","598477b2b83f69022949e7e9","47","red","circular","red","circular","0","\","630","space","18501","18501","(80, 80, 80)","(0, 122, 0)","(179, 0, 0)","(155, 155, 155)","2","legacy","experiment","[4, 5, 6, 7, 0, 1, 2, 3]","\","2500","3000","0","8","252.758751519","1024","2","48000","-16","main","[(0, -252), (178, -178), (252, 0), (178, 178), (0, 252), (-178, 178), (-252, 0), (-178, -178)]","[]","21","odd","2","294472","579192","579192","185529","184522","1810","231086","231086","1810","1810","204030","700739","1809","579192","700106","699169","699169","NA","931","study_X","0","18501","1","yes","1680"
