"acc","accuracy","average_response_time","avg_rt","background","bidi","canvas_backend","clock_backend","color_backend","compensation","cond_disColor","cond_disColorRGB","cond_disFeature","cond_disPresent","cond_disProbability","cond_disShape","cond_primingDisColor","cond_primingDisShape","cond_primingTarColor","cond_primingTarShape","cond_tarColor","cond_tarColorRGB","cond_tarLocation","cond_tarLocationLong","cond_tarShape","coordinates","correct","correct_continuePress","count_blockAcc","count_blockFeed","count_blockLoop","count_blockRT","count_blockSeq","count_blockSumCorrect","count_blockSumRT","count_continuePress","count_example","count_expSettings","count_exp_mainLoop","count_experiment","count_instructions","count_instructions1","count_instructions2","count_log","count_main","count_prepCanvas","count_totalAcc","count_totalRT","count_totalSumCorrect","count_totalSumRT","count_trialResp","count_trialSeq","count_trialTask","datetime","description","disable_garbage_collection","dispBlank","dispBlockStart","dispFeedBlock","dispFix","dispInstructions","dispSearch","dispStartScreen","distance2screen","experiment_file","experiment_path","font_bold","font_family","font_italic","font_size","font_underline","foreground","form_clicks","fullscreen","gaborFreq","gaborSize","height","keyboard_backend","lineOriTar","live_row","live_row_blockLoop","live_row_exp_mainLoop","logfile","mouse_backend","noExpBlocks","noExpTrials","noPracTrials","opensesame_codename","opensesame_version","osf_always_upload_experiment","osf_id","physical_screensize","previousDisColor","previousDisShape","previousTarColor","previousTarShape","repeat_cycle","response","responseTime","response_continuePress","response_time","response_time_continuePress","rgb_gray","rgb_green","rgb_red","rgb_white","round_decimals","sampler_backend","set_blockType","set_counterPositions","set_respCorrect","set_respTimeoutExp","set_respTimeoutPrac","set_rotation","set_setSize","sizeImaginary","sound_buf_size","sound_channels","sound_freq","sound_sample_size","start","stimPositions","stimuli","subject_nr","subject_parity","tarIdx","time_blockFeed","time_blockLoop","time_blockSeq","time_continuePress","time_example","time_expSettings","time_exp_mainLoop","time_experiment","time_instructions","time_instructions1","time_instructions2","time_log","time_main","time_prepCanvas","time_trialResp","time_trialSeq","time_trialTask","timing_EEGwait","timing_fix","title","total_correct","total_response_time","total_responses","uniform_coordinates","width"
"undefined","undefined","4013","4013","black","no","legacy","legacy","legacy","0","red","(179, 0, 0)","color","absent","lowProb6","rectangular","swap","swap","same","swap","red","(179, 0, 0)","highProbShape","highProbShape","rectangular","uniform","1","undefined","0.00520833333333","1","1","2.5625","1","1","492","0","0","0","0","0","0","0","0","25","0","1","0.00520833333333","2.5625","1","492","25","25","25","08/23/17 14:00:27","Default description","yes","<openexp._canvas.legacy.legacy object at 0x048327F0>","<openexp._canvas.legacy.legacy object at 0x0483D7B0>","<openexp._canvas.legacy.legacy object at 0x0482A410>","<openexp._canvas.legacy.legacy object at 0x049209D0>","<openexp._canvas.legacy.legacy object at 0x048F14B0>","<openexp._canvas.legacy.legacy object at 0x0482E550>","<openexp._canvas.legacy.legacy object at 0x048F2A50>","75","IndividualPriorityWithDis_v1.osexp","C:/Userdata/Michel/SpatialProb/IndividualPriorityMaps/Experiment2","no","mono","no","18","no","white","no","yes","0.09","98","1050","legacy","45","0","0","1","C:/Userdata/Michel/SpatialProb/IndividualPriorityMaps/Experiment2/data/subject-18.csv","legacy","9","192","25","Jazzy James","3.1.3","yes","598477b2b83f69022949e7e9","47","red","rectangular","red","rectangular","0","\","492","space","4013","4013","(80, 80, 80)","(0, 122, 0)","(179, 0, 0)","(155, 155, 155)","2","legacy","experiment","[1, 2, 3, 4, 5, 6, 7, 0]","\","2500","3000","0","8","252.758751519","1024","2","48000","-16","main","[(0, -252), (178, -178), (252, 0), (178, 178), (0, 252), (-178, 178), (-252, 0), (-178, -178)]","[]","18","even","5","146012","257500","257500","83331","82324","1775","89120","89120","1775","1775","87344","264175","1774","257500","263680","257874","257874","NA","729","study_X","0","4013","1","yes","1680"
"undefined","undefined","4013","4013","black","no","legacy","legacy","legacy","0","red","(179, 0, 0)","color","present","highProb","rectangular","same","same","swap","same","green","(0, 122, 0)","highProbShape","highProbShape","rectangular","uniform","1","undefined","0.0104166666667","1","1","8.79166666667","1","2","1688","0","0","0","0","0","0","0","0","26","0","1","0.0104166666667","8.79166666667","2","1688","26","26","26","08/23/17 14:00:27","Default description","yes","<openexp._canvas.legacy.legacy object at 0x048327F0>","<openexp._canvas.legacy.legacy object at 0x0483D7B0>","<openexp._canvas.legacy.legacy object at 0x0482A410>","<openexp._canvas.legacy.legacy object at 0x049209D0>","<openexp._canvas.legacy.legacy object at 0x048F14B0>","<openexp._canvas.legacy.legacy object at 0x0483DFB0>","<openexp._canvas.legacy.legacy object at 0x048F2A50>","75","IndividualPriorityWithDis_v1.osexp","C:/Userdata/Michel/SpatialProb/IndividualPriorityMaps/Experiment2","no","mono","no","18","no","white","no","yes","0.09","98","1050","legacy","315","1","1","1","C:/Userdata/Michel/SpatialProb/IndividualPriorityMaps/Experiment2/data/subject-18.csv","legacy","9","192","25","Jazzy James","3.1.3","yes","598477b2b83f69022949e7e9","47","red","rectangular","green","rectangular","0","/","1196","space","4013","4013","(80, 80, 80)","(0, 122, 0)","(179, 0, 0)","(155, 155, 155)","2","legacy","experiment","[1, 2, 3, 4, 5, 6, 7, 0]","/","2500","3000","0","8","252.758751519","1024","2","48000","-16","main","[(0, -252), (178, -178), (252, 0), (178, 178), (0, 252), (-178, 178), (-252, 0), (-178, -178)]","[]","18","even","5","146012","257500","257500","83331","82324","1775","89120","89120","1775","1775","87344","266536","1774","257500","265337","264602","264603","NA","729","study_X","0","4013","1","yes","1680"
"undefined","undefined","4013","4013","black","no","legacy","legacy","legacy","0","green","(0, 122, 0)","shape","present","lowProb3","rectangular","swap","same","same","swap","green","(0, 122, 0)","lowProb","lowProb4","circular","uniform","1","undefined","0.015625","1","1","12.3489583333","1","3","2371","0","0","0","0","0","0","0","0","27","0","1","0.015625","12.3489583333","3","2371","27","27","27","08/23/17 14:00:27","Default description","yes","<openexp._canvas.legacy.legacy object at 0x048327F0>","<openexp._canvas.legacy.legacy object at 0x0483D7B0>","<openexp._canvas.legacy.legacy object at 0x0482A410>","<openexp._canvas.legacy.legacy object at 0x049209D0>","<openexp._canvas.legacy.legacy object at 0x048F14B0>","<openexp._canvas.legacy.legacy object at 0x0482F950>","<openexp._canvas.legacy.legacy object at 0x048F2A50>","75","IndividualPriorityWithDis_v1.osexp","C:/Userdata/Michel/SpatialProb/IndividualPriorityMaps/Experiment2","no","mono","no","18","no","white","no","yes","0.09","98","1050","legacy","315","2","2","1","C:/Userdata/Michel/SpatialProb/IndividualPriorityMaps/Experiment2/data/subject-18.csv","legacy","9","192","25","Jazzy James","3.1.3","yes","598477b2b83f69022949e7e9","47","green","rectangular","green","circular","0","/","683","space","4013","4013","(80, 80, 80)","(0, 122, 0)","(179, 0, 0)","(155, 155, 155)","2","legacy","experiment","[1, 2, 3, 4, 5, 6, 7, 0]","/","2500","3000","0","8","252.758751519","1024","2","48000","-16","main","[(0, -252), (178, -178), (252, 0), (178, 178), (0, 252), (-178, 178), (-252, 0), (-178, -178)]","[]","18","even","6","146012","257500","257500","83331","82324","1775","89120","89120","1775","1775","87344","268400","1774","257500","267713","266978","266978","NA","729","study_X","0","4013","1","yes","1680"
"undefined","undefined","4013","4013","black","no","legacy","legacy","legacy","0","red","(179, 0, 0)","shape","present","lowProb6","circular","swap","swap","swap","swap","red","(179, 0, 0)","lowProb","lowProb2","rectangular","uniform","1","undefined","0.0208333333333","1","1","16.09375","1","4","3090","0","0","0","0","0","0","0","0","28","0","1","0.0208333333333","16.09375","4","3090","28","28","28","08/23/17 14:00:27","Default description","yes","<openexp._canvas.legacy.legacy object at 0x048327F0>","<openexp._canvas.legacy.legacy object at 0x0483D7B0>","<openexp._canvas.legacy.legacy object at 0x0482A410>","<openexp._canvas.legacy.legacy object at 0x049209D0>","<openexp._canvas.legacy.legacy object at 0x048F14B0>","<openexp._canvas.legacy.legacy object at 0x0482AFD0>","<openexp._canvas.legacy.legacy object at 0x048F2A50>","75","IndividualPriorityWithDis_v1.osexp","C:/Userdata/Michel/SpatialProb/IndividualPriorityMaps/Experiment2","no","mono","no","18","no","white","no","yes","0.09","98","1050","legacy","45","3","3","1","C:/Userdata/Michel/SpatialProb/IndividualPriorityMaps/Experiment2/data/subject-18.csv","legacy","9","192","25","Jazzy James","3.1.3","yes","598477b2b83f69022949e7e9","47","red","circular","red","rectangular","0","\","719","space","4013","4013","(80, 80, 80)","(0, 122, 0)","(179, 0, 0)","(155, 155, 155)","2","legacy","experiment","[1, 2, 3, 4, 5, 6, 7, 0]","\","2500","3000","0","8","252.758751519","1024","2","48000","-16","main","[(0, -252), (178, -178), (252, 0), (178, 178), (0, 252), (-178, 178), (-252, 0), (-178, -178)]","[]","18","even","3","146012","257500","257500","83331","82324","1775","89120","89120","1775","1775","87344","270248","1774","257500","269526","268791","268791","NA","729","study_X","0","4013","1","yes","1680"
"undefined","undefined","4013","4013","black","no","legacy","legacy","legacy","0","green","(0, 122, 0)","color","present","lowProb3","rectangular","swap","swap","same","same","red","(179, 0, 0)","highProbShape","highProbShape","rectangular","uniform","1","undefined","0.0260416666667","1","1","19.1510416667","1","5","3677","0","0","0","0","0","0","0","0","29","0","1","0.0260416666667","19.1510416667","5","3677","29","29","29","08/23/17 14:00:27","Default description","yes","<openexp._canvas.legacy.legacy object at 0x048327F0>","<openexp._canvas.legacy.legacy object at 0x0483D7B0>","<openexp._canvas.legacy.legacy object at 0x0482A410>","<openexp._canvas.legacy.legacy object at 0x049209D0>","<openexp._canvas.legacy.legacy object at 0x048F14B0>","<openexp._canvas.legacy.legacy object at 0x0482FF50>","<openexp._canvas.legacy.legacy object at 0x048F2A50>","75","IndividualPriorityWithDis_v1.osexp","C:/Userdata/Michel/SpatialProb/IndividualPriorityMaps/Experiment2","no","mono","no","18","no","white","no","yes","0.09","98","1050","legacy","315","4","4","1","C:/Userdata/Michel/SpatialProb/IndividualPriorityMaps/Experiment2/data/subject-18.csv","legacy","9","192","25","Jazzy James","3.1.3","yes","598477b2b83f69022949e7e9","47","green","rectangular","red","rectangular","0","/","587","space","4013","4013","(80, 80, 80)","(0, 122, 0)","(179, 0, 0)","(155, 155, 155)","2","legacy","experiment","[1, 2, 3, 4, 5, 6, 7, 0]","/","2500","3000","0","8","252.758751519","1024","2","48000","-16","main","[(0, -252), (178, -178), (252, 0), (178, 178), (0, 252), (-178, 178), (-252, 0), (-178, -178)]","[]","18","even","5","146012","257500","257500","83331","82324","1775","89120","89120","1775","1775","87344","271968","1774","257500","271377","270642","270642","NA","729","study_X","0","4013","1","yes","1680"
"undefined","undefined","4013","4013","black","no","legacy","legacy","legacy","0","green","(0, 122, 0)","color","present","highProb","rectangular","same","same","same","same","red","(179, 0, 0)","lowProb","lowProb2","rectangular","uniform","1","undefined","0.03125","1","1","23.5416666667","1","6","4520","0","0","0","0","0","0","0","0","30","0","1","0.03125","23.5416666667","6","4520","30","30","30","08/23/17 14:00:27","Default description","yes","<openexp._canvas.legacy.legacy object at 0x048327F0>","<openexp._canvas.legacy.legacy object at 0x0483D7B0>","<openexp._canvas.legacy.legacy object at 0x0482A410>","<openexp._canvas.legacy.legacy object at 0x049209D0>","<openexp._canvas.legacy.legacy object at 0x048F14B0>","<openexp._canvas.legacy.legacy object at 0x049202B0>","<openexp._canvas.legacy.legacy object at 0x048F2A50>","75","IndividualPriorityWithDis_v1.osexp","C:/Userdata/Michel/SpatialProb/IndividualPriorityMaps/Experiment2","no","mono","no","18","no","white","no","yes","0.09","98","1050","legacy","45","5","5","1","C:/Userdata/Michel/SpatialProb/IndividualPriorityMaps/Experiment2/data/subject-18.csv","legacy","9","192","25","Jazzy James","3.1.3","yes","598477b2b83f69022949e7e9","47","green","rectangular","red","rectangular","0","\","843","space","4013","4013","(80, 80, 80)","(0, 122, 0)","(179, 0, 0)","(155, 155, 155)","2","legacy","experiment","[1, 2, 3, 4, 5, 6, 7, 0]","\","2500","3000","0","8","252.758751519","1024","2","48000","-16","main","[(0, -252), (178, -178), (252, 0), (178, 178), (0, 252), (-178, 178), (-252, 0), (-178, -178)]","[]","18","even","3","146012","257500","257500","83331","82324","1775","89120","89120","1775","1775","87344","273951","1774","257500","273105","272371","272371","NA","729","study_X","0","4013","1","yes","1680"
"undefined","undefined","4013","4013","black","no","legacy","legacy","legacy","0","red","(179, 0, 0)","shape","present","highProb","rectangular","swap","same","same","swap","red","(179, 0, 0)","highProbColor","highProbColor","circular","uniform","1","undefined","0.0364583333333","1","1","27.234375","1","7","5229","0","0","0","0","0","0","0","0","31","0","1","0.0364583333333","27.234375","7","5229","31","31","31","08/23/17 14:00:27","Default description","yes","<openexp._canvas.legacy.legacy object at 0x048327F0>","<openexp._canvas.legacy.legacy object at 0x0483D7B0>","<openexp._canvas.legacy.legacy object at 0x0482A410>","<openexp._canvas.legacy.legacy object at 0x049209D0>","<openexp._canvas.legacy.legacy object at 0x048F14B0>","<openexp._canvas.legacy.legacy object at 0x0482AED0>","<openexp._canvas.legacy.legacy object at 0x048F2A50>","75","IndividualPriorityWithDis_v1.osexp","C:/Userdata/Michel/SpatialProb/IndividualPriorityMaps/Experiment2","no","mono","no","18","no","white","no","yes","0.09","98","1050","legacy","315","6","6","1","C:/Userdata/Michel/SpatialProb/IndividualPriorityMaps/Experiment2/data/subject-18.csv","legacy","9","192","25","Jazzy James","3.1.3","yes","598477b2b83f69022949e7e9","47","red","rectangular","red","circular","0","/","709","space","4013","4013","(80, 80, 80)","(0, 122, 0)","(179, 0, 0)","(155, 155, 155)","2","legacy","experiment","[1, 2, 3, 4, 5, 6, 7, 0]","/","2500","3000","0","8","252.758751519","1024","2","48000","-16","main","[(0, -252), (178, -178), (252, 0), (178, 178), (0, 252), (-178, 178), (-252, 0), (-178, -178)]","[]","18","even","1","146012","257500","257500","83331","82324","1775","89120","89120","1775","1775","87344","275799","1774","257500","275087","274352","274352","NA","729","study_X","0","4013","1","yes","1680"
"undefined","undefined","4013","4013","black","no","legacy","legacy","legacy","0","red","(179, 0, 0)","shape","present","highProb","rectangular","same","same","same","same","red","(179, 0, 0)","lowProb","lowProb1","circular","uniform","1","undefined","0.0416666666667","1","1","30.8125","1","8","5916","0","0","0","0","0","0","0","0","32","0","1","0.0416666666667","30.8125","8","5916","32","32","32","08/23/17 14:00:27","Default description","yes","<openexp._canvas.legacy.legacy object at 0x048327F0>","<openexp._canvas.legacy.legacy object at 0x0483D7B0>","<openexp._canvas.legacy.legacy object at 0x0482A410>","<openexp._canvas.legacy.legacy object at 0x049209D0>","<openexp._canvas.legacy.legacy object at 0x048F14B0>","<openexp._canvas.legacy.legacy object at 0x0482E550>","<openexp._canvas.legacy.legacy object at 0x048F2A50>","75","IndividualPriorityWithDis_v1.osexp","C:/Userdata/Michel/SpatialProb/IndividualPriorityMaps/Experiment2","no","mono","no","18","no","white","no","yes","0.09","98","1050","legacy","315","7","7","1","C:/Userdata/Michel/SpatialProb/IndividualPriorityMaps/Experiment2/data/subject-18.csv","legacy","9","192","25","Jazzy James","3.1.3","yes","598477b2b83f69022949e7e9","47","red","rectangular","red","circular","0","/","687","space","4013","4013","(80, 80, 80)","(0, 122, 0)","(179, 0, 0)","(155, 155, 155)","2","legacy","experiment","[1, 2, 3, 4, 5, 6, 7, 0]","/","2500","3000","0","8","252.758751519","1024","2","48000","-16","main","[(0, -252), (178, -178), (252, 0), (178, 178), (0, 252), (-178, 178), (-252, 0), (-178, -178)]","[]","18","even","2","146012","257500","257500","83331","82324","1775","89120","89120","1775","1775","87344","277631","1774","257500","276941","276206","276206","NA","729","study_X","0","4013","1","yes","1680"
"undefined","undefined","4013","4013","black","no","legacy","legacy","legacy","0","red","(179, 0, 0)","color","present","highProb","circular","same","swap","swap","same","green","(0, 122, 0)","lowProb","lowProb1","circular","uniform","1","undefined","0.046875","1","1","33.2760416667","1","9","6389","0","0","0","0","0","0","0","0","33","0","1","0.046875","33.2760416667","9","6389","33","33","33","08/23/17 14:00:27","Default description","yes","<openexp._canvas.legacy.legacy object at 0x048327F0>","<openexp._canvas.legacy.legacy object at 0x0483D7B0>","<openexp._canvas.legacy.legacy object at 0x0482A410>","<openexp._canvas.legacy.legacy object at 0x049209D0>","<openexp._canvas.legacy.legacy object at 0x048F14B0>","<openexp._canvas.legacy.legacy object at 0x04920AB0>","<openexp._canvas.legacy.legacy object at 0x048F2A50>","75","IndividualPriorityWithDis_v1.osexp","C:/Userdata/Michel/SpatialProb/IndividualPriorityMaps/Experiment2","no","mono","no","18","no","white","no","yes","0.09","98","1050","legacy","315","8","8","1","C:/Userdata/Michel/SpatialProb/IndividualPriorityMaps/Experiment2/data/subject-18.csv","legacy","9","192","25","Jazzy James","3.1.3","yes","598477b2b83f69022949e7e9","47","red","circular","green","circular","0","/","473","space","4013","4013","(80, 80, 80)","(0, 122, 0)","(179, 0, 0)","(155, 155, 155)","2","legacy","experiment","[1, 2, 3, 4, 5, 6, 7, 0]","/","2500","3000","0","8","252.758751519","1024","2","48000","-16","main","[(0, -252), (178, -178), (252, 0), (178, 178), (0, 252), (-178, 178), (-252, 0), (-178, -178)]","[]","18","even","2","146012","257500","257500","83331","82324","1775","89120","89120","1775","1775","87344","279255","1774","257500","278779","278044","278044","NA","729","study_X","0","4013","1","yes","1680"
"undefined","undefined","4013","4013","black","no","legacy","legacy","legacy","0","red","(179, 0, 0)","shape","present","lowProb4","circular","same","same","swap","swap","red","(179, 0, 0)","highProbColor","highProbColor","rectangular","uniform","1","undefined","0.0520833333333","1","1","39.0677083333","1","10","7501","0","0","0","0","0","0","0","0","34","0","1","0.0520833333333","39.0677083333","10","7501","34","34","34","08/23/17 14:00:27","Default description","yes","<openexp._canvas.legacy.legacy object at 0x048327F0>","<openexp._canvas.legacy.legacy object at 0x0483D7B0>","<openexp._canvas.legacy.legacy object at 0x0482A410>","<openexp._canvas.legacy.legacy object at 0x049209D0>","<openexp._canvas.legacy.legacy object at 0x048F14B0>","<openexp._canvas.legacy.legacy object at 0x04920250>","<openexp._canvas.legacy.legacy object at 0x048F2A50>","75","IndividualPriorityWithDis_v1.osexp","C:/Userdata/Michel/SpatialProb/IndividualPriorityMaps/Experiment2","no","mono","no","18","no","white","no","yes","0.09","98","1050","legacy","315","9","9","1","C:/Userdata/Michel/SpatialProb/IndividualPriorityMaps/Experiment2/data/subject-18.csv","legacy","9","192","25","Jazzy James","3.1.3","yes","598477b2b83f69022949e7e9","47","red","circular","red","rectangular","0","/","1112","space","4013","4013","(80, 80, 80)","(0, 122, 0)","(179, 0, 0)","(155, 155, 155)","2","legacy","experiment","[1, 2, 3, 4, 5, 6, 7, 0]","/","2500","3000","0","8","252.758751519","1024","2","48000","-16","main","[(0, -252), (178, -178), (252, 0), (178, 178), (0, 252), (-178, 178), (-252, 0), (-178, -178)]","[]","18","even","1","146012","257500","257500","83331","82324","1775","89120","89120","1775","1775","87344","281511","1774","257500","280396","279661","279661","NA","729","study_X","0","4013","1","yes","1680"
"undefined","undefined","4013","4013","black","no","legacy","legacy","legacy","0","green","(0, 122, 0)","shape","present","highProb","rectangular","swap","swap","swap","swap","green","(0, 122, 0)","lowProb","lowProb1","circular","uniform","1","undefined","0.0572916666667","1","1","42.2552083333","1","11","8113","0","0","0","0","0","0","0","0","35","0","1","0.0572916666667","42.2552083333","11","8113","35","35","35","08/23/17 14:00:27","Default description","yes","<openexp._canvas.legacy.legacy object at 0x048327F0>","<openexp._canvas.legacy.legacy object at 0x0483D7B0>","<openexp._canvas.legacy.legacy object at 0x0482A410>","<openexp._canvas.legacy.legacy object at 0x049209D0>","<openexp._canvas.legacy.legacy object at 0x048F14B0>","<openexp._canvas.legacy.legacy object at 0x0482A790>","<openexp._canvas.legacy.legacy object at 0x048F2A50>","75","IndividualPriorityWithDis_v1.osexp","C:/Userdata/Michel/SpatialProb/IndividualPriorityMaps/Experiment2","no","mono","no","18","no","white","no","yes","0.09","98","1050","legacy","315","10","10","1","C:/Userdata/Michel/SpatialProb/IndividualPriorityMaps/Experiment2/data/subject-18.csv","legacy","9","192","25","Jazzy James","3.1.3","yes","598477b2b83f69022949e7e9","47","green","rectangular","green","circular","0","/","612","space","4013","4013","(80, 80, 80)","(0, 122, 0)","(179, 0, 0)","(155, 155, 155)","2","legacy","experiment","[1, 2, 3, 4, 5, 6, 7, 0]","/","2500","3000","0","8","252.758751519","1024","2","48000","-16","main","[(0, -252), (178, -178), (252, 0), (178, 178), (0, 252), (-178, 178), (-252, 0), (-178, -178)]","[]","18","even","2","146012","257500","257500","83331","82324","1775","89120","89120","1775","1775","87344","283264","1774","257500","282649","281914","281914","NA","729","study_X","0","4013","1","yes","1680"
"undefined","undefined","4013","4013","black","no","legacy","legacy","legacy","0","red","(179, 0, 0)","shape","present","highProb","circular","swap","swap","swap","swap","red","(179, 0, 0)","lowProb","lowProb1","rectangular","uniform","1","undefined","0.0625","1","1","45.3177083333","1","12","8701","0","0","0","0","0","0","0","0","36","0","1","0.0625","45.3177083333","12","8701","36","36","36","08/23/17 14:00:27","Default description","yes","<openexp._canvas.legacy.legacy object at 0x048327F0>","<openexp._canvas.legacy.legacy object at 0x0483D7B0>","<openexp._canvas.legacy.legacy object at 0x0482A410>","<openexp._canvas.legacy.legacy object at 0x049209D0>","<openexp._canvas.legacy.legacy object at 0x048F14B0>","<openexp._canvas.legacy.legacy object at 0x0482AC90>","<openexp._canvas.legacy.legacy object at 0x048F2A50>","75","IndividualPriorityWithDis_v1.osexp","C:/Userdata/Michel/SpatialProb/IndividualPriorityMaps/Experiment2","no","mono","no","18","no","white","no","yes","0.09","98","1050","legacy","45","11","11","1","C:/Userdata/Michel/SpatialProb/IndividualPriorityMaps/Experiment2/data/subject-18.csv","legacy","9","192","25","Jazzy James","3.1.3","yes","598477b2b83f69022949e7e9","47","red","circular","red","rectangular","0","\","588","space","4013","4013","(80, 80, 80)","(0, 122, 0)","(179, 0, 0)","(155, 155, 155)","2","legacy","experiment","[1, 2, 3, 4, 5, 6, 7, 0]","\","2500","3000","0","8","252.758751519","1024","2","48000","-16","main","[(0, -252), (178, -178), (252, 0), (178, 178), (0, 252), (-178, 178), (-252, 0), (-178, -178)]","[]","18","even","2","146012","257500","257500","83331","82324","1775","89120","89120","1775","1775","87344","284992","1774","257500","284401","283666","283666","NA","729","study_X","0","4013","1","yes","1680"
"undefined","undefined","4013","4013","black","no","legacy","legacy","legacy","0","green","(0, 122, 0)","shape","absent","highProbOther","rectangular","swap","swap","swap","same","green","(0, 122, 0)","lowProb","lowProb1","rectangular","uniform","1","undefined","0.0677083333333","1","1","49.2864583333","1","13","9463","0","0","0","0","0","0","0","0","37","0","1","0.0677083333333","49.2864583333","13","9463","37","37","37","08/23/17 14:00:27","Default description","yes","<openexp._canvas.legacy.legacy object at 0x048327F0>","<openexp._canvas.legacy.legacy object at 0x0483D7B0>","<openexp._canvas.legacy.legacy object at 0x0482A410>","<openexp._canvas.legacy.legacy object at 0x049209D0>","<openexp._canvas.legacy.legacy object at 0x048F14B0>","<openexp._canvas.legacy.legacy object at 0x049208B0>","<openexp._canvas.legacy.legacy object at 0x048F2A50>","75","IndividualPriorityWithDis_v1.osexp","C:/Userdata/Michel/SpatialProb/IndividualPriorityMaps/Experiment2","no","mono","no","18","no","white","no","yes","0.09","98","1050","legacy","45","12","12","1","C:/Userdata/Michel/SpatialProb/IndividualPriorityMaps/Experiment2/data/subject-18.csv","legacy","9","192","25","Jazzy James","3.1.3","yes","598477b2b83f69022949e7e9","47","green","rectangular","green","rectangular","0","\","762","space","4013","4013","(80, 80, 80)","(0, 122, 0)","(179, 0, 0)","(155, 155, 155)","2","legacy","experiment","[1, 2, 3, 4, 5, 6, 7, 0]","\","2500","3000","0","8","252.758751519","1024","2","48000","-16","main","[(0, -252), (178, -178), (252, 0), (178, 178), (0, 252), (-178, 178), (-252, 0), (-178, -178)]","[]","18","even","2","146012","257500","257500","83331","82324","1775","89120","89120","1775","1775","87344","286896","1774","257500","286130","285396","285396","NA","729","study_X","0","4013","1","yes","1680"
"undefined","undefined","4013","4013","black","no","legacy","legacy","legacy","0","red","(179, 0, 0)","shape","present","highProb","rectangular","swap","same","swap","swap","red","(179, 0, 0)","highProbColor","highProbColor","circular","uniform","1","undefined","0.0729166666667","1","1","52.6197916667","1","14","10103","0","0","0","0","0","0","0","0","38","0","1","0.0729166666667","52.6197916667","14","10103","38","38","38","08/23/17 14:00:27","Default description","yes","<openexp._canvas.legacy.legacy object at 0x048327F0>","<openexp._canvas.legacy.legacy object at 0x0483D7B0>","<openexp._canvas.legacy.legacy object at 0x0482A410>","<openexp._canvas.legacy.legacy object at 0x049209D0>","<openexp._canvas.legacy.legacy object at 0x048F14B0>","<openexp._canvas.legacy.legacy object at 0x0483DCF0>","<openexp._canvas.legacy.legacy object at 0x048F2A50>","75","IndividualPriorityWithDis_v1.osexp","C:/Userdata/Michel/SpatialProb/IndividualPriorityMaps/Experiment2","no","mono","no","18","no","white","no","yes","0.09","98","1050","legacy","315","13","13","1","C:/Userdata/Michel/SpatialProb/IndividualPriorityMaps/Experiment2/data/subject-18.csv","legacy","9","192","25","Jazzy James","3.1.3","yes","598477b2b83f69022949e7e9","47","red","rectangular","red","circular","0","/","640","space","4013","4013","(80, 80, 80)","(0, 122, 0)","(179, 0, 0)","(155, 155, 155)","2","legacy","experiment","[1, 2, 3, 4, 5, 6, 7, 0]","/","2500","3000","0","8","252.758751519","1024","2","48000","-16","main","[(0, -252), (178, -178), (252, 0), (178, 178), (0, 252), (-178, 178), (-252, 0), (-178, -178)]","[]","18","even","1","146012","257500","257500","83331","82324","1775","89120","89120","1775","1775","87344","288672","1774","257500","288028","287293","287293","NA","729","study_X","0","4013","1","yes","1680"
"undefined","undefined","4013","4013","black","no","legacy","legacy","legacy","0","red","(179, 0, 0)","color","present","lowProb1","circular","same","swap","swap","same","green","(0, 122, 0)","lowProb","lowProb3","circular","uniform","1","undefined","0.078125","1","1","56.21875","1","15","10794","0","0","0","0","0","0","0","0","39","0","1","0.078125","56.21875","15","10794","39","39","39","08/23/17 14:00:27","Default description","yes","<openexp._canvas.legacy.legacy object at 0x048327F0>","<openexp._canvas.legacy.legacy object at 0x0483D7B0>","<openexp._canvas.legacy.legacy object at 0x0482A410>","<openexp._canvas.legacy.legacy object at 0x049209D0>","<openexp._canvas.legacy.legacy object at 0x048F14B0>","<openexp._canvas.legacy.legacy object at 0x0491BB10>","<openexp._canvas.legacy.legacy object at 0x048F2A50>","75","IndividualPriorityWithDis_v1.osexp","C:/Userdata/Michel/SpatialProb/IndividualPriorityMaps/Experiment2","no","mono","no","18","no","white","no","yes","0.09","98","1050","legacy","315","14","14","1","C:/Userdata/Michel/SpatialProb/IndividualPriorityMaps/Experiment2/data/subject-18.csv","legacy","9","192","25","Jazzy James","3.1.3","yes","598477b2b83f69022949e7e9","47","red","circular","green","circular","0","/","691","space","4013","4013","(80, 80, 80)","(0, 122, 0)","(179, 0, 0)","(155, 155, 155)","2","legacy","experiment","[1, 2, 3, 4, 5, 6, 7, 0]","/","2500","3000","0","8","252.758751519","1024","2","48000","-16","main","[(0, -252), (178, -178), (252, 0), (178, 178), (0, 252), (-178, 178), (-252, 0), (-178, -178)]","[]","18","even","4","146012","257500","257500","83331","82324","1775","89120","89120","1775","1775","87344","290519","1774","257500","289825","289090","289091","NA","729","study_X","0","4013","1","yes","1680"
"undefined","undefined","4013","4013","black","no","legacy","legacy","legacy","0","red","(179, 0, 0)","color","present","highProb","rectangular","same","swap","same","swap","green","(0, 122, 0)","lowProb","lowProb1","rectangular","uniform","1","undefined","0.0833333333333","1","1","60.8489583333","1","16","11683","0","0","0","0","0","0","0","0","40","0","1","0.0833333333333","60.8489583333","16","11683","40","40","40","08/23/17 14:00:27","Default description","yes","<openexp._canvas.legacy.legacy object at 0x048327F0>","<openexp._canvas.legacy.legacy object at 0x0483D7B0>","<openexp._canvas.legacy.legacy object at 0x0482A410>","<openexp._canvas.legacy.legacy object at 0x049209D0>","<openexp._canvas.legacy.legacy object at 0x048F14B0>","<openexp._canvas.legacy.legacy object at 0x0482ECF0>","<openexp._canvas.legacy.legacy object at 0x048F2A50>","75","IndividualPriorityWithDis_v1.osexp","C:/Userdata/Michel/SpatialProb/IndividualPriorityMaps/Experiment2","no","mono","no","18","no","white","no","yes","0.09","98","1050","legacy","45","15","15","1","C:/Userdata/Michel/SpatialProb/IndividualPriorityMaps/Experiment2/data/subject-18.csv","legacy","9","192","25","Jazzy James","3.1.3","yes","598477b2b83f69022949e7e9","47","red","rectangular","green","rectangular","0","\","889","space","4013","4013","(80, 80, 80)","(0, 122, 0)","(179, 0, 0)","(155, 155, 155)","2","legacy","experiment","[1, 2, 3, 4, 5, 6, 7, 0]","\","2500","3000","0","8","252.758751519","1024","2","48000","-16","main","[(0, -252), (178, -178), (252, 0), (178, 178), (0, 252), (-178, 178), (-252, 0), (-178, -178)]","[]","18","even","2","146012","257500","257500","83331","82324","1775","89120","89120","1775","1775","87344","292543","1774","257500","291651","290916","290916","NA","729","study_X","0","4013","1","yes","1680"
"undefined","undefined","4013","4013","black","no","legacy","legacy","legacy","0","green","(0, 122, 0)","shape","present","lowProb6","circular","swap","swap","same","same","green","(0, 122, 0)","lowProb","lowProb3","rectangular","uniform","1","undefined","0.0885416666667","1","1","65.6197916667","1","17","12599","0","0","0","0","0","0","0","0","41","0","1","0.0885416666667","65.6197916667","17","12599","41","41","41","08/23/17 14:00:27","Default description","yes","<openexp._canvas.legacy.legacy object at 0x048327F0>","<openexp._canvas.legacy.legacy object at 0x0483D7B0>","<openexp._canvas.legacy.legacy object at 0x0482A410>","<openexp._canvas.legacy.legacy object at 0x049209D0>","<openexp._canvas.legacy.legacy object at 0x048F14B0>","<openexp._canvas.legacy.legacy object at 0x0482E490>","<openexp._canvas.legacy.legacy object at 0x048F2A50>","75","IndividualPriorityWithDis_v1.osexp","C:/Userdata/Michel/SpatialProb/IndividualPriorityMaps/Experiment2","no","mono","no","18","no","white","no","yes","0.09","98","1050","legacy","45","16","16","1","C:/Userdata/Michel/SpatialProb/IndividualPriorityMaps/Experiment2/data/subject-18.csv","legacy","9","192","25","Jazzy James","3.1.3","yes","598477b2b83f69022949e7e9","47","green","circular","green","rectangular","0","\","916","space","4013","4013","(80, 80, 80)","(0, 122, 0)","(179, 0, 0)","(155, 155, 155)","2","legacy","experiment","[1, 2, 3, 4, 5, 6, 7, 0]","\","2500","3000","0","8","252.758751519","1024","2","48000","-16","main","[(0, -252), (178, -178), (252, 0), (178, 178), (0, 252), (-178, 178), (-252, 0), (-178, -178)]","[]","18","even","4","146012","257500","257500","83331","82324","1775","89120","89120","1775","1775","87344","294599","1774","257500","293680","292945","292945","NA","729","study_X","0","4013","1","yes","1680"
"undefined","undefined","4013","4013","black","no","legacy","legacy","legacy","0","green","(0, 122, 0)","shape","present","highProb","circular","same","same","same","same","green","(0, 122, 0)","lowProb","lowProb1","rectangular","uniform","1","undefined","0.09375","1","1","70.25","1","18","13488","0","0","0","0","0","0","0","0","42","0","1","0.09375","70.25","18","13488","42","42","42","08/23/17 14:00:27","Default description","yes","<openexp._canvas.legacy.legacy object at 0x048327F0>","<openexp._canvas.legacy.legacy object at 0x0483D7B0>","<openexp._canvas.legacy.legacy object at 0x0482A410>","<openexp._canvas.legacy.legacy object at 0x049209D0>","<openexp._canvas.legacy.legacy object at 0x048F14B0>","<openexp._canvas.legacy.legacy object at 0x0483D930>","<openexp._canvas.legacy.legacy object at 0x048F2A50>","75","IndividualPriorityWithDis_v1.osexp","C:/Userdata/Michel/SpatialProb/IndividualPriorityMaps/Experiment2","no","mono","no","18","no","white","no","yes","0.09","98","1050","legacy","315","17","17","1","C:/Userdata/Michel/SpatialProb/IndividualPriorityMaps/Experiment2/data/subject-18.csv","legacy","9","192","25","Jazzy James","3.1.3","yes","598477b2b83f69022949e7e9","47","green","circular","green","rectangular","0","/","889","space","4013","4013","(80, 80, 80)","(0, 122, 0)","(179, 0, 0)","(155, 155, 155)","2","legacy","experiment","[1, 2, 3, 4, 5, 6, 7, 0]","/","2500","3000","0","8","252.758751519","1024","2","48000","-16","main","[(0, -252), (178, -178), (252, 0), (178, 178), (0, 252), (-178, 178), (-252, 0), (-178, -178)]","[]","18","even","2","146012","257500","257500","83331","82324","1775","89120","89120","1775","1775","87344","296623","1774","257500","295731","294996","294996","NA","729","study_X","0","4013","1","yes","1680"
"undefined","undefined","4013","4013","black","no","legacy","legacy","legacy","0","green","(0, 122, 0)","shape","present","highProb","circular","same","same","same","same","green","(0, 122, 0)","lowProb","lowProb6","rectangular","uniform","1","undefined","0.0989583333333","1","1","73.2447916667","1","19","14063","0","0","0","0","0","0","0","0","43","0","1","0.0989583333333","73.2447916667","19","14063","43","43","43","08/23/17 14:00:27","Default description","yes","<openexp._canvas.legacy.legacy object at 0x048327F0>","<openexp._canvas.legacy.legacy object at 0x0483D7B0>","<openexp._canvas.legacy.legacy object at 0x0482A410>","<openexp._canvas.legacy.legacy object at 0x049209D0>","<openexp._canvas.legacy.legacy object at 0x048F14B0>","<openexp._canvas.legacy.legacy object at 0x04842650>","<openexp._canvas.legacy.legacy object at 0x048F2A50>","75","IndividualPriorityWithDis_v1.osexp","C:/Userdata/Michel/SpatialProb/IndividualPriorityMaps/Experiment2","no","mono","no","18","no","white","no","yes","0.09","98","1050","legacy","315","18","18","1","C:/Userdata/Michel/SpatialProb/IndividualPriorityMaps/Experiment2/data/subject-18.csv","legacy","9","192","25","Jazzy James","3.1.3","yes","598477b2b83f69022949e7e9","47","green","circular","green","rectangular","0","/","575","space","4013","4013","(80, 80, 80)","(0, 122, 0)","(179, 0, 0)","(155, 155, 155)","2","legacy","experiment","[1, 2, 3, 4, 5, 6, 7, 0]","/","2500","3000","0","8","252.758751519","1024","2","48000","-16","main","[(0, -252), (178, -178), (252, 0), (178, 178), (0, 252), (-178, 178), (-252, 0), (-178, -178)]","[]","18","even","0","146012","257500","257500","83331","82324","1775","89120","89120","1775","1775","87344","298343","1774","257500","297765","297030","297030","NA","729","study_X","0","4013","1","yes","1680"
"undefined","undefined","4013","4013","black","no","legacy","legacy","legacy","0","green","(0, 122, 0)","color","present","lowProb2","circular","same","same","swap","swap","red","(179, 0, 0)","lowProb","lowProb3","circular","uniform","1","undefined","0.104166666667","1","1","77.375","1","20","14856","0","0","0","0","0","0","0","0","44","0","1","0.104166666667","77.375","20","14856","44","44","44","08/23/17 14:00:27","Default description","yes","<openexp._canvas.legacy.legacy object at 0x048327F0>","<openexp._canvas.legacy.legacy object at 0x0483D7B0>","<openexp._canvas.legacy.legacy object at 0x0482A410>","<openexp._canvas.legacy.legacy object at 0x049209D0>","<openexp._canvas.legacy.legacy object at 0x048F14B0>","<openexp._canvas.legacy.legacy object at 0x0482AF50>","<openexp._canvas.legacy.legacy object at 0x048F2A50>","75","IndividualPriorityWithDis_v1.osexp","C:/Userdata/Michel/SpatialProb/IndividualPriorityMaps/Experiment2","no","mono","no","18","no","white","no","yes","0.09","98","1050","legacy","315","19","19","1","C:/Userdata/Michel/SpatialProb/IndividualPriorityMaps/Experiment2/data/subject-18.csv","legacy","9","192","25","Jazzy James","3.1.3","yes","598477b2b83f69022949e7e9","47","green","circular","red","circular","0","/","793","space","4013","4013","(80, 80, 80)","(0, 122, 0)","(179, 0, 0)","(155, 155, 155)","2","legacy","experiment","[1, 2, 3, 4, 5, 6, 7, 0]","/","2500","3000","0","8","252.758751519","1024","2","48000","-16","main","[(0, -252), (178, -178), (252, 0), (178, 178), (0, 252), (-178, 178), (-252, 0), (-178, -178)]","[]","18","even","4","146012","257500","257500","83331","82324","1775","89120","89120","1775","1775","87344","300271","1774","257500","299474","298739","298740","NA","729","study_X","0","4013","1","yes","1680"
"undefined","undefined","4013","4013","black","no","legacy","legacy","legacy","0","red","(179, 0, 0)","color","present","lowProb6","circular","swap","same","swap","same","green","(0, 122, 0)","highProbShape","highProbShape","circular","uniform","1","undefined","0.109375","1","1","80.21875","1","21","15402","0","0","0","0","0","0","0","0","45","0","1","0.109375","80.21875","21","15402","45","45","45","08/23/17 14:00:27","Default description","yes","<openexp._canvas.legacy.legacy object at 0x048327F0>","<openexp._canvas.legacy.legacy object at 0x0483D7B0>","<openexp._canvas.legacy.legacy object at 0x0482A410>","<openexp._canvas.legacy.legacy object at 0x049209D0>","<openexp._canvas.legacy.legacy object at 0x048F14B0>","<openexp._canvas.legacy.legacy object at 0x0482E130>","<openexp._canvas.legacy.legacy object at 0x048F2A50>","75","IndividualPriorityWithDis_v1.osexp","C:/Userdata/Michel/SpatialProb/IndividualPriorityMaps/Experiment2","no","mono","no","18","no","white","no","yes","0.09","98","1050","legacy","315","20","20","1","C:/Userdata/Michel/SpatialProb/IndividualPriorityMaps/Experiment2/data/subject-18.csv","legacy","9","192","25","Jazzy James","3.1.3","yes","598477b2b83f69022949e7e9","47","red","circular","green","circular","0","/","546","space","4013","4013","(80, 80, 80)","(0, 122, 0)","(179, 0, 0)","(155, 155, 155)","2","legacy","experiment","[1, 2, 3, 4, 5, 6, 7, 0]","/","2500","3000","0","8","252.758751519","1024","2","48000","-16","main","[(0, -252), (178, -178), (252, 0), (178, 178), (0, 252), (-178, 178), (-252, 0), (-178, -178)]","[]","18","even","5","146012","257500","257500","83331","82324","1775","89120","89120","1775","1775","87344","301960","1774","257500","301411","300676","300676","NA","729","study_X","0","4013","1","yes","1680"
"undefined","undefined","4013","4013","black","no","legacy","legacy","legacy","0","red","(179, 0, 0)","shape","present","highProb","rectangular","same","swap","swap","same","red","(179, 0, 0)","lowProb","lowProb5","circular","uniform","1","undefined","0.114583333333","1","1","83.578125","1","22","16047","0","0","0","0","0","0","0","0","46","0","1","0.114583333333","83.578125","22","16047","46","46","46","08/23/17 14:00:27","Default description","yes","<openexp._canvas.legacy.legacy object at 0x048327F0>","<openexp._canvas.legacy.legacy object at 0x0483D7B0>","<openexp._canvas.legacy.legacy object at 0x0482A410>","<openexp._canvas.legacy.legacy object at 0x049209D0>","<openexp._canvas.legacy.legacy object at 0x048F14B0>","<openexp._canvas.legacy.legacy object at 0x0483D3F0>","<openexp._canvas.legacy.legacy object at 0x048F2A50>","75","IndividualPriorityWithDis_v1.osexp","C:/Userdata/Michel/SpatialProb/IndividualPriorityMaps/Experiment2","no","mono","no","18","no","white","no","yes","0.09","98","1050","legacy","45","21","21","1","C:/Userdata/Michel/SpatialProb/IndividualPriorityMaps/Experiment2/data/subject-18.csv","legacy","9","192","25","Jazzy James","3.1.3","yes","598477b2b83f69022949e7e9","47","red","rectangular","red","circular","0","\","645","space","4013","4013","(80, 80, 80)","(0, 122, 0)","(179, 0, 0)","(155, 155, 155)","2","legacy","experiment","[1, 2, 3, 4, 5, 6, 7, 0]","\","2500","3000","0","8","252.758751519","1024","2","48000","-16","main","[(0, -252), (178, -178), (252, 0), (178, 178), (0, 252), (-178, 178), (-252, 0), (-178, -178)]","[]","18","even","7","146012","257500","257500","83331","82324","1775","89120","89120","1775","1775","87344","303744","1774","257500","303095","302360","302360","NA","729","study_X","0","4013","1","yes","1680"
"undefined","undefined","4013","4013","black","no","legacy","legacy","legacy","0","red","(179, 0, 0)","color","absent","lowProb6","rectangular","same","same","same","swap","red","(179, 0, 0)","lowProb","lowProb2","rectangular","uniform","1","undefined","0.119791666667","1","1","87.9739583333","1","23","16891","0","0","0","0","0","0","0","0","47","0","1","0.119791666667","87.9739583333","23","16891","47","47","47","08/23/17 14:00:27","Default description","yes","<openexp._canvas.legacy.legacy object at 0x048327F0>","<openexp._canvas.legacy.legacy object at 0x0483D7B0>","<openexp._canvas.legacy.legacy object at 0x0482A410>","<openexp._canvas.legacy.legacy object at 0x049209D0>","<openexp._canvas.legacy.legacy object at 0x048F14B0>","<openexp._canvas.legacy.legacy object at 0x049202D0>","<openexp._canvas.legacy.legacy object at 0x048F2A50>","75","IndividualPriorityWithDis_v1.osexp","C:/Userdata/Michel/SpatialProb/IndividualPriorityMaps/Experiment2","no","mono","no","18","no","white","no","yes","0.09","98","1050","legacy","315","22","22","1","C:/Userdata/Michel/SpatialProb/IndividualPriorityMaps/Experiment2/data/subject-18.csv","legacy","9","192","25","Jazzy James","3.1.3","yes","598477b2b83f69022949e7e9","47","red","rectangular","red","rectangular","0","/","844","space","4013","4013","(80, 80, 80)","(0, 122, 0)","(179, 0, 0)","(155, 155, 155)","2","legacy","experiment","[1, 2, 3, 4, 5, 6, 7, 0]","/","2500","3000","0","8","252.758751519","1024","2","48000","-16","main","[(0, -252), (178, -178), (252, 0), (178, 178), (0, 252), (-178, 178), (-252, 0), (-178, -178)]","[]","18","even","3","146012","257500","257500","83331","82324","1775","89120","89120","1775","1775","87344","305719","1774","257500","304872","304137","304137","NA","729","study_X","0","4013","1","yes","1680"
"undefined","undefined","4013","4013","black","no","legacy","legacy","legacy","0","green","(0, 122, 0)","shape","present","highProb","rectangular","swap","same","swap","swap","green","(0, 122, 0)","lowProb","lowProb4","circular","uniform","1","undefined","0.125","1","1","90.5625","1","24","17388","0","0","0","0","0","0","0","0","48","0","1","0.125","90.5625","24","17388","48","48","48","08/23/17 14:00:27","Default description","yes","<openexp._canvas.legacy.legacy object at 0x048327F0>","<openexp._canvas.legacy.legacy object at 0x0483D7B0>","<openexp._canvas.legacy.legacy object at 0x0482A410>","<openexp._canvas.legacy.legacy object at 0x049209D0>","<openexp._canvas.legacy.legacy object at 0x048F14B0>","<openexp._canvas.legacy.legacy object at 0x0491BFD0>","<openexp._canvas.legacy.legacy object at 0x048F2A50>","75","IndividualPriorityWithDis_v1.osexp","C:/Userdata/Michel/SpatialProb/IndividualPriorityMaps/Experiment2","no","mono","no","18","no","white","no","yes","0.09","98","1050","legacy","45","23","23","1","C:/Userdata/Michel/SpatialProb/IndividualPriorityMaps/Experiment2/data/subject-18.csv","legacy","9","192","25","Jazzy James","3.1.3","yes","598477b2b83f69022949e7e9","47","green","rectangular","green","circular","0","\","497","space","4013","4013","(80, 80, 80)","(0, 122, 0)","(179, 0, 0)","(155, 155, 155)","2","legacy","experiment","[1, 2, 3, 4, 5, 6, 7, 0]","\","2500","3000","0","8","252.758751519","1024","2","48000","-16","main","[(0, -252), (178, -178), (252, 0), (178, 178), (0, 252), (-178, 178), (-252, 0), (-178, -178)]","[]","18","even","6","146012","257500","257500","83331","82324","1775","89120","89120","1775","1775","87344","307359","1774","257500","306859","306124","306124","NA","729","study_X","0","4013","1","yes","1680"
"undefined","undefined","4013","4013","black","no","legacy","legacy","legacy","0","red","(179, 0, 0)","shape","present","highProb","circular","swap","swap","swap","swap","red","(179, 0, 0)","lowProb","lowProb4","rectangular","uniform","1","undefined","0.130208333333","1","1","93.7552083333","1","25","18001","0","0","0","0","0","0","0","0","49","0","1","0.130208333333","93.7552083333","25","18001","49","49","49","08/23/17 14:00:27","Default description","yes","<openexp._canvas.legacy.legacy object at 0x048327F0>","<openexp._canvas.legacy.legacy object at 0x0483D7B0>","<openexp._canvas.legacy.legacy object at 0x0482A410>","<openexp._canvas.legacy.legacy object at 0x049209D0>","<openexp._canvas.legacy.legacy object at 0x048F14B0>","<openexp._canvas.legacy.legacy object at 0x04839DD0>","<openexp._canvas.legacy.legacy object at 0x048F2A50>","75","IndividualPriorityWithDis_v1.osexp","C:/Userdata/Michel/SpatialProb/IndividualPriorityMaps/Experiment2","no","mono","no","18","no","white","no","yes","0.09","98","1050","legacy","315","24","24","1","C:/Userdata/Michel/SpatialProb/IndividualPriorityMaps/Experiment2/data/subject-18.csv","legacy","9","192","25","Jazzy James","3.1.3","yes","598477b2b83f69022949e7e9","47","red","circular","red","rectangular","0","/","613","space","4013","4013","(80, 80, 80)","(0, 122, 0)","(179, 0, 0)","(155, 155, 155)","2","legacy","experiment","[1, 2, 3, 4, 5, 6, 7, 0]","/","2500","3000","0","8","252.758751519","1024","2","48000","-16","main","[(0, -252), (178, -178), (252, 0), (178, 178), (0, 252), (-178, 178), (-252, 0), (-178, -178)]","[]","18","even","6","146012","257500","257500","83331","82324","1775","89120","89120","1775","1775","87344","309103","1774","257500","308487","307752","307753","NA","729","study_X","0","4013","1","yes","1680"
"undefined","undefined","4013","4013","black","no","legacy","legacy","legacy","0","green","(0, 122, 0)","color","present","highProb","rectangular","swap","swap","same","same","red","(179, 0, 0)","lowProb","lowProb5","rectangular","uniform","1","undefined","0.135416666667","1","1","96.875","1","26","18600","0","0","0","0","0","0","0","0","50","0","1","0.135416666667","96.875","26","18600","50","50","50","08/23/17 14:00:27","Default description","yes","<openexp._canvas.legacy.legacy object at 0x048327F0>","<openexp._canvas.legacy.legacy object at 0x0483D7B0>","<openexp._canvas.legacy.legacy object at 0x0482A410>","<openexp._canvas.legacy.legacy object at 0x049209D0>","<openexp._canvas.legacy.legacy object at 0x048F14B0>","<openexp._canvas.legacy.legacy object at 0x049207D0>","<openexp._canvas.legacy.legacy object at 0x048F2A50>","75","IndividualPriorityWithDis_v1.osexp","C:/Userdata/Michel/SpatialProb/IndividualPriorityMaps/Experiment2","no","mono","no","18","no","white","no","yes","0.09","98","1050","legacy","45","25","25","1","C:/Userdata/Michel/SpatialProb/IndividualPriorityMaps/Experiment2/data/subject-18.csv","legacy","9","192","25","Jazzy James","3.1.3","yes","598477b2b83f69022949e7e9","47","green","rectangular","red","rectangular","0","\","599","space","4013","4013","(80, 80, 80)","(0, 122, 0)","(179, 0, 0)","(155, 155, 155)","2","legacy","experiment","[1, 2, 3, 4, 5, 6, 7, 0]","\","2500","3000","0","8","252.758751519","1024","2","48000","-16","main","[(0, -252), (178, -178), (252, 0), (178, 178), (0, 252), (-178, 178), (-252, 0), (-178, -178)]","[]","18","even","7","146012","257500","257500","83331","82324","1775","89120","89120","1775","1775","87344","310839","1774","257500","310237","309503","309503","NA","729","study_X","0","4013","1","yes","1680"
"undefined","undefined","4013","4013","black","no","legacy","legacy","legacy","0","green","(0, 122, 0)","shape","present","highProb","circular","same","swap","swap","same","green","(0, 122, 0)","lowProb","lowProb2","rectangular","uniform","1","undefined","0.140625","1","1","99.7760416667","1","27","19157","0","0","0","0","0","0","0","0","51","0","1","0.140625","99.7760416667","27","19157","51","51","51","08/23/17 14:00:27","Default description","yes","<openexp._canvas.legacy.legacy object at 0x048327F0>","<openexp._canvas.legacy.legacy object at 0x0483D7B0>","<openexp._canvas.legacy.legacy object at 0x0482A410>","<openexp._canvas.legacy.legacy object at 0x049209D0>","<openexp._canvas.legacy.legacy object at 0x048F14B0>","<openexp._canvas.legacy.legacy object at 0x0482EA30>","<openexp._canvas.legacy.legacy object at 0x048F2A50>","75","IndividualPriorityWithDis_v1.osexp","C:/Userdata/Michel/SpatialProb/IndividualPriorityMaps/Experiment2","no","mono","no","18","no","white","no","yes","0.09","98","1050","legacy","315","26","26","1","C:/Userdata/Michel/SpatialProb/IndividualPriorityMaps/Experiment2/data/subject-18.csv","legacy","9","192","25","Jazzy James","3.1.3","yes","598477b2b83f69022949e7e9","47","green","circular","green","rectangular","0","/","557","space","4013","4013","(80, 80, 80)","(0, 122, 0)","(179, 0, 0)","(155, 155, 155)","2","legacy","experiment","[1, 2, 3, 4, 5, 6, 7, 0]","/","2500","3000","0","8","252.758751519","1024","2","48000","-16","main","[(0, -252), (178, -178), (252, 0), (178, 178), (0, 252), (-178, 178), (-252, 0), (-178, -178)]","[]","18","even","3","146012","257500","257500","83331","82324","1775","89120","89120","1775","1775","87344","312535","1774","257500","311975","311240","311240","NA","729","study_X","0","4013","1","yes","1680"
"undefined","undefined","4013","4013","black","no","legacy","legacy","legacy","0","green","(0, 122, 0)","shape","present","highProb","rectangular","same","swap","same","swap","green","(0, 122, 0)","highProbColor","highProbColor","circular","uniform","1","undefined","0.145833333333","1","1","102.921875","1","28","19761","0","0","0","0","0","0","0","0","52","0","1","0.145833333333","102.921875","28","19761","52","52","52","08/23/17 14:00:27","Default description","yes","<openexp._canvas.legacy.legacy object at 0x048327F0>","<openexp._canvas.legacy.legacy object at 0x0483D7B0>","<openexp._canvas.legacy.legacy object at 0x0482A410>","<openexp._canvas.legacy.legacy object at 0x049209D0>","<openexp._canvas.legacy.legacy object at 0x048F14B0>","<openexp._canvas.legacy.legacy object at 0x04920850>","<openexp._canvas.legacy.legacy object at 0x048F2A50>","75","IndividualPriorityWithDis_v1.osexp","C:/Userdata/Michel/SpatialProb/IndividualPriorityMaps/Experiment2","no","mono","no","18","no","white","no","yes","0.09","98","1050","legacy","45","27","27","1","C:/Userdata/Michel/SpatialProb/IndividualPriorityMaps/Experiment2/data/subject-18.csv","legacy","9","192","25","Jazzy James","3.1.3","yes","598477b2b83f69022949e7e9","47","green","rectangular","green","circular","0","\","604","space","4013","4013","(80, 80, 80)","(0, 122, 0)","(179, 0, 0)","(155, 155, 155)","2","legacy","experiment","[1, 2, 3, 4, 5, 6, 7, 0]","\","2500","3000","0","8","252.758751519","1024","2","48000","-16","main","[(0, -252), (178, -178), (252, 0), (178, 178), (0, 252), (-178, 178), (-252, 0), (-178, -178)]","[]","18","even","1","146012","257500","257500","83331","82324","1775","89120","89120","1775","1775","87344","314359","1774","257500","313752","313017","313017","NA","729","study_X","0","4013","1","yes","1680"
"undefined","undefined","4013","4013","black","no","legacy","legacy","legacy","0","red","(179, 0, 0)","shape","absent","lowProb4","rectangular","swap","same","swap","swap","red","(179, 0, 0)","lowProb","lowProb5","rectangular","uniform","1","undefined","0.151041666667","1","1","110.411458333","1","29","21199","0","0","0","0","0","0","0","0","53","0","1","0.151041666667","110.411458333","29","21199","53","53","53","08/23/17 14:00:27","Default description","yes","<openexp._canvas.legacy.legacy object at 0x048327F0>","<openexp._canvas.legacy.legacy object at 0x0483D7B0>","<openexp._canvas.legacy.legacy object at 0x0482A410>","<openexp._canvas.legacy.legacy object at 0x049209D0>","<openexp._canvas.legacy.legacy object at 0x048F14B0>","<openexp._canvas.legacy.legacy object at 0x04921BB0>","<openexp._canvas.legacy.legacy object at 0x048F2A50>","75","IndividualPriorityWithDis_v1.osexp","C:/Userdata/Michel/SpatialProb/IndividualPriorityMaps/Experiment2","no","mono","no","18","no","white","no","yes","0.09","98","1050","legacy","315","28","28","1","C:/Userdata/Michel/SpatialProb/IndividualPriorityMaps/Experiment2/data/subject-18.csv","legacy","9","192","25","Jazzy James","3.1.3","yes","598477b2b83f69022949e7e9","47","red","rectangular","red","rectangular","0","/","1438","space","4013","4013","(80, 80, 80)","(0, 122, 0)","(179, 0, 0)","(155, 155, 155)","2","legacy","experiment","[1, 2, 3, 4, 5, 6, 7, 0]","/","2500","3000","0","8","252.758751519","1024","2","48000","-16","main","[(0, -252), (178, -178), (252, 0), (178, 178), (0, 252), (-178, 178), (-252, 0), (-178, -178)]","[]","18","even","7","146012","257500","257500","83331","82324","1775","89120","89120","1775","1775","87344","316935","1774","257500","315493","314758","314758","NA","729","study_X","0","4013","1","yes","1680"
"undefined","undefined","4013","4013","black","no","legacy","legacy","legacy","0","red","(179, 0, 0)","shape","present","highProb","rectangular","same","same","same","swap","red","(179, 0, 0)","lowProb","lowProb6","circular","uniform","1","undefined","0.15625","1","1","113.645833333","1","30","21820","0","0","0","0","0","0","0","0","54","0","1","0.15625","113.645833333","30","21820","54","54","54","08/23/17 14:00:27","Default description","yes","<openexp._canvas.legacy.legacy object at 0x048327F0>","<openexp._canvas.legacy.legacy object at 0x0483D7B0>","<openexp._canvas.legacy.legacy object at 0x0482A410>","<openexp._canvas.legacy.legacy object at 0x049209D0>","<openexp._canvas.legacy.legacy object at 0x048F14B0>","<openexp._canvas.legacy.legacy object at 0x0482FF30>","<openexp._canvas.legacy.legacy object at 0x048F2A50>","75","IndividualPriorityWithDis_v1.osexp","C:/Userdata/Michel/SpatialProb/IndividualPriorityMaps/Experiment2","no","mono","no","18","no","white","no","yes","0.09","98","1050","legacy","45","29","29","1","C:/Userdata/Michel/SpatialProb/IndividualPriorityMaps/Experiment2/data/subject-18.csv","legacy","9","192","25","Jazzy James","3.1.3","yes","598477b2b83f69022949e7e9","47","red","rectangular","red","circular","0","\","621","space","4013","4013","(80, 80, 80)","(0, 122, 0)","(179, 0, 0)","(155, 155, 155)","2","legacy","experiment","[1, 2, 3, 4, 5, 6, 7, 0]","\","2500","3000","0","8","252.758751519","1024","2","48000","-16","main","[(0, -252), (178, -178), (252, 0), (178, 178), (0, 252), (-178, 178), (-252, 0), (-178, -178)]","[]","18","even","0","146012","257500","257500","83331","82324","1775","89120","89120","1775","1775","87344","318712","1774","257500","318087","317352","317352","NA","729","study_X","0","4013","1","yes","1680"
"undefined","undefined","4013","4013","black","no","legacy","legacy","legacy","0","green","(0, 122, 0)","shape","present","lowProb3","circular","swap","swap","swap","swap","green","(0, 122, 0)","lowProb","lowProb6","rectangular","uniform","1","undefined","0.161458333333","1","1","116.609375","1","31","22389","0","0","0","0","0","0","0","0","55","0","1","0.161458333333","116.609375","31","22389","55","55","55","08/23/17 14:00:27","Default description","yes","<openexp._canvas.legacy.legacy object at 0x048327F0>","<openexp._canvas.legacy.legacy object at 0x0483D7B0>","<openexp._canvas.legacy.legacy object at 0x0482A410>","<openexp._canvas.legacy.legacy object at 0x049209D0>","<openexp._canvas.legacy.legacy object at 0x048F14B0>","<openexp._canvas.legacy.legacy object at 0x0482A9B0>","<openexp._canvas.legacy.legacy object at 0x048F2A50>","75","IndividualPriorityWithDis_v1.osexp","C:/Userdata/Michel/SpatialProb/IndividualPriorityMaps/Experiment2","no","mono","no","18","no","white","no","yes","0.09","98","1050","legacy","315","30","30","1","C:/Userdata/Michel/SpatialProb/IndividualPriorityMaps/Experiment2/data/subject-18.csv","legacy","9","192","25","Jazzy James","3.1.3","yes","598477b2b83f69022949e7e9","47","green","circular","green","rectangular","0","/","569","space","4013","4013","(80, 80, 80)","(0, 122, 0)","(179, 0, 0)","(155, 155, 155)","2","legacy","experiment","[1, 2, 3, 4, 5, 6, 7, 0]","/","2500","3000","0","8","252.758751519","1024","2","48000","-16","main","[(0, -252), (178, -178), (252, 0), (178, 178), (0, 252), (-178, 178), (-252, 0), (-178, -178)]","[]","18","even","0","146012","257500","257500","83331","82324","1775","89120","89120","1775","1775","87344","320424","1774","257500","319851","319116","319116","NA","729","study_X","0","4013","1","yes","1680"
"undefined","undefined","4013","4013","black","no","legacy","legacy","legacy","0","green","(0, 122, 0)","color","present","lowProb3","circular","same","same","swap","swap","red","(179, 0, 0)","lowProb","lowProb6","circular","uniform","1","undefined","0.166666666667","1","1","120.291666667","1","32","23096","0","0","0","0","0","0","0","0","56","0","1","0.166666666667","120.291666667","32","23096","56","56","56","08/23/17 14:00:27","Default description","yes","<openexp._canvas.legacy.legacy object at 0x048327F0>","<openexp._canvas.legacy.legacy object at 0x0483D7B0>","<openexp._canvas.legacy.legacy object at 0x0482A410>","<openexp._canvas.legacy.legacy object at 0x049209D0>","<openexp._canvas.legacy.legacy object at 0x048F14B0>","<openexp._canvas.legacy.legacy object at 0x04842370>","<openexp._canvas.legacy.legacy object at 0x048F2A50>","75","IndividualPriorityWithDis_v1.osexp","C:/Userdata/Michel/SpatialProb/IndividualPriorityMaps/Experiment2","no","mono","no","18","no","white","no","yes","0.09","98","1050","legacy","315","31","31","1","C:/Userdata/Michel/SpatialProb/IndividualPriorityMaps/Experiment2/data/subject-18.csv","legacy","9","192","25","Jazzy James","3.1.3","yes","598477b2b83f69022949e7e9","47","green","circular","red","circular","0","/","707","space","4013","4013","(80, 80, 80)","(0, 122, 0)","(179, 0, 0)","(155, 155, 155)","2","legacy","experiment","[1, 2, 3, 4, 5, 6, 7, 0]","/","2500","3000","0","8","252.758751519","1024","2","48000","-16","main","[(0, -252), (178, -178), (252, 0), (178, 178), (0, 252), (-178, 178), (-252, 0), (-178, -178)]","[]","18","even","0","146012","257500","257500","83331","82324","1775","89120","89120","1775","1775","87344","322279","1774","257500","321569","320834","320834","NA","729","study_X","0","4013","1","yes","1680"
"undefined","undefined","4013","4013","black","no","legacy","legacy","legacy","0","red","(179, 0, 0)","color","present","highProb","rectangular","swap","swap","swap","swap","green","(0, 122, 0)","lowProb","lowProb6","rectangular","uniform","1","undefined","0.171875","1","1","123.59375","1","33","23730","0","0","0","0","0","0","0","0","57","0","1","0.171875","123.59375","33","23730","57","57","57","08/23/17 14:00:27","Default description","yes","<openexp._canvas.legacy.legacy object at 0x048327F0>","<openexp._canvas.legacy.legacy object at 0x0483D7B0>","<openexp._canvas.legacy.legacy object at 0x0482A410>","<openexp._canvas.legacy.legacy object at 0x049209D0>","<openexp._canvas.legacy.legacy object at 0x048F14B0>","<openexp._canvas.legacy.legacy object at 0x04842290>","<openexp._canvas.legacy.legacy object at 0x048F2A50>","75","IndividualPriorityWithDis_v1.osexp","C:/Userdata/Michel/SpatialProb/IndividualPriorityMaps/Experiment2","no","mono","no","18","no","white","no","yes","0.09","98","1050","legacy","315","32","32","1","C:/Userdata/Michel/SpatialProb/IndividualPriorityMaps/Experiment2/data/subject-18.csv","legacy","9","192","25","Jazzy James","3.1.3","yes","598477b2b83f69022949e7e9","47","red","rectangular","green","rectangular","0","/","634","space","4013","4013","(80, 80, 80)","(0, 122, 0)","(179, 0, 0)","(155, 155, 155)","2","legacy","experiment","[1, 2, 3, 4, 5, 6, 7, 0]","/","2500","3000","0","8","252.758751519","1024","2","48000","-16","main","[(0, -252), (178, -178), (252, 0), (178, 178), (0, 252), (-178, 178), (-252, 0), (-178, -178)]","[]","18","even","0","146012","257500","257500","83331","82324","1775","89120","89120","1775","1775","87344","324047","1774","257500","323410","322676","322676","NA","729","study_X","0","4013","1","yes","1680"
"undefined","undefined","4013","4013","black","no","legacy","legacy","legacy","0","green","(0, 122, 0)","shape","present","highProb","circular","swap","swap","same","same","green","(0, 122, 0)","lowProb","lowProb1","rectangular","uniform","1","undefined","0.177083333333","1","1","126.583333333","1","34","24304","0","0","0","0","0","0","0","0","58","0","1","0.177083333333","126.583333333","34","24304","58","58","58","08/23/17 14:00:27","Default description","yes","<openexp._canvas.legacy.legacy object at 0x048327F0>","<openexp._canvas.legacy.legacy object at 0x0483D7B0>","<openexp._canvas.legacy.legacy object at 0x0482A410>","<openexp._canvas.legacy.legacy object at 0x049209D0>","<openexp._canvas.legacy.legacy object at 0x048F14B0>","<openexp._canvas.legacy.legacy object at 0x0482EBB0>","<openexp._canvas.legacy.legacy object at 0x048F2A50>","75","IndividualPriorityWithDis_v1.osexp","C:/Userdata/Michel/SpatialProb/IndividualPriorityMaps/Experiment2","no","mono","no","18","no","white","no","yes","0.09","98","1050","legacy","45","33","33","1","C:/Userdata/Michel/SpatialProb/IndividualPriorityMaps/Experiment2/data/subject-18.csv","legacy","9","192","25","Jazzy James","3.1.3","yes","598477b2b83f69022949e7e9","47","green","circular","green","rectangular","0","\","574","space","4013","4013","(80, 80, 80)","(0, 122, 0)","(179, 0, 0)","(155, 155, 155)","2","legacy","experiment","[1, 2, 3, 4, 5, 6, 7, 0]","\","2500","3000","0","8","252.758751519","1024","2","48000","-16","main","[(0, -252), (178, -178), (252, 0), (178, 178), (0, 252), (-178, 178), (-252, 0), (-178, -178)]","[]","18","even","2","146012","257500","257500","83331","82324","1775","89120","89120","1775","1775","87344","325759","1774","257500","325182","324447","324447","NA","729","study_X","0","4013","1","yes","1680"
"undefined","undefined","4013","4013","black","no","legacy","legacy","legacy","0","red","(179, 0, 0)","shape","present","highProb","rectangular","swap","swap","swap","swap","red","(179, 0, 0)","lowProb","lowProb4","circular","uniform","1","undefined","0.182291666667","1","1","129.213541667","1","35","24809","0","0","0","0","0","0","0","0","59","0","1","0.182291666667","129.213541667","35","24809","59","59","59","08/23/17 14:00:27","Default description","yes","<openexp._canvas.legacy.legacy object at 0x048327F0>","<openexp._canvas.legacy.legacy object at 0x0483D7B0>","<openexp._canvas.legacy.legacy object at 0x0482A410>","<openexp._canvas.legacy.legacy object at 0x049209D0>","<openexp._canvas.legacy.legacy object at 0x048F14B0>","<openexp._canvas.legacy.legacy object at 0x0483D950>","<openexp._canvas.legacy.legacy object at 0x048F2A50>","75","IndividualPriorityWithDis_v1.osexp","C:/Userdata/Michel/SpatialProb/IndividualPriorityMaps/Experiment2","no","mono","no","18","no","white","no","yes","0.09","98","1050","legacy","45","34","34","1","C:/Userdata/Michel/SpatialProb/IndividualPriorityMaps/Experiment2/data/subject-18.csv","legacy","9","192","25","Jazzy James","3.1.3","yes","598477b2b83f69022949e7e9","47","red","rectangular","red","circular","0","\","505","space","4013","4013","(80, 80, 80)","(0, 122, 0)","(179, 0, 0)","(155, 155, 155)","2","legacy","experiment","[1, 2, 3, 4, 5, 6, 7, 0]","\","2500","3000","0","8","252.758751519","1024","2","48000","-16","main","[(0, -252), (178, -178), (252, 0), (178, 178), (0, 252), (-178, 178), (-252, 0), (-178, -178)]","[]","18","even","6","146012","257500","257500","83331","82324","1775","89120","89120","1775","1775","87344","327415","1774","257500","326907","326172","326172","NA","729","study_X","0","4013","1","yes","1680"
"undefined","undefined","4013","4013","black","no","legacy","legacy","legacy","0","red","(179, 0, 0)","color","absent","lowProb4","circular","same","swap","same","same","red","(179, 0, 0)","lowProb","lowProb6","circular","uniform","1","undefined","0.1875","1","1","131.796875","1","36","25305","0","0","0","0","0","0","0","0","60","0","1","0.1875","131.796875","36","25305","60","60","60","08/23/17 14:00:27","Default description","yes","<openexp._canvas.legacy.legacy object at 0x048327F0>","<openexp._canvas.legacy.legacy object at 0x0483D7B0>","<openexp._canvas.legacy.legacy object at 0x0482A410>","<openexp._canvas.legacy.legacy object at 0x049209D0>","<openexp._canvas.legacy.legacy object at 0x048F14B0>","<openexp._canvas.legacy.legacy object at 0x048328B0>","<openexp._canvas.legacy.legacy object at 0x048F2A50>","75","IndividualPriorityWithDis_v1.osexp","C:/Userdata/Michel/SpatialProb/IndividualPriorityMaps/Experiment2","no","mono","no","18","no","white","no","yes","0.09","98","1050","legacy","315","35","35","1","C:/Userdata/Michel/SpatialProb/IndividualPriorityMaps/Experiment2/data/subject-18.csv","legacy","9","192","25","Jazzy James","3.1.3","yes","598477b2b83f69022949e7e9","47","red","circular","red","circular","0","/","496","space","4013","4013","(80, 80, 80)","(0, 122, 0)","(179, 0, 0)","(155, 155, 155)","2","legacy","experiment","[1, 2, 3, 4, 5, 6, 7, 0]","/","2500","3000","0","8","252.758751519","1024","2","48000","-16","main","[(0, -252), (178, -178), (252, 0), (178, 178), (0, 252), (-178, 178), (-252, 0), (-178, -178)]","[]","18","even","0","146012","257500","257500","83331","82324","1775","89120","89120","1775","1775","87344","329055","1774","257500","328556","327821","327821","NA","729","study_X","0","4013","1","yes","1680"
"undefined","undefined","4013","4013","black","no","legacy","legacy","legacy","0","red","(179, 0, 0)","color","present","lowProb1","circular","same","same","swap","same","green","(0, 122, 0)","lowProb","lowProb5","circular","uniform","1","undefined","0.192708333333","1","1","134.697916667","1","37","25862","0","0","0","0","0","0","0","0","61","0","1","0.192708333333","134.697916667","37","25862","61","61","61","08/23/17 14:00:27","Default description","yes","<openexp._canvas.legacy.legacy object at 0x048327F0>","<openexp._canvas.legacy.legacy object at 0x0483D7B0>","<openexp._canvas.legacy.legacy object at 0x0482A410>","<openexp._canvas.legacy.legacy object at 0x049209D0>","<openexp._canvas.legacy.legacy object at 0x048F14B0>","<openexp._canvas.legacy.legacy object at 0x0482EFF0>","<openexp._canvas.legacy.legacy object at 0x048F2A50>","75","IndividualPriorityWithDis_v1.osexp","C:/Userdata/Michel/SpatialProb/IndividualPriorityMaps/Experiment2","no","mono","no","18","no","white","no","yes","0.09","98","1050","legacy","45","36","36","1","C:/Userdata/Michel/SpatialProb/IndividualPriorityMaps/Experiment2/data/subject-18.csv","legacy","9","192","25","Jazzy James","3.1.3","yes","598477b2b83f69022949e7e9","47","red","circular","green","circular","0","\","557","space","4013","4013","(80, 80, 80)","(0, 122, 0)","(179, 0, 0)","(155, 155, 155)","2","legacy","experiment","[1, 2, 3, 4, 5, 6, 7, 0]","\","2500","3000","0","8","252.758751519","1024","2","48000","-16","main","[(0, -252), (178, -178), (252, 0), (178, 178), (0, 252), (-178, 178), (-252, 0), (-178, -178)]","[]","18","even","7","146012","257500","257500","83331","82324","1775","89120","89120","1775","1775","87344","330767","1774","257500","330206","329471","329471","NA","729","study_X","0","4013","1","yes","1680"
"undefined","undefined","4013","4013","black","no","legacy","legacy","legacy","0","red","(179, 0, 0)","shape","present","lowProb5","circular","same","same","swap","swap","red","(179, 0, 0)","highProbColor","highProbColor","rectangular","uniform","1","undefined","0.197916666667","1","1","137.78125","1","38","26454","0","0","0","0","0","0","0","0","62","0","1","0.197916666667","137.78125","38","26454","62","62","62","08/23/17 14:00:27","Default description","yes","<openexp._canvas.legacy.legacy object at 0x048327F0>","<openexp._canvas.legacy.legacy object at 0x0483D7B0>","<openexp._canvas.legacy.legacy object at 0x0482A410>","<openexp._canvas.legacy.legacy object at 0x049209D0>","<openexp._canvas.legacy.legacy object at 0x048F14B0>","<openexp._canvas.legacy.legacy object at 0x048495F0>","<openexp._canvas.legacy.legacy object at 0x048F2A50>","75","IndividualPriorityWithDis_v1.osexp","C:/Userdata/Michel/SpatialProb/IndividualPriorityMaps/Experiment2","no","mono","no","18","no","white","no","yes","0.09","98","1050","legacy","315","37","37","1","C:/Userdata/Michel/SpatialProb/IndividualPriorityMaps/Experiment2/data/subject-18.csv","legacy","9","192","25","Jazzy James","3.1.3","yes","598477b2b83f69022949e7e9","47","red","circular","red","rectangular","0","/","592","space","4013","4013","(80, 80, 80)","(0, 122, 0)","(179, 0, 0)","(155, 155, 155)","2","legacy","experiment","[1, 2, 3, 4, 5, 6, 7, 0]","/","2500","3000","0","8","252.758751519","1024","2","48000","-16","main","[(0, -252), (178, -178), (252, 0), (178, 178), (0, 252), (-178, 178), (-252, 0), (-178, -178)]","[]","18","even","1","146012","257500","257500","83331","82324","1775","89120","89120","1775","1775","87344","332503","1774","257500","331907","331172","331172","NA","729","study_X","0","4013","1","yes","1680"
"undefined","undefined","4013","4013","black","no","legacy","legacy","legacy","0","green","(0, 122, 0)","color","present","highProb","circular","swap","same","same","swap","red","(179, 0, 0)","lowProb","lowProb5","circular","uniform","1","undefined","0.203125","1","1","140.328125","1","39","26943","0","0","0","0","0","0","0","0","63","0","1","0.203125","140.328125","39","26943","63","63","63","08/23/17 14:00:27","Default description","yes","<openexp._canvas.legacy.legacy object at 0x048327F0>","<openexp._canvas.legacy.legacy object at 0x0483D7B0>","<openexp._canvas.legacy.legacy object at 0x0482A410>","<openexp._canvas.legacy.legacy object at 0x049209D0>","<openexp._canvas.legacy.legacy object at 0x048F14B0>","<openexp._canvas.legacy.legacy object at 0x04921D70>","<openexp._canvas.legacy.legacy object at 0x048F2A50>","75","IndividualPriorityWithDis_v1.osexp","C:/Userdata/Michel/SpatialProb/IndividualPriorityMaps/Experiment2","no","mono","no","18","no","white","no","yes","0.09","98","1050","legacy","45","38","38","1","C:/Userdata/Michel/SpatialProb/IndividualPriorityMaps/Experiment2/data/subject-18.csv","legacy","9","192","25","Jazzy James","3.1.3","yes","598477b2b83f69022949e7e9","47","green","circular","red","circular","0","\","489","space","4013","4013","(80, 80, 80)","(0, 122, 0)","(179, 0, 0)","(155, 155, 155)","2","legacy","experiment","[1, 2, 3, 4, 5, 6, 7, 0]","\","2500","3000","0","8","252.758751519","1024","2","48000","-16","main","[(0, -252), (178, -178), (252, 0), (178, 178), (0, 252), (-178, 178), (-252, 0), (-178, -178)]","[]","18","even","7","146012","257500","257500","83331","82324","1775","89120","89120","1775","1775","87344","334143","1774","257500","333650","332915","332915","NA","729","study_X","0","4013","1","yes","1680"
"undefined","undefined","4013","4013","black","no","legacy","legacy","legacy","0","red","(179, 0, 0)","shape","present","highProb","rectangular","swap","swap","same","same","red","(179, 0, 0)","lowProb","lowProb6","circular","uniform","1","undefined","0.208333333333","1","1","143.541666667","1","40","27560","0","0","0","0","0","0","0","0","64","0","1","0.208333333333","143.541666667","40","27560","64","64","64","08/23/17 14:00:27","Default description","yes","<openexp._canvas.legacy.legacy object at 0x048327F0>","<openexp._canvas.legacy.legacy object at 0x0483D7B0>","<openexp._canvas.legacy.legacy object at 0x0482A410>","<openexp._canvas.legacy.legacy object at 0x049209D0>","<openexp._canvas.legacy.legacy object at 0x048F14B0>","<openexp._canvas.legacy.legacy object at 0x048429F0>","<openexp._canvas.legacy.legacy object at 0x048F2A50>","75","IndividualPriorityWithDis_v1.osexp","C:/Userdata/Michel/SpatialProb/IndividualPriorityMaps/Experiment2","no","mono","no","18","no","white","no","yes","0.09","98","1050","legacy","45","39","39","1","C:/Userdata/Michel/SpatialProb/IndividualPriorityMaps/Experiment2/data/subject-18.csv","legacy","9","192","25","Jazzy James","3.1.3","yes","598477b2b83f69022949e7e9","47","red","rectangular","red","circular","0","\","617","space","4013","4013","(80, 80, 80)","(0, 122, 0)","(179, 0, 0)","(155, 155, 155)","2","legacy","experiment","[1, 2, 3, 4, 5, 6, 7, 0]","\","2500","3000","0","8","252.758751519","1024","2","48000","-16","main","[(0, -252), (178, -178), (252, 0), (178, 178), (0, 252), (-178, 178), (-252, 0), (-178, -178)]","[]","18","even","0","146012","257500","257500","83331","82324","1775","89120","89120","1775","1775","87344","335904","1774","257500","335284","334549","334549","NA","729","study_X","0","4013","1","yes","1680"
"undefined","undefined","4013","4013","black","no","legacy","legacy","legacy","0","red","(179, 0, 0)","shape","present","highProb","rectangular","same","same","same","same","red","(179, 0, 0)","lowProb","lowProb1","circular","uniform","1","undefined","0.213541666667","1","1","146.78125","1","41","28182","0","0","0","0","0","0","0","0","65","0","1","0.213541666667","146.78125","41","28182","65","65","65","08/23/17 14:00:27","Default description","yes","<openexp._canvas.legacy.legacy object at 0x048327F0>","<openexp._canvas.legacy.legacy object at 0x0483D7B0>","<openexp._canvas.legacy.legacy object at 0x0482A410>","<openexp._canvas.legacy.legacy object at 0x049209D0>","<openexp._canvas.legacy.legacy object at 0x048F14B0>","<openexp._canvas.legacy.legacy object at 0x04920990>","<openexp._canvas.legacy.legacy object at 0x048F2A50>","75","IndividualPriorityWithDis_v1.osexp","C:/Userdata/Michel/SpatialProb/IndividualPriorityMaps/Experiment2","no","mono","no","18","no","white","no","yes","0.09","98","1050","legacy","315","40","40","1","C:/Userdata/Michel/SpatialProb/IndividualPriorityMaps/Experiment2/data/subject-18.csv","legacy","9","192","25","Jazzy James","3.1.3","yes","598477b2b83f69022949e7e9","47","red","rectangular","red","circular","0","/","622","space","4013","4013","(80, 80, 80)","(0, 122, 0)","(179, 0, 0)","(155, 155, 155)","2","legacy","experiment","[1, 2, 3, 4, 5, 6, 7, 0]","/","2500","3000","0","8","252.758751519","1024","2","48000","-16","main","[(0, -252), (178, -178), (252, 0), (178, 178), (0, 252), (-178, 178), (-252, 0), (-178, -178)]","[]","18","even","2","146012","257500","257500","83331","82324","1775","89120","89120","1775","1775","87344","337671","1774","257500","337046","336311","336311","NA","729","study_X","0","4013","1","yes","1680"
"undefined","undefined","4013","4013","black","no","legacy","legacy","legacy","0","red","(179, 0, 0)","color","present","lowProb1","circular","same","swap","swap","same","green","(0, 122, 0)","lowProb","lowProb2","circular","uniform","1","undefined","0.21875","1","1","150.125","1","42","28824","0","0","0","0","0","0","0","0","66","0","1","0.21875","150.125","42","28824","66","66","66","08/23/17 14:00:27","Default description","yes","<openexp._canvas.legacy.legacy object at 0x048327F0>","<openexp._canvas.legacy.legacy object at 0x0483D7B0>","<openexp._canvas.legacy.legacy object at 0x0482A410>","<openexp._canvas.legacy.legacy object at 0x049209D0>","<openexp._canvas.legacy.legacy object at 0x048F14B0>","<openexp._canvas.legacy.legacy object at 0x04849590>","<openexp._canvas.legacy.legacy object at 0x048F2A50>","75","IndividualPriorityWithDis_v1.osexp","C:/Userdata/Michel/SpatialProb/IndividualPriorityMaps/Experiment2","no","mono","no","18","no","white","no","yes","0.09","98","1050","legacy","45","41","41","1","C:/Userdata/Michel/SpatialProb/IndividualPriorityMaps/Experiment2/data/subject-18.csv","legacy","9","192","25","Jazzy James","3.1.3","yes","598477b2b83f69022949e7e9","47","red","circular","green","circular","0","\","642","space","4013","4013","(80, 80, 80)","(0, 122, 0)","(179, 0, 0)","(155, 155, 155)","2","legacy","experiment","[1, 2, 3, 4, 5, 6, 7, 0]","\","2500","3000","0","8","252.758751519","1024","2","48000","-16","main","[(0, -252), (178, -178), (252, 0), (178, 178), (0, 252), (-178, 178), (-252, 0), (-178, -178)]","[]","18","even","3","146012","257500","257500","83331","82324","1775","89120","89120","1775","1775","87344","339463","1774","257500","338818","338083","338083","NA","729","study_X","0","4013","1","yes","1680"
"undefined","undefined","4013","4013","black","no","legacy","legacy","legacy","0","red","(179, 0, 0)","shape","present","highProb","circular","same","same","swap","swap","red","(179, 0, 0)","lowProb","lowProb5","rectangular","uniform","1","undefined","0.223958333333","1","1","152.71875","1","43","29322","0","0","0","0","0","0","0","0","67","0","1","0.223958333333","152.71875","43","29322","67","67","67","08/23/17 14:00:27","Default description","yes","<openexp._canvas.legacy.legacy object at 0x048327F0>","<openexp._canvas.legacy.legacy object at 0x0483D7B0>","<openexp._canvas.legacy.legacy object at 0x0482A410>","<openexp._canvas.legacy.legacy object at 0x049209D0>","<openexp._canvas.legacy.legacy object at 0x048F14B0>","<openexp._canvas.legacy.legacy object at 0x04921FF0>","<openexp._canvas.legacy.legacy object at 0x048F2A50>","75","IndividualPriorityWithDis_v1.osexp","C:/Userdata/Michel/SpatialProb/IndividualPriorityMaps/Experiment2","no","mono","no","18","no","white","no","yes","0.09","98","1050","legacy","45","42","42","1","C:/Userdata/Michel/SpatialProb/IndividualPriorityMaps/Experiment2/data/subject-18.csv","legacy","9","192","25","Jazzy James","3.1.3","yes","598477b2b83f69022949e7e9","47","red","circular","red","rectangular","0","\","498","space","4013","4013","(80, 80, 80)","(0, 122, 0)","(179, 0, 0)","(155, 155, 155)","2","legacy","experiment","[1, 2, 3, 4, 5, 6, 7, 0]","\","2500","3000","0","8","252.758751519","1024","2","48000","-16","main","[(0, -252), (178, -178), (252, 0), (178, 178), (0, 252), (-178, 178), (-252, 0), (-178, -178)]","[]","18","even","7","146012","257500","257500","83331","82324","1775","89120","89120","1775","1775","87344","341103","1774","257500","340602","339867","339867","NA","729","study_X","0","4013","1","yes","1680"
"undefined","undefined","4013","4013","black","no","legacy","legacy","legacy","0","red","(179, 0, 0)","color","present","highProb","rectangular","same","swap","swap","same","green","(0, 122, 0)","lowProb","lowProb2","rectangular","uniform","1","undefined","0.229166666667","1","1","155.583333333","1","44","29872","0","0","0","0","0","0","0","0","68","0","1","0.229166666667","155.583333333","44","29872","68","68","68","08/23/17 14:00:27","Default description","yes","<openexp._canvas.legacy.legacy object at 0x048327F0>","<openexp._canvas.legacy.legacy object at 0x0483D7B0>","<openexp._canvas.legacy.legacy object at 0x0482A410>","<openexp._canvas.legacy.legacy object at 0x049209D0>","<openexp._canvas.legacy.legacy object at 0x048F14B0>","<openexp._canvas.legacy.legacy object at 0x04842950>","<openexp._canvas.legacy.legacy object at 0x048F2A50>","75","IndividualPriorityWithDis_v1.osexp","C:/Userdata/Michel/SpatialProb/IndividualPriorityMaps/Experiment2","no","mono","no","18","no","white","no","yes","0.09","98","1050","legacy","315","43","43","1","C:/Userdata/Michel/SpatialProb/IndividualPriorityMaps/Experiment2/data/subject-18.csv","legacy","9","192","25","Jazzy James","3.1.3","yes","598477b2b83f69022949e7e9","47","red","rectangular","green","rectangular","0","/","550","space","4013","4013","(80, 80, 80)","(0, 122, 0)","(179, 0, 0)","(155, 155, 155)","2","legacy","experiment","[1, 2, 3, 4, 5, 6, 7, 0]","/","2500","3000","0","8","252.758751519","1024","2","48000","-16","main","[(0, -252), (178, -178), (252, 0), (178, 178), (0, 252), (-178, 178), (-252, 0), (-178, -178)]","[]","18","even","3","146012","257500","257500","83331","82324","1775","89120","89120","1775","1775","87344","342791","1774","257500","342238","341503","341504","NA","729","study_X","0","4013","1","yes","1680"
"undefined","undefined","4013","4013","black","no","legacy","legacy","legacy","0","green","(0, 122, 0)","shape","present","lowProb2","rectangular","swap","same","same","swap","green","(0, 122, 0)","lowProb","lowProb6","circular","uniform","1","undefined","0.234375","1","1","158.255208333","1","45","30385","0","0","0","0","0","0","0","0","69","0","1","0.234375","158.255208333","45","30385","69","69","69","08/23/17 14:00:27","Default description","yes","<openexp._canvas.legacy.legacy object at 0x048327F0>","<openexp._canvas.legacy.legacy object at 0x0483D7B0>","<openexp._canvas.legacy.legacy object at 0x0482A410>","<openexp._canvas.legacy.legacy object at 0x049209D0>","<openexp._canvas.legacy.legacy object at 0x048F14B0>","<openexp._canvas.legacy.legacy object at 0x04834E70>","<openexp._canvas.legacy.legacy object at 0x048F2A50>","75","IndividualPriorityWithDis_v1.osexp","C:/Userdata/Michel/SpatialProb/IndividualPriorityMaps/Experiment2","no","mono","no","18","no","white","no","yes","0.09","98","1050","legacy","315","44","44","1","C:/Userdata/Michel/SpatialProb/IndividualPriorityMaps/Experiment2/data/subject-18.csv","legacy","9","192","25","Jazzy James","3.1.3","yes","598477b2b83f69022949e7e9","47","green","rectangular","green","circular","0","/","513","space","4013","4013","(80, 80, 80)","(0, 122, 0)","(179, 0, 0)","(155, 155, 155)","2","legacy","experiment","[1, 2, 3, 4, 5, 6, 7, 0]","/","2500","3000","0","8","252.758751519","1024","2","48000","-16","main","[(0, -252), (178, -178), (252, 0), (178, 178), (0, 252), (-178, 178), (-252, 0), (-178, -178)]","[]","18","even","0","146012","257500","257500","83331","82324","1775","89120","89120","1775","1775","87344","344455","1774","257500","343939","343205","343205","NA","729","study_X","0","4013","1","yes","1680"
"undefined","undefined","4013","4013","black","no","legacy","legacy","legacy","0","red","(179, 0, 0)","color","absent","lowProb5","circular","swap","swap","swap","same","red","(179, 0, 0)","lowProb","lowProb5","circular","uniform","0","undefined","0.234375","1","1","161.697916667","1","45","31046","0","0","0","0","0","0","0","0","70","0","1","0.234375","161.697916667","45","31046","70","70","70","08/23/17 14:00:27","Default description","yes","<openexp._canvas.legacy.legacy object at 0x048327F0>","<openexp._canvas.legacy.legacy object at 0x0483D7B0>","<openexp._canvas.legacy.legacy object at 0x0482A410>","<openexp._canvas.legacy.legacy object at 0x049209D0>","<openexp._canvas.legacy.legacy object at 0x048F14B0>","<openexp._canvas.legacy.legacy object at 0x04920910>","<openexp._canvas.legacy.legacy object at 0x048F2A50>","75","IndividualPriorityWithDis_v1.osexp","C:/Userdata/Michel/SpatialProb/IndividualPriorityMaps/Experiment2","no","mono","no","18","no","white","no","yes","0.09","98","1050","legacy","315","45","45","1","C:/Userdata/Michel/SpatialProb/IndividualPriorityMaps/Experiment2/data/subject-18.csv","legacy","9","192","25","Jazzy James","3.1.3","yes","598477b2b83f69022949e7e9","47","red","circular","red","circular","0","\","661","space","4013","4013","(80, 80, 80)","(0, 122, 0)","(179, 0, 0)","(155, 155, 155)","2","legacy","experiment","[1, 2, 3, 4, 5, 6, 7, 0]","/","2500","3000","0","8","252.758751519","1024","2","48000","-16","main","[(0, -252), (178, -178), (252, 0), (178, 178), (0, 252), (-178, 178), (-252, 0), (-178, -178)]","[]","18","even","7","146012","257500","257500","83331","82324","1775","89120","89120","1775","1775","87344","346263","1774","257500","345598","344864","344864","NA","729","study_X","0","4013","1","yes","1680"
"undefined","undefined","4013","4013","black","no","legacy","legacy","legacy","0","red","(179, 0, 0)","shape","absent","highProbOther","circular","same","same","same","same","red","(179, 0, 0)","lowProb","lowProb1","circular","uniform","1","undefined","0.239583333333","1","1","165.046875","1","46","31689","0","0","0","0","0","0","0","0","71","0","1","0.239583333333","165.046875","46","31689","71","71","71","08/23/17 14:00:27","Default description","yes","<openexp._canvas.legacy.legacy object at 0x048327F0>","<openexp._canvas.legacy.legacy object at 0x0483D7B0>","<openexp._canvas.legacy.legacy object at 0x0482A410>","<openexp._canvas.legacy.legacy object at 0x049209D0>","<openexp._canvas.legacy.legacy object at 0x048F14B0>","<openexp._canvas.legacy.legacy object at 0x0482E3B0>","<openexp._canvas.legacy.legacy object at 0x048F2A50>","75","IndividualPriorityWithDis_v1.osexp","C:/Userdata/Michel/SpatialProb/IndividualPriorityMaps/Experiment2","no","mono","no","18","no","white","no","yes","0.09","98","1050","legacy","45","46","46","1","C:/Userdata/Michel/SpatialProb/IndividualPriorityMaps/Experiment2/data/subject-18.csv","legacy","9","192","25","Jazzy James","3.1.3","yes","598477b2b83f69022949e7e9","47","red","circular","red","circular","0","\","643","space","4013","4013","(80, 80, 80)","(0, 122, 0)","(179, 0, 0)","(155, 155, 155)","2","legacy","experiment","[1, 2, 3, 4, 5, 6, 7, 0]","\","2500","3000","0","8","252.758751519","1024","2","48000","-16","main","[(0, -252), (178, -178), (252, 0), (178, 178), (0, 252), (-178, 178), (-252, 0), (-178, -178)]","[]","18","even","2","146012","257500","257500","83331","82324","1775","89120","89120","1775","1775","87344","348047","1774","257500","347400","346665","346665","NA","729","study_X","0","4013","1","yes","1680"
"undefined","undefined","4013","4013","black","no","legacy","legacy","legacy","0","green","(0, 122, 0)","shape","present","highProb","rectangular","swap","swap","swap","same","green","(0, 122, 0)","lowProb","lowProb1","circular","uniform","1","undefined","0.244791666667","1","1","167.59375","1","47","32178","0","0","0","0","0","0","0","0","72","0","1","0.244791666667","167.59375","47","32178","72","72","72","08/23/17 14:00:27","Default description","yes","<openexp._canvas.legacy.legacy object at 0x048327F0>","<openexp._canvas.legacy.legacy object at 0x0483D7B0>","<openexp._canvas.legacy.legacy object at 0x0482A410>","<openexp._canvas.legacy.legacy object at 0x049209D0>","<openexp._canvas.legacy.legacy object at 0x048F14B0>","<openexp._canvas.legacy.legacy object at 0x04839D30>","<openexp._canvas.legacy.legacy object at 0x048F2A50>","75","IndividualPriorityWithDis_v1.osexp","C:/Userdata/Michel/SpatialProb/IndividualPriorityMaps/Experiment2","no","mono","no","18","no","white","no","yes","0.09","98","1050","legacy","315","47","47","1","C:/Userdata/Michel/SpatialProb/IndividualPriorityMaps/Experiment2/data/subject-18.csv","legacy","9","192","25","Jazzy James","3.1.3","yes","598477b2b83f69022949e7e9","47","green","rectangular","green","circular","0","/","489","space","4013","4013","(80, 80, 80)","(0, 122, 0)","(179, 0, 0)","(155, 155, 155)","2","legacy","experiment","[1, 2, 3, 4, 5, 6, 7, 0]","/","2500","3000","0","8","252.758751519","1024","2","48000","-16","main","[(0, -252), (178, -178), (252, 0), (178, 178), (0, 252), (-178, 178), (-252, 0), (-178, -178)]","[]","18","even","2","146012","257500","257500","83331","82324","1775","89120","89120","1775","1775","87344","349679","1774","257500","349186","348451","348451","NA","729","study_X","0","4013","1","yes","1680"
"undefined","undefined","4013","4013","black","no","legacy","legacy","legacy","0","red","(179, 0, 0)","color","absent","lowProb2","circular","swap","swap","swap","same","red","(179, 0, 0)","lowProb","lowProb5","circular","uniform","1","undefined","0.25","1","1","172.65625","1","48","33150","0","0","0","0","0","0","0","0","73","0","1","0.25","172.65625","48","33150","73","73","73","08/23/17 14:00:27","Default description","yes","<openexp._canvas.legacy.legacy object at 0x048327F0>","<openexp._canvas.legacy.legacy object at 0x0483D7B0>","<openexp._canvas.legacy.legacy object at 0x0482A410>","<openexp._canvas.legacy.legacy object at 0x049209D0>","<openexp._canvas.legacy.legacy object at 0x048F14B0>","<openexp._canvas.legacy.legacy object at 0x04844B30>","<openexp._canvas.legacy.legacy object at 0x048F2A50>","75","IndividualPriorityWithDis_v1.osexp","C:/Userdata/Michel/SpatialProb/IndividualPriorityMaps/Experiment2","no","mono","no","18","no","white","no","yes","0.09","98","1050","legacy","45","48","48","1","C:/Userdata/Michel/SpatialProb/IndividualPriorityMaps/Experiment2/data/subject-18.csv","legacy","9","192","25","Jazzy James","3.1.3","yes","598477b2b83f69022949e7e9","47","red","circular","red","circular","0","\","972","space","4013","4013","(80, 80, 80)","(0, 122, 0)","(179, 0, 0)","(155, 155, 155)","2","legacy","experiment","[1, 2, 3, 4, 5, 6, 7, 0]","\","2500","3000","0","8","252.758751519","1024","2","48000","-16","main","[(0, -252), (178, -178), (252, 0), (178, 178), (0, 252), (-178, 178), (-252, 0), (-178, -178)]","[]","18","even","7","146012","257500","257500","83331","82324","1775","89120","89120","1775","1775","87344","351798","1774","257500","350823","350088","350088","NA","729","study_X","0","4013","1","yes","1680"
"undefined","undefined","4013","4013","black","no","legacy","legacy","legacy","0","red","(179, 0, 0)","color","present","highProb","rectangular","same","swap","swap","swap","green","(0, 122, 0)","lowProb","lowProb3","rectangular","uniform","1","undefined","0.255208333333","1","1","175.609375","1","49","33717","0","0","0","0","0","0","0","0","74","0","1","0.255208333333","175.609375","49","33717","74","74","74","08/23/17 14:00:27","Default description","yes","<openexp._canvas.legacy.legacy object at 0x048327F0>","<openexp._canvas.legacy.legacy object at 0x0483D7B0>","<openexp._canvas.legacy.legacy object at 0x0482A410>","<openexp._canvas.legacy.legacy object at 0x049209D0>","<openexp._canvas.legacy.legacy object at 0x048F14B0>","<openexp._canvas.legacy.legacy object at 0x04920990>","<openexp._canvas.legacy.legacy object at 0x048F2A50>","75","IndividualPriorityWithDis_v1.osexp","C:/Userdata/Michel/SpatialProb/IndividualPriorityMaps/Experiment2","no","mono","no","18","no","white","no","yes","0.09","98","1050","legacy","315","49","49","1","C:/Userdata/Michel/SpatialProb/IndividualPriorityMaps/Experiment2/data/subject-18.csv","legacy","9","192","25","Jazzy James","3.1.3","yes","598477b2b83f69022949e7e9","47","red","rectangular","green","rectangular","0","/","567","space","4013","4013","(80, 80, 80)","(0, 122, 0)","(179, 0, 0)","(155, 155, 155)","2","legacy","experiment","[1, 2, 3, 4, 5, 6, 7, 0]","/","2500","3000","0","8","252.758751519","1024","2","48000","-16","main","[(0, -252), (178, -178), (252, 0), (178, 178), (0, 252), (-178, 178), (-252, 0), (-178, -178)]","[]","18","even","4","146012","257500","257500","83331","82324","1775","89120","89120","1775","1775","87344","353511","1774","257500","352941","352206","352206","NA","729","study_X","0","4013","1","yes","1680"
"undefined","undefined","4013","4013","black","no","legacy","legacy","legacy","0","green","(0, 122, 0)","color","absent","lowProb3","rectangular","swap","same","same","same","green","(0, 122, 0)","highProbShape","highProbShape","rectangular","uniform","1","undefined","0.260416666667","1","1","179.479166667","1","50","34460","0","0","0","0","0","0","0","0","75","0","1","0.260416666667","179.479166667","50","34460","75","75","75","08/23/17 14:00:27","Default description","yes","<openexp._canvas.legacy.legacy object at 0x048327F0>","<openexp._canvas.legacy.legacy object at 0x0483D7B0>","<openexp._canvas.legacy.legacy object at 0x0482A410>","<openexp._canvas.legacy.legacy object at 0x049209D0>","<openexp._canvas.legacy.legacy object at 0x048F14B0>","<openexp._canvas.legacy.legacy object at 0x0482EAD0>","<openexp._canvas.legacy.legacy object at 0x048F2A50>","75","IndividualPriorityWithDis_v1.osexp","C:/Userdata/Michel/SpatialProb/IndividualPriorityMaps/Experiment2","no","mono","no","18","no","white","no","yes","0.09","98","1050","legacy","315","50","50","1","C:/Userdata/Michel/SpatialProb/IndividualPriorityMaps/Experiment2/data/subject-18.csv","legacy","9","192","25","Jazzy James","3.1.3","yes","598477b2b83f69022949e7e9","47","green","rectangular","green","rectangular","0","/","743","space","4013","4013","(80, 80, 80)","(0, 122, 0)","(179, 0, 0)","(155, 155, 155)","2","legacy","experiment","[1, 2, 3, 4, 5, 6, 7, 0]","/","2500","3000","0","8","252.758751519","1024","2","48000","-16","main","[(0, -252), (178, -178), (252, 0), (178, 178), (0, 252), (-178, 178), (-252, 0), (-178, -178)]","[]","18","even","5","146012","257500","257500","83331","82324","1775","89120","89120","1775","1775","87344","355391","1774","257500","354645","353910","353910","NA","729","study_X","0","4013","1","yes","1680"
"undefined","undefined","4013","4013","black","no","legacy","legacy","legacy","0","green","(0, 122, 0)","color","present","highProb","circular","same","swap","swap","swap","red","(179, 0, 0)","lowProb","lowProb1","circular","uniform","1","undefined","0.265625","1","1","182.619791667","1","51","35063","0","0","0","0","0","0","0","0","76","0","1","0.265625","182.619791667","51","35063","76","76","76","08/23/17 14:00:27","Default description","yes","<openexp._canvas.legacy.legacy object at 0x048327F0>","<openexp._canvas.legacy.legacy object at 0x0483D7B0>","<openexp._canvas.legacy.legacy object at 0x0482A410>","<openexp._canvas.legacy.legacy object at 0x049209D0>","<openexp._canvas.legacy.legacy object at 0x048F14B0>","<openexp._canvas.legacy.legacy object at 0x04921F30>","<openexp._canvas.legacy.legacy object at 0x048F2A50>","75","IndividualPriorityWithDis_v1.osexp","C:/Userdata/Michel/SpatialProb/IndividualPriorityMaps/Experiment2","no","mono","no","18","no","white","no","yes","0.09","98","1050","legacy","315","51","51","1","C:/Userdata/Michel/SpatialProb/IndividualPriorityMaps/Experiment2/data/subject-18.csv","legacy","9","192","25","Jazzy James","3.1.3","yes","598477b2b83f69022949e7e9","47","green","circular","red","circular","0","/","603","space","4013","4013","(80, 80, 80)","(0, 122, 0)","(179, 0, 0)","(155, 155, 155)","2","legacy","experiment","[1, 2, 3, 4, 5, 6, 7, 0]","/","2500","3000","0","8","252.758751519","1024","2","48000","-16","main","[(0, -252), (178, -178), (252, 0), (178, 178), (0, 252), (-178, 178), (-252, 0), (-178, -178)]","[]","18","even","2","146012","257500","257500","83331","82324","1775","89120","89120","1775","1775","87344","357143","1774","257500","356537","355802","355802","NA","729","study_X","0","4013","1","yes","1680"
"undefined","undefined","4013","4013","black","no","legacy","legacy","legacy","0","red","(179, 0, 0)","color","present","highProb","circular","swap","same","swap","same","green","(0, 122, 0)","lowProb","lowProb6","circular","uniform","1","undefined","0.270833333333","1","1","186.078125","1","52","35727","0","0","0","0","0","0","0","0","77","0","1","0.270833333333","186.078125","52","35727","77","77","77","08/23/17 14:00:27","Default description","yes","<openexp._canvas.legacy.legacy object at 0x048327F0>","<openexp._canvas.legacy.legacy object at 0x0483D7B0>","<openexp._canvas.legacy.legacy object at 0x0482A410>","<openexp._canvas.legacy.legacy object at 0x049209D0>","<openexp._canvas.legacy.legacy object at 0x048F14B0>","<openexp._canvas.legacy.legacy object at 0x04849DF0>","<openexp._canvas.legacy.legacy object at 0x048F2A50>","75","IndividualPriorityWithDis_v1.osexp","C:/Userdata/Michel/SpatialProb/IndividualPriorityMaps/Experiment2","no","mono","no","18","no","white","no","yes","0.09","98","1050","legacy","45","52","52","1","C:/Userdata/Michel/SpatialProb/IndividualPriorityMaps/Experiment2/data/subject-18.csv","legacy","9","192","25","Jazzy James","3.1.3","yes","598477b2b83f69022949e7e9","47","red","circular","green","circular","0","\","664","space","4013","4013","(80, 80, 80)","(0, 122, 0)","(179, 0, 0)","(155, 155, 155)","2","legacy","experiment","[1, 2, 3, 4, 5, 6, 7, 0]","\","2500","3000","0","8","252.758751519","1024","2","48000","-16","main","[(0, -252), (178, -178), (252, 0), (178, 178), (0, 252), (-178, 178), (-252, 0), (-178, -178)]","[]","18","even","0","146012","257500","257500","83331","82324","1775","89120","89120","1775","1775","87344","358959","1774","257500","358292","357557","357557","NA","729","study_X","0","4013","1","yes","1680"
"undefined","undefined","4013","4013","black","no","legacy","legacy","legacy","0","green","(0, 122, 0)","color","present","highProb","rectangular","swap","swap","swap","swap","red","(179, 0, 0)","lowProb","lowProb5","rectangular","uniform","1","undefined","0.276041666667","1","1","189.005208333","1","53","36289","0","0","0","0","0","0","0","0","78","0","1","0.276041666667","189.005208333","53","36289","78","78","78","08/23/17 14:00:27","Default description","yes","<openexp._canvas.legacy.legacy object at 0x048327F0>","<openexp._canvas.legacy.legacy object at 0x0483D7B0>","<openexp._canvas.legacy.legacy object at 0x0482A410>","<openexp._canvas.legacy.legacy object at 0x049209D0>","<openexp._canvas.legacy.legacy object at 0x048F14B0>","<openexp._canvas.legacy.legacy object at 0x04920F30>","<openexp._canvas.legacy.legacy object at 0x048F2A50>","75","IndividualPriorityWithDis_v1.osexp","C:/Userdata/Michel/SpatialProb/IndividualPriorityMaps/Experiment2","no","mono","no","18","no","white","no","yes","0.09","98","1050","legacy","45","53","53","1","C:/Userdata/Michel/SpatialProb/IndividualPriorityMaps/Experiment2/data/subject-18.csv","legacy","9","192","25","Jazzy James","3.1.3","yes","598477b2b83f69022949e7e9","47","green","rectangular","red","rectangular","0","\","562","space","4013","4013","(80, 80, 80)","(0, 122, 0)","(179, 0, 0)","(155, 155, 155)","2","legacy","experiment","[1, 2, 3, 4, 5, 6, 7, 0]","\","2500","3000","0","8","252.758751519","1024","2","48000","-16","main","[(0, -252), (178, -178), (252, 0), (178, 178), (0, 252), (-178, 178), (-252, 0), (-178, -178)]","[]","18","even","7","146012","257500","257500","83331","82324","1775","89120","89120","1775","1775","87344","360655","1774","257500","360090","359356","359356","NA","729","study_X","0","4013","1","yes","1680"
