"acc","accuracy","answerQ1","answerQ2","answerQ3","average_response_time","avg_rt","background","bidi","canvas_backend","clock_backend","color_backend","compensation","cond_disColor","cond_disColorRGB","cond_disFeature","cond_disPresent","cond_disProbability","cond_disShape","cond_primingDisColor","cond_primingDisShape","cond_primingTarColor","cond_primingTarShape","cond_tarColor","cond_tarColorRGB","cond_tarLocation","cond_tarLocationLong","cond_tarShape","coordinates","correct","correct_continuePress","count_Questions","count_blockAcc","count_blockFeed","count_blockLoop","count_blockRT","count_blockSeq","count_blockSumCorrect","count_blockSumRT","count_continuePress","count_example","count_expSettings","count_exp_mainLoop","count_experiment","count_instructions","count_instructions1","count_instructions2","count_log","count_main","count_prepCanvas","count_totalAcc","count_totalRT","count_totalSumCorrect","count_totalSumRT","count_trialResp","count_trialSeq","count_trialTask","datetime","description","disable_garbage_collection","dispBlank","dispBlockStart","dispFeedBlock","dispFix","dispInstructions","dispQuestions","dispSearch","dispStartScreen","distance2screen","experiment_file","experiment_path","font_bold","font_family","font_italic","font_size","font_underline","foreground","form_clicks","fullscreen","gaborFreq","gaborSize","height","keyboard_backend","lineOriTar","live_row","live_row_blockLoop","live_row_exp_mainLoop","logfile","mouse_backend","noExpBlocks","noExpTrials","noPracTrials","opensesame_codename","opensesame_version","osf_always_upload_experiment","osf_id","physical_screensize","previousDisColor","previousDisShape","previousTarColor","previousTarShape","repeat_cycle","response","responseTime","response_continuePress","response_time","response_time_continuePress","rgb_gray","rgb_green","rgb_red","rgb_white","round_decimals","sampler_backend","set_blockType","set_counterPositions","set_respCorrect","set_respTimeoutExp","set_respTimeoutPrac","set_rotation","set_setSize","sizeImaginary","sound_buf_size","sound_channels","sound_freq","sound_sample_size","start","stimPositions","stimuli","subject_nr","subject_parity","tarIdx","time_Questions","time_blockFeed","time_blockLoop","time_blockSeq","time_continuePress","time_example","time_expSettings","time_exp_mainLoop","time_experiment","time_instructions","time_instructions1","time_instructions2","time_log","time_main","time_prepCanvas","time_trialResp","time_trialSeq","time_trialTask","timing_EEGwait","timing_fix","title","total_correct","total_response_time","total_responses","uniform_coordinates","width"
"undefined","undefined","NA","NA","NA","8459","8459","black","no","legacy","legacy","legacy","0","red","(177, 0, 0)","color","present","highProb","circular","swap","swap","same","same","green","(0, 123, 0)","lowProb","lowProb5","circular","uniform","1","undefined","0","0.00520833333333","1","1","3.48958333333","1","1","670","0","0","0","0","0","0","0","0","26","0","1","0.00520833333333","3.48958333333","1","670","25","25","25","12/03/18 12:04:46","Default description","yes","<openexp._canvas.legacy.Legacy object at 0x044CD690>","<openexp._canvas.legacy.Legacy object at 0x04501BD0>","<openexp._canvas.legacy.Legacy object at 0x042B7430>","<openexp._canvas.legacy.Legacy object at 0x042AFA10>","<openexp._canvas.legacy.Legacy object at 0x04292290>","<openexp._canvas.legacy.Legacy object at 0x044C3350>","<openexp._canvas.legacy.Legacy object at 0x04501D70>","<openexp._canvas.legacy.Legacy object at 0x042C9610>","75","SpatProbMultiple3.osexp","C:/Userdata/Michel/SpatProbMultiple3","no","mono","no","18","no","white","no","yes","0.09","98","1050","legacy","45","0","0","1","C:/Userdata/Michel/SpatProbMultiple3/beh/subject-46.csv","legacy","9","192","25","Kafkaesque Koffka","3.2.5","yes","598477b2b83f69022949e7e9","47","red","circular","green","circular","0","\","670","space","8459","8459","(80, 80, 80)","(0, 123, 0)","(177, 0, 0)","(155, 155, 155)","2","legacy","experiment","[5, 6, 7, 0, 1, 2, 3, 4]","\","2500","3000","0","8","252.758751519","1024","2","48000","-16","main","[(0, -252), (178, -178), (252, 0), (178, 178), (0, 252), (-178, 178), (-252, 0), (-178, -178)]","[]","46","even","3","NA","4583913","4648380","4648380","4475181","4474169","2039","4511555","4511555","2039","2039","4483641","4655575","2037","4648380","4654901","4648794","4648794","NA","939","study_X","0","8459","1","yes","1680"
"undefined","undefined","NA","NA","NA","8459","8459","black","no","legacy","legacy","legacy","0","green","(0, 123, 0)","shape","present","lowProb3","rectangular","swap","swap","same","same","green","(0, 123, 0)","lowProb","lowProb4","circular","uniform","1","undefined","0","0.0104166666667","1","1","7.578125","1","2","1455","0","0","0","0","0","0","0","0","27","0","1","0.0104166666667","7.578125","2","1455","26","26","26","12/03/18 12:04:46","Default description","yes","<openexp._canvas.legacy.Legacy object at 0x044CD690>","<openexp._canvas.legacy.Legacy object at 0x04501BD0>","<openexp._canvas.legacy.Legacy object at 0x042B7430>","<openexp._canvas.legacy.Legacy object at 0x042AFA10>","<openexp._canvas.legacy.Legacy object at 0x04292290>","<openexp._canvas.legacy.Legacy object at 0x044C3350>","<openexp._canvas.legacy.Legacy object at 0x045A57B0>","<openexp._canvas.legacy.Legacy object at 0x042C9610>","75","SpatProbMultiple3.osexp","C:/Userdata/Michel/SpatProbMultiple3","no","mono","no","18","no","white","no","yes","0.09","98","1050","legacy","45","1","1","1","C:/Userdata/Michel/SpatProbMultiple3/beh/subject-46.csv","legacy","9","192","25","Kafkaesque Koffka","3.2.5","yes","598477b2b83f69022949e7e9","47","green","rectangular","green","circular","0","\","785","space","8459","8459","(80, 80, 80)","(0, 123, 0)","(177, 0, 0)","(155, 155, 155)","2","legacy","experiment","[5, 6, 7, 0, 1, 2, 3, 4]","\","2500","3000","0","8","252.758751519","1024","2","48000","-16","main","[(0, -252), (178, -178), (252, 0), (178, 178), (0, 252), (-178, 178), (-252, 0), (-178, -178)]","[]","46","even","2","NA","4583913","4648380","4648380","4475181","4474169","2039","4511555","4511555","2039","2039","4483641","4657792","2037","4648380","4657003","4656054","4656054","NA","939","study_X","0","8459","1","yes","1680"
"undefined","undefined","NA","NA","NA","8459","8459","black","no","legacy","legacy","legacy","0","green","(0, 123, 0)","color","present","highProb","rectangular","same","same","swap","swap","red","(177, 0, 0)","highProbShape","highProbShape","rectangular","uniform","1","undefined","0","0.015625","1","1","15.828125","1","3","3039","0","0","0","0","0","0","0","0","28","0","1","0.015625","15.828125","3","3039","27","27","27","12/03/18 12:04:46","Default description","yes","<openexp._canvas.legacy.Legacy object at 0x044CD690>","<openexp._canvas.legacy.Legacy object at 0x04501BD0>","<openexp._canvas.legacy.Legacy object at 0x042B7430>","<openexp._canvas.legacy.Legacy object at 0x042AFA10>","<openexp._canvas.legacy.Legacy object at 0x04292290>","<openexp._canvas.legacy.Legacy object at 0x044C3350>","<openexp._canvas.legacy.Legacy object at 0x044F7890>","<openexp._canvas.legacy.Legacy object at 0x042C9610>","75","SpatProbMultiple3.osexp","C:/Userdata/Michel/SpatProbMultiple3","no","mono","no","18","no","white","no","yes","0.09","98","1050","legacy","45","2","2","1","C:/Userdata/Michel/SpatProbMultiple3/beh/subject-46.csv","legacy","9","192","25","Kafkaesque Koffka","3.2.5","yes","598477b2b83f69022949e7e9","47","green","rectangular","red","rectangular","0","\","1584","space","8459","8459","(80, 80, 80)","(0, 123, 0)","(177, 0, 0)","(155, 155, 155)","2","legacy","experiment","[5, 6, 7, 0, 1, 2, 3, 4]","\","2500","3000","0","8","252.758751519","1024","2","48000","-16","main","[(0, -252), (178, -178), (252, 0), (178, 178), (0, 252), (-178, 178), (-252, 0), (-178, -178)]","[]","46","even","1","NA","4583913","4648380","4648380","4475181","4474169","2039","4511555","4511555","2039","2039","4483641","4660776","2037","4648380","4659188","4658239","4658239","NA","939","study_X","0","8459","1","yes","1680"
"undefined","undefined","NA","NA","NA","8459","8459","black","no","legacy","legacy","legacy","0","red","(177, 0, 0)","shape","present","lowProb4","circular","swap","swap","same","same","red","(177, 0, 0)","lowProb","lowProb2","rectangular","uniform","1","undefined","0","0.0208333333333","1","1","20.4270833333","1","4","3922","0","0","0","0","0","0","0","0","29","0","1","0.0208333333333","20.4270833333","4","3922","28","28","28","12/03/18 12:04:46","Default description","yes","<openexp._canvas.legacy.Legacy object at 0x044CD690>","<openexp._canvas.legacy.Legacy object at 0x04501BD0>","<openexp._canvas.legacy.Legacy object at 0x042B7430>","<openexp._canvas.legacy.Legacy object at 0x042AFA10>","<openexp._canvas.legacy.Legacy object at 0x04292290>","<openexp._canvas.legacy.Legacy object at 0x044C3350>","<openexp._canvas.legacy.Legacy object at 0x0450E830>","<openexp._canvas.legacy.Legacy object at 0x042C9610>","75","SpatProbMultiple3.osexp","C:/Userdata/Michel/SpatProbMultiple3","no","mono","no","18","no","white","no","yes","0.09","98","1050","legacy","45","3","3","1","C:/Userdata/Michel/SpatProbMultiple3/beh/subject-46.csv","legacy","9","192","25","Kafkaesque Koffka","3.2.5","yes","598477b2b83f69022949e7e9","47","red","circular","red","rectangular","0","\","883","space","8459","8459","(80, 80, 80)","(0, 123, 0)","(177, 0, 0)","(155, 155, 155)","2","legacy","experiment","[5, 6, 7, 0, 1, 2, 3, 4]","\","2500","3000","0","8","252.758751519","1024","2","48000","-16","main","[(0, -252), (178, -178), (252, 0), (178, 178), (0, 252), (-178, 178), (-252, 0), (-178, -178)]","[]","46","even","7","NA","4583913","4648380","4648380","4475181","4474169","2039","4511555","4511555","2039","2039","4483641","4663071","2037","4648380","4662185","4661237","4661237","NA","939","study_X","0","8459","1","yes","1680"
"undefined","undefined","NA","NA","NA","8459","8459","black","no","legacy","legacy","legacy","0","red","(177, 0, 0)","shape","present","lowProb1","rectangular","same","swap","same","swap","red","(177, 0, 0)","lowProb","lowProb5","circular","uniform","1","undefined","0","0.0260416666667","1","1","25.2552083333","1","5","4849","0","0","0","0","0","0","0","0","30","0","1","0.0260416666667","25.2552083333","5","4849","29","29","29","12/03/18 12:04:46","Default description","yes","<openexp._canvas.legacy.Legacy object at 0x044CD690>","<openexp._canvas.legacy.Legacy object at 0x04501BD0>","<openexp._canvas.legacy.Legacy object at 0x042B7430>","<openexp._canvas.legacy.Legacy object at 0x042AFA10>","<openexp._canvas.legacy.Legacy object at 0x04292290>","<openexp._canvas.legacy.Legacy object at 0x044C3350>","<openexp._canvas.legacy.Legacy object at 0x0450EC10>","<openexp._canvas.legacy.Legacy object at 0x042C9610>","75","SpatProbMultiple3.osexp","C:/Userdata/Michel/SpatProbMultiple3","no","mono","no","18","no","white","no","yes","0.09","98","1050","legacy","45","4","4","1","C:/Userdata/Michel/SpatProbMultiple3/beh/subject-46.csv","legacy","9","192","25","Kafkaesque Koffka","3.2.5","yes","598477b2b83f69022949e7e9","47","red","rectangular","red","circular","0","\","927","space","8459","8459","(80, 80, 80)","(0, 123, 0)","(177, 0, 0)","(155, 155, 155)","2","legacy","experiment","[5, 6, 7, 0, 1, 2, 3, 4]","\","2500","3000","0","8","252.758751519","1024","2","48000","-16","main","[(0, -252), (178, -178), (252, 0), (178, 178), (0, 252), (-178, 178), (-252, 0), (-178, -178)]","[]","46","even","3","NA","4583913","4648380","4648380","4475181","4474169","2039","4511555","4511555","2039","2039","4483641","4665407","2037","4648380","4664477","4663528","4663528","NA","939","study_X","0","8459","1","yes","1680"
"undefined","undefined","NA","NA","NA","8459","8459","black","no","legacy","legacy","legacy","0","red","(177, 0, 0)","color","present","highProb","circular","same","swap","swap","same","green","(0, 123, 0)","lowProb","lowProb2","circular","uniform","1","undefined","0","0.03125","1","1","32.296875","1","6","6201","0","0","0","0","0","0","0","0","31","0","1","0.03125","32.296875","6","6201","30","30","30","12/03/18 12:04:46","Default description","yes","<openexp._canvas.legacy.Legacy object at 0x044CD690>","<openexp._canvas.legacy.Legacy object at 0x04501BD0>","<openexp._canvas.legacy.Legacy object at 0x042B7430>","<openexp._canvas.legacy.Legacy object at 0x042AFA10>","<openexp._canvas.legacy.Legacy object at 0x04292290>","<openexp._canvas.legacy.Legacy object at 0x044C3350>","<openexp._canvas.legacy.Legacy object at 0x04501070>","<openexp._canvas.legacy.Legacy object at 0x042C9610>","75","SpatProbMultiple3.osexp","C:/Userdata/Michel/SpatProbMultiple3","no","mono","no","18","no","white","no","yes","0.09","98","1050","legacy","315","5","5","1","C:/Userdata/Michel/SpatProbMultiple3/beh/subject-46.csv","legacy","9","192","25","Kafkaesque Koffka","3.2.5","yes","598477b2b83f69022949e7e9","47","red","circular","green","circular","0","/","1352","space","8459","8459","(80, 80, 80)","(0, 123, 0)","(177, 0, 0)","(155, 155, 155)","2","legacy","experiment","[5, 6, 7, 0, 1, 2, 3, 4]","/","2500","3000","0","8","252.758751519","1024","2","48000","-16","main","[(0, -252), (178, -178), (252, 0), (178, 178), (0, 252), (-178, 178), (-252, 0), (-178, -178)]","[]","46","even","7","NA","4583913","4648380","4648380","4475181","4474169","2039","4511555","4511555","2039","2039","4483641","4668207","2037","4648380","4666852","4665903","4665903","NA","939","study_X","0","8459","1","yes","1680"
"undefined","undefined","NA","NA","NA","8459","8459","black","no","legacy","legacy","legacy","0","green","(0, 123, 0)","shape","absent","lowProb6","circular","swap","same","same","same","green","(0, 123, 0)","lowProb","lowProb5","circular","uniform","1","undefined","0","0.0364583333333","1","1","39.5260416667","1","7","7589","0","0","0","0","0","0","0","0","32","0","1","0.0364583333333","39.5260416667","7","7589","31","31","31","12/03/18 12:04:46","Default description","yes","<openexp._canvas.legacy.Legacy object at 0x044CD690>","<openexp._canvas.legacy.Legacy object at 0x04501BD0>","<openexp._canvas.legacy.Legacy object at 0x042B7430>","<openexp._canvas.legacy.Legacy object at 0x042AFA10>","<openexp._canvas.legacy.Legacy object at 0x04292290>","<openexp._canvas.legacy.Legacy object at 0x044C3350>","<openexp._canvas.legacy.Legacy object at 0x045249D0>","<openexp._canvas.legacy.Legacy object at 0x042C9610>","75","SpatProbMultiple3.osexp","C:/Userdata/Michel/SpatProbMultiple3","no","mono","no","18","no","white","no","yes","0.09","98","1050","legacy","45","6","6","1","C:/Userdata/Michel/SpatProbMultiple3/beh/subject-46.csv","legacy","9","192","25","Kafkaesque Koffka","3.2.5","yes","598477b2b83f69022949e7e9","47","green","circular","green","circular","0","\","1388","space","8459","8459","(80, 80, 80)","(0, 123, 0)","(177, 0, 0)","(155, 155, 155)","2","legacy","experiment","[5, 6, 7, 0, 1, 2, 3, 4]","\","2500","3000","0","8","252.758751519","1024","2","48000","-16","main","[(0, -252), (178, -178), (252, 0), (178, 178), (0, 252), (-178, 178), (-252, 0), (-178, -178)]","[]","46","even","3","NA","4583913","4648380","4648380","4475181","4474169","2039","4511555","4511555","2039","2039","4483641","4670999","2037","4648380","4669608","4668659","4668659","NA","939","study_X","0","8459","1","yes","1680"
"undefined","undefined","NA","NA","NA","8459","8459","black","no","legacy","legacy","legacy","0","green","(0, 123, 0)","color","present","highProb","rectangular","same","swap","swap","swap","red","(177, 0, 0)","lowProb","lowProb2","rectangular","uniform","1","undefined","0","0.0416666666667","1","1","45.2552083333","1","8","8689","0","0","0","0","0","0","0","0","33","0","1","0.0416666666667","45.2552083333","8","8689","32","32","32","12/03/18 12:04:46","Default description","yes","<openexp._canvas.legacy.Legacy object at 0x044CD690>","<openexp._canvas.legacy.Legacy object at 0x04501BD0>","<openexp._canvas.legacy.Legacy object at 0x042B7430>","<openexp._canvas.legacy.Legacy object at 0x042AFA10>","<openexp._canvas.legacy.Legacy object at 0x04292290>","<openexp._canvas.legacy.Legacy object at 0x044C3350>","<openexp._canvas.legacy.Legacy object at 0x045A5F30>","<openexp._canvas.legacy.Legacy object at 0x042C9610>","75","SpatProbMultiple3.osexp","C:/Userdata/Michel/SpatProbMultiple3","no","mono","no","18","no","white","no","yes","0.09","98","1050","legacy","315","7","7","1","C:/Userdata/Michel/SpatProbMultiple3/beh/subject-46.csv","legacy","9","192","25","Kafkaesque Koffka","3.2.5","yes","598477b2b83f69022949e7e9","47","green","rectangular","red","rectangular","0","/","1100","space","8459","8459","(80, 80, 80)","(0, 123, 0)","(177, 0, 0)","(155, 155, 155)","2","legacy","experiment","[5, 6, 7, 0, 1, 2, 3, 4]","/","2500","3000","0","8","252.758751519","1024","2","48000","-16","main","[(0, -252), (178, -178), (252, 0), (178, 178), (0, 252), (-178, 178), (-252, 0), (-178, -178)]","[]","46","even","7","NA","4583913","4648380","4648380","4475181","4474169","2039","4511555","4511555","2039","2039","4483641","4673487","2037","4648380","4672383","4671435","4671435","NA","939","study_X","0","8459","1","yes","1680"
"undefined","undefined","NA","NA","NA","8459","8459","black","no","legacy","legacy","legacy","0","red","(177, 0, 0)","shape","present","highProbOther","rectangular","swap","same","same","swap","red","(177, 0, 0)","lowProb","lowProb3","circular","uniform","1","undefined","0","0.046875","1","1","49.5729166667","1","9","9518","0","0","0","0","0","0","0","0","34","0","1","0.046875","49.5729166667","9","9518","33","33","33","12/03/18 12:04:46","Default description","yes","<openexp._canvas.legacy.Legacy object at 0x044CD690>","<openexp._canvas.legacy.Legacy object at 0x04501BD0>","<openexp._canvas.legacy.Legacy object at 0x042B7430>","<openexp._canvas.legacy.Legacy object at 0x042AFA10>","<openexp._canvas.legacy.Legacy object at 0x04292290>","<openexp._canvas.legacy.Legacy object at 0x044C3350>","<openexp._canvas.legacy.Legacy object at 0x0450E5F0>","<openexp._canvas.legacy.Legacy object at 0x042C9610>","75","SpatProbMultiple3.osexp","C:/Userdata/Michel/SpatProbMultiple3","no","mono","no","18","no","white","no","yes","0.09","98","1050","legacy","45","8","8","1","C:/Userdata/Michel/SpatProbMultiple3/beh/subject-46.csv","legacy","9","192","25","Kafkaesque Koffka","3.2.5","yes","598477b2b83f69022949e7e9","47","red","rectangular","red","circular","0","\","829","space","8459","8459","(80, 80, 80)","(0, 123, 0)","(177, 0, 0)","(155, 155, 155)","2","legacy","experiment","[5, 6, 7, 0, 1, 2, 3, 4]","\","2500","3000","0","8","252.758751519","1024","2","48000","-16","main","[(0, -252), (178, -178), (252, 0), (178, 178), (0, 252), (-178, 178), (-252, 0), (-178, -178)]","[]","46","even","0","NA","4583913","4648380","4648380","4475181","4474169","2039","4511555","4511555","2039","2039","4483641","4675712","2037","4648380","4674879","4673931","4673931","NA","939","study_X","0","8459","1","yes","1680"
"undefined","undefined","NA","NA","NA","8459","8459","black","no","legacy","legacy","legacy","0","red","(177, 0, 0)","color","present","highProb","rectangular","same","same","swap","swap","green","(0, 123, 0)","lowProb","lowProb3","rectangular","uniform","1","undefined","0","0.0520833333333","1","1","54.5572916667","1","10","10475","0","0","0","0","0","0","0","0","35","0","1","0.0520833333333","54.5572916667","10","10475","34","34","34","12/03/18 12:04:46","Default description","yes","<openexp._canvas.legacy.Legacy object at 0x044CD690>","<openexp._canvas.legacy.Legacy object at 0x04501BD0>","<openexp._canvas.legacy.Legacy object at 0x042B7430>","<openexp._canvas.legacy.Legacy object at 0x042AFA10>","<openexp._canvas.legacy.Legacy object at 0x04292290>","<openexp._canvas.legacy.Legacy object at 0x044C3350>","<openexp._canvas.legacy.Legacy object at 0x044CD350>","<openexp._canvas.legacy.Legacy object at 0x042C9610>","75","SpatProbMultiple3.osexp","C:/Userdata/Michel/SpatProbMultiple3","no","mono","no","18","no","white","no","yes","0.09","98","1050","legacy","315","9","9","1","C:/Userdata/Michel/SpatProbMultiple3/beh/subject-46.csv","legacy","9","192","25","Kafkaesque Koffka","3.2.5","yes","598477b2b83f69022949e7e9","47","red","rectangular","green","rectangular","0","/","957","space","8459","8459","(80, 80, 80)","(0, 123, 0)","(177, 0, 0)","(155, 155, 155)","2","legacy","experiment","[5, 6, 7, 0, 1, 2, 3, 4]","/","2500","3000","0","8","252.758751519","1024","2","48000","-16","main","[(0, -252), (178, -178), (252, 0), (178, 178), (0, 252), (-178, 178), (-252, 0), (-178, -178)]","[]","46","even","0","NA","4583913","4648380","4648380","4475181","4474169","2039","4511555","4511555","2039","2039","4483641","4678087","2037","4648380","4677128","4676179","4676179","NA","939","study_X","0","8459","1","yes","1680"
"undefined","undefined","NA","NA","NA","8459","8459","black","no","legacy","legacy","legacy","0","red","(177, 0, 0)","color","present","highProb","rectangular","same","same","same","same","green","(0, 123, 0)","lowProb","lowProb2","rectangular","uniform","1","undefined","0","0.0572916666667","1","1","64.171875","1","11","12321","0","0","0","0","0","0","0","0","36","0","1","0.0572916666667","64.171875","11","12321","35","35","35","12/03/18 12:04:46","Default description","yes","<openexp._canvas.legacy.Legacy object at 0x044CD690>","<openexp._canvas.legacy.Legacy object at 0x04501BD0>","<openexp._canvas.legacy.Legacy object at 0x042B7430>","<openexp._canvas.legacy.Legacy object at 0x042AFA10>","<openexp._canvas.legacy.Legacy object at 0x04292290>","<openexp._canvas.legacy.Legacy object at 0x044C3350>","<openexp._canvas.legacy.Legacy object at 0x045A5CB0>","<openexp._canvas.legacy.Legacy object at 0x042C9610>","75","SpatProbMultiple3.osexp","C:/Userdata/Michel/SpatProbMultiple3","no","mono","no","18","no","white","no","yes","0.09","98","1050","legacy","315","10","10","1","C:/Userdata/Michel/SpatProbMultiple3/beh/subject-46.csv","legacy","9","192","25","Kafkaesque Koffka","3.2.5","yes","598477b2b83f69022949e7e9","47","red","rectangular","green","rectangular","0","/","1846","space","8459","8459","(80, 80, 80)","(0, 123, 0)","(177, 0, 0)","(155, 155, 155)","2","legacy","experiment","[5, 6, 7, 0, 1, 2, 3, 4]","/","2500","3000","0","8","252.758751519","1024","2","48000","-16","main","[(0, -252), (178, -178), (252, 0), (178, 178), (0, 252), (-178, 178), (-252, 0), (-178, -178)]","[]","46","even","7","NA","4583913","4648380","4648380","4475181","4474169","2039","4511555","4511555","2039","2039","4483641","4681319","2037","4648380","4679471","4678524","4678524","NA","939","study_X","0","8459","1","yes","1680"
"undefined","undefined","NA","NA","NA","8459","8459","black","no","legacy","legacy","legacy","0","red","(177, 0, 0)","shape","present","highProb","circular","same","swap","swap","same","red","(177, 0, 0)","highProbColor","highProbColor","rectangular","uniform","0","undefined","0","0.0572916666667","1","1","71.5520833333","1","11","13738","0","0","0","0","0","0","0","0","37","0","1","0.0572916666667","71.5520833333","11","13738","36","36","36","12/03/18 12:04:46","Default description","yes","<openexp._canvas.legacy.Legacy object at 0x044CD690>","<openexp._canvas.legacy.Legacy object at 0x04501BD0>","<openexp._canvas.legacy.Legacy object at 0x042B7430>","<openexp._canvas.legacy.Legacy object at 0x042AFA10>","<openexp._canvas.legacy.Legacy object at 0x04292290>","<openexp._canvas.legacy.Legacy object at 0x044C3350>","<openexp._canvas.legacy.Legacy object at 0x044AF950>","<openexp._canvas.legacy.Legacy object at 0x042C9610>","75","SpatProbMultiple3.osexp","C:/Userdata/Michel/SpatProbMultiple3","no","mono","no","18","no","white","no","yes","0.09","98","1050","legacy","315","11","11","1","C:/Userdata/Michel/SpatProbMultiple3/beh/subject-46.csv","legacy","9","192","25","Kafkaesque Koffka","3.2.5","yes","598477b2b83f69022949e7e9","47","red","circular","red","rectangular","0","\","1417","space","8459","8459","(80, 80, 80)","(0, 123, 0)","(177, 0, 0)","(155, 155, 155)","2","legacy","experiment","[5, 6, 7, 0, 1, 2, 3, 4]","/","2500","3000","0","8","252.758751519","1024","2","48000","-16","main","[(0, -252), (178, -178), (252, 0), (178, 178), (0, 252), (-178, 178), (-252, 0), (-178, -178)]","[]","46","even","5","NA","4583913","4648380","4648380","4475181","4474169","2039","4511555","4511555","2039","2039","4483641","4684127","2037","4648380","4682707","4681758","4681758","NA","939","study_X","0","8459","1","yes","1680"
"undefined","undefined","NA","NA","NA","8459","8459","black","no","legacy","legacy","legacy","0","green","(0, 123, 0)","shape","present","highProb","circular","swap","same","swap","same","green","(0, 123, 0)","lowProb","lowProb2","rectangular","uniform","1","undefined","0","0.0625","1","1","82.09375","1","12","15762","0","0","0","0","0","0","0","0","38","0","1","0.0625","82.09375","12","15762","37","37","37","12/03/18 12:04:46","Default description","yes","<openexp._canvas.legacy.Legacy object at 0x044CD690>","<openexp._canvas.legacy.Legacy object at 0x04501BD0>","<openexp._canvas.legacy.Legacy object at 0x042B7430>","<openexp._canvas.legacy.Legacy object at 0x042AFA10>","<openexp._canvas.legacy.Legacy object at 0x04292290>","<openexp._canvas.legacy.Legacy object at 0x044C3350>","<openexp._canvas.legacy.Legacy object at 0x0450E690>","<openexp._canvas.legacy.Legacy object at 0x042C9610>","75","SpatProbMultiple3.osexp","C:/Userdata/Michel/SpatProbMultiple3","no","mono","no","18","no","white","no","yes","0.09","98","1050","legacy","45","12","12","1","C:/Userdata/Michel/SpatProbMultiple3/beh/subject-46.csv","legacy","9","192","25","Kafkaesque Koffka","3.2.5","yes","598477b2b83f69022949e7e9","47","green","circular","green","rectangular","0","\","2024","space","8459","8459","(80, 80, 80)","(0, 123, 0)","(177, 0, 0)","(155, 155, 155)","2","legacy","experiment","[5, 6, 7, 0, 1, 2, 3, 4]","\","2500","3000","0","8","252.758751519","1024","2","48000","-16","main","[(0, -252), (178, -178), (252, 0), (178, 178), (0, 252), (-178, 178), (-252, 0), (-178, -178)]","[]","46","even","7","NA","4583913","4648380","4648380","4475181","4474169","2039","4511555","4511555","2039","2039","4483641","4687543","2037","4648380","4685516","4684567","4684567","NA","939","study_X","0","8459","1","yes","1680"
"undefined","undefined","NA","NA","NA","8459","8459","black","no","legacy","legacy","legacy","0","red","(177, 0, 0)","color","absent","lowProb5","rectangular","swap","swap","swap","same","red","(177, 0, 0)","lowProb","lowProb1","rectangular","uniform","1","undefined","0","0.0677083333333","1","1","87.5989583333","1","13","16819","0","0","0","0","0","0","0","0","39","0","1","0.0677083333333","87.5989583333","13","16819","38","38","38","12/03/18 12:04:46","Default description","yes","<openexp._canvas.legacy.Legacy object at 0x044CD690>","<openexp._canvas.legacy.Legacy object at 0x04501BD0>","<openexp._canvas.legacy.Legacy object at 0x042B7430>","<openexp._canvas.legacy.Legacy object at 0x042AFA10>","<openexp._canvas.legacy.Legacy object at 0x04292290>","<openexp._canvas.legacy.Legacy object at 0x044C3350>","<openexp._canvas.legacy.Legacy object at 0x04518E50>","<openexp._canvas.legacy.Legacy object at 0x042C9610>","75","SpatProbMultiple3.osexp","C:/Userdata/Michel/SpatProbMultiple3","no","mono","no","18","no","white","no","yes","0.09","98","1050","legacy","45","13","13","1","C:/Userdata/Michel/SpatProbMultiple3/beh/subject-46.csv","legacy","9","192","25","Kafkaesque Koffka","3.2.5","yes","598477b2b83f69022949e7e9","47","red","rectangular","red","rectangular","0","\","1057","space","8459","8459","(80, 80, 80)","(0, 123, 0)","(177, 0, 0)","(155, 155, 155)","2","legacy","experiment","[5, 6, 7, 0, 1, 2, 3, 4]","\","2500","3000","0","8","252.758751519","1024","2","48000","-16","main","[(0, -252), (178, -178), (252, 0), (178, 178), (0, 252), (-178, 178), (-252, 0), (-178, -178)]","[]","46","even","6","NA","4583913","4648380","4648380","4475181","4474169","2039","4511555","4511555","2039","2039","4483641","4689991","2037","4648380","4688931","4687982","4687982","NA","939","study_X","0","8459","1","yes","1680"
"undefined","undefined","NA","NA","NA","8459","8459","black","no","legacy","legacy","legacy","0","red","(177, 0, 0)","color","present","lowProb6","circular","same","swap","swap","swap","green","(0, 123, 0)","highProbColor","highProbColor","circular","uniform","0","undefined","0","0.0677083333333","1","1","91.421875","1","13","17553","0","0","0","0","0","0","0","0","40","0","1","0.0677083333333","91.421875","13","17553","39","39","39","12/03/18 12:04:46","Default description","yes","<openexp._canvas.legacy.Legacy object at 0x044CD690>","<openexp._canvas.legacy.Legacy object at 0x04501BD0>","<openexp._canvas.legacy.Legacy object at 0x042B7430>","<openexp._canvas.legacy.Legacy object at 0x042AFA10>","<openexp._canvas.legacy.Legacy object at 0x04292290>","<openexp._canvas.legacy.Legacy object at 0x044C3350>","<openexp._canvas.legacy.Legacy object at 0x044F7A90>","<openexp._canvas.legacy.Legacy object at 0x042C9610>","75","SpatProbMultiple3.osexp","C:/Userdata/Michel/SpatProbMultiple3","no","mono","no","18","no","white","no","yes","0.09","98","1050","legacy","315","14","14","1","C:/Userdata/Michel/SpatProbMultiple3/beh/subject-46.csv","legacy","9","192","25","Kafkaesque Koffka","3.2.5","yes","598477b2b83f69022949e7e9","47","red","circular","green","circular","0","\","734","space","8459","8459","(80, 80, 80)","(0, 123, 0)","(177, 0, 0)","(155, 155, 155)","2","legacy","experiment","[5, 6, 7, 0, 1, 2, 3, 4]","/","2500","3000","0","8","252.758751519","1024","2","48000","-16","main","[(0, -252), (178, -178), (252, 0), (178, 178), (0, 252), (-178, 178), (-252, 0), (-178, -178)]","[]","46","even","5","NA","4583913","4648380","4648380","4475181","4474169","2039","4511555","4511555","2039","2039","4483641","4692127","2037","4648380","4691390","4690442","4690442","NA","939","study_X","0","8459","1","yes","1680"
"undefined","undefined","NA","NA","NA","8459","8459","black","no","legacy","legacy","legacy","0","green","(0, 123, 0)","shape","present","highProb","circular","swap","same","same","swap","green","(0, 123, 0)","lowProb","lowProb3","rectangular","uniform","0","undefined","0","0.0677083333333","1","1","104.442708333","1","13","20053","0","0","0","0","0","0","0","0","41","0","1","0.0677083333333","104.442708333","13","20053","40","40","40","12/03/18 12:04:46","Default description","yes","<openexp._canvas.legacy.Legacy object at 0x044CD690>","<openexp._canvas.legacy.Legacy object at 0x04501BD0>","<openexp._canvas.legacy.Legacy object at 0x042B7430>","<openexp._canvas.legacy.Legacy object at 0x042AFA10>","<openexp._canvas.legacy.Legacy object at 0x04292290>","<openexp._canvas.legacy.Legacy object at 0x044C3350>","<openexp._canvas.legacy.Legacy object at 0x044F7B50>","<openexp._canvas.legacy.Legacy object at 0x042C9610>","75","SpatProbMultiple3.osexp","C:/Userdata/Michel/SpatProbMultiple3","no","mono","no","18","no","white","no","yes","0.09","98","1050","legacy","45","15","15","1","C:/Userdata/Michel/SpatProbMultiple3/beh/subject-46.csv","legacy","9","192","25","Kafkaesque Koffka","3.2.5","yes","598477b2b83f69022949e7e9","47","green","circular","green","rectangular","0","None","2500","space","8459","8459","(80, 80, 80)","(0, 123, 0)","(177, 0, 0)","(155, 155, 155)","2","legacy","experiment","[5, 6, 7, 0, 1, 2, 3, 4]","\","2500","3000","0","8","252.758751519","1024","2","48000","-16","main","[(0, -252), (178, -178), (252, 0), (178, 178), (0, 252), (-178, 178), (-252, 0), (-178, -178)]","[]","46","even","0","NA","4583913","4648380","4648380","4475181","4474169","2039","4511555","4511555","2039","2039","4483641","4696022","2037","4648380","4693520","4692571","4692572","NA","939","study_X","0","8459","1","yes","1680"
"undefined","undefined","NA","NA","NA","8459","8459","black","no","legacy","legacy","legacy","0","green","(0, 123, 0)","color","present","highProb","rectangular","same","swap","swap","same","red","(177, 0, 0)","lowProb","lowProb1","rectangular","uniform","1","undefined","0","0.0729166666667","1","1","112.25","1","14","21552","0","0","0","0","0","0","0","0","42","0","1","0.0729166666667","112.25","14","21552","41","41","41","12/03/18 12:04:46","Default description","yes","<openexp._canvas.legacy.Legacy object at 0x044CD690>","<openexp._canvas.legacy.Legacy object at 0x04501BD0>","<openexp._canvas.legacy.Legacy object at 0x042B7430>","<openexp._canvas.legacy.Legacy object at 0x042AFA10>","<openexp._canvas.legacy.Legacy object at 0x04292290>","<openexp._canvas.legacy.Legacy object at 0x044C3350>","<openexp._canvas.legacy.Legacy object at 0x0450EFD0>","<openexp._canvas.legacy.Legacy object at 0x042C9610>","75","SpatProbMultiple3.osexp","C:/Userdata/Michel/SpatProbMultiple3","no","mono","no","18","no","white","no","yes","0.09","98","1050","legacy","45","16","16","1","C:/Userdata/Michel/SpatProbMultiple3/beh/subject-46.csv","legacy","9","192","25","Kafkaesque Koffka","3.2.5","yes","598477b2b83f69022949e7e9","47","green","rectangular","red","rectangular","0","\","1499","space","8459","8459","(80, 80, 80)","(0, 123, 0)","(177, 0, 0)","(155, 155, 155)","2","legacy","experiment","[5, 6, 7, 0, 1, 2, 3, 4]","\","2500","3000","0","8","252.758751519","1024","2","48000","-16","main","[(0, -252), (178, -178), (252, 0), (178, 178), (0, 252), (-178, 178), (-252, 0), (-178, -178)]","[]","46","even","6","NA","4583913","4648380","4648380","4475181","4474169","2039","4511555","4511555","2039","2039","4483641","4698903","2037","4648380","4697401","4696452","4696452","NA","939","study_X","0","8459","1","yes","1680"
"undefined","undefined","NA","NA","NA","8459","8459","black","no","legacy","legacy","legacy","0","green","(0, 123, 0)","shape","present","lowProb6","rectangular","same","same","swap","swap","green","(0, 123, 0)","lowProb","lowProb2","circular","uniform","1","undefined","0","0.078125","1","1","116.875","1","15","22440","0","0","0","0","0","0","0","0","43","0","1","0.078125","116.875","15","22440","42","42","42","12/03/18 12:04:46","Default description","yes","<openexp._canvas.legacy.Legacy object at 0x044CD690>","<openexp._canvas.legacy.Legacy object at 0x04501BD0>","<openexp._canvas.legacy.Legacy object at 0x042B7430>","<openexp._canvas.legacy.Legacy object at 0x042AFA10>","<openexp._canvas.legacy.Legacy object at 0x04292290>","<openexp._canvas.legacy.Legacy object at 0x044C3350>","<openexp._canvas.legacy.Legacy object at 0x04510850>","<openexp._canvas.legacy.Legacy object at 0x042C9610>","75","SpatProbMultiple3.osexp","C:/Userdata/Michel/SpatProbMultiple3","no","mono","no","18","no","white","no","yes","0.09","98","1050","legacy","315","17","17","1","C:/Userdata/Michel/SpatProbMultiple3/beh/subject-46.csv","legacy","9","192","25","Kafkaesque Koffka","3.2.5","yes","598477b2b83f69022949e7e9","47","green","rectangular","green","circular","0","/","888","space","8459","8459","(80, 80, 80)","(0, 123, 0)","(177, 0, 0)","(155, 155, 155)","2","legacy","experiment","[5, 6, 7, 0, 1, 2, 3, 4]","/","2500","3000","0","8","252.758751519","1024","2","48000","-16","main","[(0, -252), (178, -178), (252, 0), (178, 178), (0, 252), (-178, 178), (-252, 0), (-178, -178)]","[]","46","even","7","NA","4583913","4648380","4648380","4475181","4474169","2039","4511555","4511555","2039","2039","4483641","4701191","2037","4648380","4700301","4699353","4699353","NA","939","study_X","0","8459","1","yes","1680"
"undefined","undefined","NA","NA","NA","8459","8459","black","no","legacy","legacy","legacy","0","green","(0, 123, 0)","color","present","lowProb1","rectangular","same","same","swap","swap","red","(177, 0, 0)","highProbShape","highProbShape","rectangular","uniform","1","undefined","0","0.0833333333333","1","1","121.791666667","1","16","23384","0","0","0","0","0","0","0","0","44","0","1","0.0833333333333","121.791666667","16","23384","43","43","43","12/03/18 12:04:46","Default description","yes","<openexp._canvas.legacy.Legacy object at 0x044CD690>","<openexp._canvas.legacy.Legacy object at 0x04501BD0>","<openexp._canvas.legacy.Legacy object at 0x042B7430>","<openexp._canvas.legacy.Legacy object at 0x042AFA10>","<openexp._canvas.legacy.Legacy object at 0x04292290>","<openexp._canvas.legacy.Legacy object at 0x044C3350>","<openexp._canvas.legacy.Legacy object at 0x04501910>","<openexp._canvas.legacy.Legacy object at 0x042C9610>","75","SpatProbMultiple3.osexp","C:/Userdata/Michel/SpatProbMultiple3","no","mono","no","18","no","white","no","yes","0.09","98","1050","legacy","45","18","18","1","C:/Userdata/Michel/SpatProbMultiple3/beh/subject-46.csv","legacy","9","192","25","Kafkaesque Koffka","3.2.5","yes","598477b2b83f69022949e7e9","47","green","rectangular","red","rectangular","0","\","944","space","8459","8459","(80, 80, 80)","(0, 123, 0)","(177, 0, 0)","(155, 155, 155)","2","legacy","experiment","[5, 6, 7, 0, 1, 2, 3, 4]","\","2500","3000","0","8","252.758751519","1024","2","48000","-16","main","[(0, -252), (178, -178), (252, 0), (178, 178), (0, 252), (-178, 178), (-252, 0), (-178, -178)]","[]","46","even","1","NA","4583913","4648380","4648380","4475181","4474169","2039","4511555","4511555","2039","2039","4483641","4703519","2037","4648380","4702571","4701623","4701623","NA","939","study_X","0","8459","1","yes","1680"
"undefined","undefined","NA","NA","NA","8459","8459","black","no","legacy","legacy","legacy","0","green","(0, 123, 0)","color","present","highProb","circular","same","swap","same","swap","red","(177, 0, 0)","highProbShape","highProbShape","circular","uniform","1","undefined","0","0.0885416666667","1","1","125.989583333","1","17","24190","0","0","0","0","0","0","0","0","45","0","1","0.0885416666667","125.989583333","17","24190","44","44","44","12/03/18 12:04:46","Default description","yes","<openexp._canvas.legacy.Legacy object at 0x044CD690>","<openexp._canvas.legacy.Legacy object at 0x04501BD0>","<openexp._canvas.legacy.Legacy object at 0x042B7430>","<openexp._canvas.legacy.Legacy object at 0x042AFA10>","<openexp._canvas.legacy.Legacy object at 0x04292290>","<openexp._canvas.legacy.Legacy object at 0x044C3350>","<openexp._canvas.legacy.Legacy object at 0x045A58D0>","<openexp._canvas.legacy.Legacy object at 0x042C9610>","75","SpatProbMultiple3.osexp","C:/Userdata/Michel/SpatProbMultiple3","no","mono","no","18","no","white","no","yes","0.09","98","1050","legacy","315","19","19","1","C:/Userdata/Michel/SpatProbMultiple3/beh/subject-46.csv","legacy","9","192","25","Kafkaesque Koffka","3.2.5","yes","598477b2b83f69022949e7e9","47","green","circular","red","circular","0","/","806","space","8459","8459","(80, 80, 80)","(0, 123, 0)","(177, 0, 0)","(155, 155, 155)","2","legacy","experiment","[5, 6, 7, 0, 1, 2, 3, 4]","/","2500","3000","0","8","252.758751519","1024","2","48000","-16","main","[(0, -252), (178, -178), (252, 0), (178, 178), (0, 252), (-178, 178), (-252, 0), (-178, -178)]","[]","46","even","1","NA","4583913","4648380","4648380","4475181","4474169","2039","4511555","4511555","2039","2039","4483641","4705719","2037","4648380","4704910","4703963","4703963","NA","939","study_X","0","8459","1","yes","1680"
"undefined","undefined","NA","NA","NA","8459","8459","black","no","legacy","legacy","legacy","0","red","(177, 0, 0)","shape","absent","lowProb4","circular","swap","same","same","same","red","(177, 0, 0)","lowProb","lowProb2","circular","uniform","1","undefined","0","0.09375","1","1","129.895833333","1","18","24940","0","0","0","0","0","0","0","0","46","0","1","0.09375","129.895833333","18","24940","45","45","45","12/03/18 12:04:46","Default description","yes","<openexp._canvas.legacy.Legacy object at 0x044CD690>","<openexp._canvas.legacy.Legacy object at 0x04501BD0>","<openexp._canvas.legacy.Legacy object at 0x042B7430>","<openexp._canvas.legacy.Legacy object at 0x042AFA10>","<openexp._canvas.legacy.Legacy object at 0x04292290>","<openexp._canvas.legacy.Legacy object at 0x044C3350>","<openexp._canvas.legacy.Legacy object at 0x04501BF0>","<openexp._canvas.legacy.Legacy object at 0x042C9610>","75","SpatProbMultiple3.osexp","C:/Userdata/Michel/SpatProbMultiple3","no","mono","no","18","no","white","no","yes","0.09","98","1050","legacy","45","20","20","1","C:/Userdata/Michel/SpatProbMultiple3/beh/subject-46.csv","legacy","9","192","25","Kafkaesque Koffka","3.2.5","yes","598477b2b83f69022949e7e9","47","red","circular","red","circular","0","\","750","space","8459","8459","(80, 80, 80)","(0, 123, 0)","(177, 0, 0)","(155, 155, 155)","2","legacy","experiment","[5, 6, 7, 0, 1, 2, 3, 4]","\","2500","3000","0","8","252.758751519","1024","2","48000","-16","main","[(0, -252), (178, -178), (252, 0), (178, 178), (0, 252), (-178, 178), (-252, 0), (-178, -178)]","[]","46","even","7","NA","4583913","4648380","4648380","4475181","4474169","2039","4511555","4511555","2039","2039","4483641","4707886","2037","4648380","4707133","4706184","4706184","NA","939","study_X","0","8459","1","yes","1680"
"undefined","undefined","NA","NA","NA","8459","8459","black","no","legacy","legacy","legacy","0","red","(177, 0, 0)","color","present","highProb","circular","same","same","swap","same","green","(0, 123, 0)","lowProb","lowProb2","circular","uniform","1","undefined","0","0.0989583333333","1","1","134.776041667","1","19","25877","0","0","0","0","0","0","0","0","47","0","1","0.0989583333333","134.776041667","19","25877","46","46","46","12/03/18 12:04:46","Default description","yes","<openexp._canvas.legacy.Legacy object at 0x044CD690>","<openexp._canvas.legacy.Legacy object at 0x04501BD0>","<openexp._canvas.legacy.Legacy object at 0x042B7430>","<openexp._canvas.legacy.Legacy object at 0x042AFA10>","<openexp._canvas.legacy.Legacy object at 0x04292290>","<openexp._canvas.legacy.Legacy object at 0x044C3350>","<openexp._canvas.legacy.Legacy object at 0x045A5510>","<openexp._canvas.legacy.Legacy object at 0x042C9610>","75","SpatProbMultiple3.osexp","C:/Userdata/Michel/SpatProbMultiple3","no","mono","no","18","no","white","no","yes","0.09","98","1050","legacy","315","21","21","1","C:/Userdata/Michel/SpatProbMultiple3/beh/subject-46.csv","legacy","9","192","25","Kafkaesque Koffka","3.2.5","yes","598477b2b83f69022949e7e9","47","red","circular","green","circular","0","/","937","space","8459","8459","(80, 80, 80)","(0, 123, 0)","(177, 0, 0)","(155, 155, 155)","2","legacy","experiment","[5, 6, 7, 0, 1, 2, 3, 4]","/","2500","3000","0","8","252.758751519","1024","2","48000","-16","main","[(0, -252), (178, -178), (252, 0), (178, 178), (0, 252), (-178, 178), (-252, 0), (-178, -178)]","[]","46","even","7","NA","4583913","4648380","4648380","4475181","4474169","2039","4511555","4511555","2039","2039","4483641","4710223","2037","4648380","4709283","4708334","4708334","NA","939","study_X","0","8459","1","yes","1680"
"undefined","undefined","NA","NA","NA","8459","8459","black","no","legacy","legacy","legacy","0","red","(177, 0, 0)","color","present","lowProb5","rectangular","same","swap","same","swap","green","(0, 123, 0)","highProbShape","highProbShape","rectangular","uniform","0","undefined","0","0.0989583333333","1","1","142.15625","1","19","27294","0","0","0","0","0","0","0","0","48","0","1","0.0989583333333","142.15625","19","27294","47","47","47","12/03/18 12:04:46","Default description","yes","<openexp._canvas.legacy.Legacy object at 0x044CD690>","<openexp._canvas.legacy.Legacy object at 0x04501BD0>","<openexp._canvas.legacy.Legacy object at 0x042B7430>","<openexp._canvas.legacy.Legacy object at 0x042AFA10>","<openexp._canvas.legacy.Legacy object at 0x04292290>","<openexp._canvas.legacy.Legacy object at 0x044C3350>","<openexp._canvas.legacy.Legacy object at 0x04510350>","<openexp._canvas.legacy.Legacy object at 0x042C9610>","75","SpatProbMultiple3.osexp","C:/Userdata/Michel/SpatProbMultiple3","no","mono","no","18","no","white","no","yes","0.09","98","1050","legacy","45","22","22","1","C:/Userdata/Michel/SpatProbMultiple3/beh/subject-46.csv","legacy","9","192","25","Kafkaesque Koffka","3.2.5","yes","598477b2b83f69022949e7e9","47","red","rectangular","green","rectangular","0","/","1417","space","8459","8459","(80, 80, 80)","(0, 123, 0)","(177, 0, 0)","(155, 155, 155)","2","legacy","experiment","[5, 6, 7, 0, 1, 2, 3, 4]","\","2500","3000","0","8","252.758751519","1024","2","48000","-16","main","[(0, -252), (178, -178), (252, 0), (178, 178), (0, 252), (-178, 178), (-252, 0), (-178, -178)]","[]","46","even","1","NA","4583913","4648380","4648380","4475181","4474169","2039","4511555","4511555","2039","2039","4483641","4713039","2037","4648380","4711620","4710671","4710671","NA","939","study_X","0","8459","1","yes","1680"
"undefined","undefined","NA","NA","NA","8459","8459","black","no","legacy","legacy","legacy","0","green","(0, 123, 0)","color","present","highProb","rectangular","swap","same","swap","same","red","(177, 0, 0)","lowProb","lowProb6","rectangular","uniform","1","undefined","0","0.104166666667","1","1","148.692708333","1","20","28549","0","0","0","0","0","0","0","0","49","0","1","0.104166666667","148.692708333","20","28549","48","48","48","12/03/18 12:04:46","Default description","yes","<openexp._canvas.legacy.Legacy object at 0x044CD690>","<openexp._canvas.legacy.Legacy object at 0x04501BD0>","<openexp._canvas.legacy.Legacy object at 0x042B7430>","<openexp._canvas.legacy.Legacy object at 0x042AFA10>","<openexp._canvas.legacy.Legacy object at 0x04292290>","<openexp._canvas.legacy.Legacy object at 0x044C3350>","<openexp._canvas.legacy.Legacy object at 0x044AF7B0>","<openexp._canvas.legacy.Legacy object at 0x042C9610>","75","SpatProbMultiple3.osexp","C:/Userdata/Michel/SpatProbMultiple3","no","mono","no","18","no","white","no","yes","0.09","98","1050","legacy","315","23","23","1","C:/Userdata/Michel/SpatProbMultiple3/beh/subject-46.csv","legacy","9","192","25","Kafkaesque Koffka","3.2.5","yes","598477b2b83f69022949e7e9","47","green","rectangular","red","rectangular","0","/","1255","space","8459","8459","(80, 80, 80)","(0, 123, 0)","(177, 0, 0)","(155, 155, 155)","2","legacy","experiment","[5, 6, 7, 0, 1, 2, 3, 4]","/","2500","3000","0","8","252.758751519","1024","2","48000","-16","main","[(0, -252), (178, -178), (252, 0), (178, 178), (0, 252), (-178, 178), (-252, 0), (-178, -178)]","[]","46","even","4","NA","4583913","4648380","4648380","4475181","4474169","2039","4511555","4511555","2039","2039","4483641","4715687","2037","4648380","4714429","4713480","4713480","NA","939","study_X","0","8459","1","yes","1680"
"undefined","undefined","NA","NA","NA","8459","8459","black","no","legacy","legacy","legacy","0","green","(0, 123, 0)","shape","present","highProb","rectangular","same","same","swap","swap","green","(0, 123, 0)","lowProb","lowProb5","circular","uniform","1","undefined","0","0.109375","1","1","161.546875","1","21","31017","0","0","0","0","0","0","0","0","50","0","1","0.109375","161.546875","21","31017","49","49","49","12/03/18 12:04:46","Default description","yes","<openexp._canvas.legacy.Legacy object at 0x044CD690>","<openexp._canvas.legacy.Legacy object at 0x04501BD0>","<openexp._canvas.legacy.Legacy object at 0x042B7430>","<openexp._canvas.legacy.Legacy object at 0x042AFA10>","<openexp._canvas.legacy.Legacy object at 0x04292290>","<openexp._canvas.legacy.Legacy object at 0x044C3350>","<openexp._canvas.legacy.Legacy object at 0x045A5510>","<openexp._canvas.legacy.Legacy object at 0x042C9610>","75","SpatProbMultiple3.osexp","C:/Userdata/Michel/SpatProbMultiple3","no","mono","no","18","no","white","no","yes","0.09","98","1050","legacy","315","24","24","1","C:/Userdata/Michel/SpatProbMultiple3/beh/subject-46.csv","legacy","9","192","25","Kafkaesque Koffka","3.2.5","yes","598477b2b83f69022949e7e9","47","green","rectangular","green","circular","0","/","2468","space","8459","8459","(80, 80, 80)","(0, 123, 0)","(177, 0, 0)","(155, 155, 155)","2","legacy","experiment","[5, 6, 7, 0, 1, 2, 3, 4]","/","2500","3000","0","8","252.758751519","1024","2","48000","-16","main","[(0, -252), (178, -178), (252, 0), (178, 178), (0, 252), (-178, 178), (-252, 0), (-178, -178)]","[]","46","even","3","NA","4583913","4648380","4648380","4475181","4474169","2039","4511555","4511555","2039","2039","4483641","4719559","2037","4648380","4717087","4716138","4716139","NA","939","study_X","0","8459","1","yes","1680"
"undefined","undefined","NA","NA","NA","8459","8459","black","no","legacy","legacy","legacy","0","red","(177, 0, 0)","color","present","highProb","rectangular","swap","same","same","swap","green","(0, 123, 0)","highProbShape","highProbShape","rectangular","uniform","0","undefined","0","0.109375","1","1","172.135416667","1","21","33050","0","0","0","0","0","0","0","0","51","0","1","0.109375","172.135416667","21","33050","50","50","50","12/03/18 12:04:46","Default description","yes","<openexp._canvas.legacy.Legacy object at 0x044CD690>","<openexp._canvas.legacy.Legacy object at 0x04501BD0>","<openexp._canvas.legacy.Legacy object at 0x042B7430>","<openexp._canvas.legacy.Legacy object at 0x042AFA10>","<openexp._canvas.legacy.Legacy object at 0x04292290>","<openexp._canvas.legacy.Legacy object at 0x044C3350>","<openexp._canvas.legacy.Legacy object at 0x044F79D0>","<openexp._canvas.legacy.Legacy object at 0x042C9610>","75","SpatProbMultiple3.osexp","C:/Userdata/Michel/SpatProbMultiple3","no","mono","no","18","no","white","no","yes","0.09","98","1050","legacy","45","25","25","1","C:/Userdata/Michel/SpatProbMultiple3/beh/subject-46.csv","legacy","9","192","25","Kafkaesque Koffka","3.2.5","yes","598477b2b83f69022949e7e9","47","red","rectangular","green","rectangular","0","/","2033","space","8459","8459","(80, 80, 80)","(0, 123, 0)","(177, 0, 0)","(155, 155, 155)","2","legacy","experiment","[5, 6, 7, 0, 1, 2, 3, 4]","\","2500","3000","0","8","252.758751519","1024","2","48000","-16","main","[(0, -252), (178, -178), (252, 0), (178, 178), (0, 252), (-178, 178), (-252, 0), (-178, -178)]","[]","46","even","1","NA","4583913","4648380","4648380","4475181","4474169","2039","4511555","4511555","2039","2039","4483641","4722975","2037","4648380","4720939","4719990","4719991","NA","939","study_X","0","8459","1","yes","1680"
"undefined","undefined","NA","NA","NA","8459","8459","black","no","legacy","legacy","legacy","0","green","(0, 123, 0)","color","present","highProb","rectangular","swap","same","swap","same","red","(177, 0, 0)","lowProb","lowProb3","rectangular","uniform","1","undefined","0","0.114583333333","1","1","176.083333333","1","22","33808","0","0","0","0","0","0","0","0","52","0","1","0.114583333333","176.083333333","22","33808","51","51","51","12/03/18 12:04:46","Default description","yes","<openexp._canvas.legacy.Legacy object at 0x044CD690>","<openexp._canvas.legacy.Legacy object at 0x04501BD0>","<openexp._canvas.legacy.Legacy object at 0x042B7430>","<openexp._canvas.legacy.Legacy object at 0x042AFA10>","<openexp._canvas.legacy.Legacy object at 0x04292290>","<openexp._canvas.legacy.Legacy object at 0x044C3350>","<openexp._canvas.legacy.Legacy object at 0x044F7E10>","<openexp._canvas.legacy.Legacy object at 0x042C9610>","75","SpatProbMultiple3.osexp","C:/Userdata/Michel/SpatProbMultiple3","no","mono","no","18","no","white","no","yes","0.09","98","1050","legacy","315","26","26","1","C:/Userdata/Michel/SpatProbMultiple3/beh/subject-46.csv","legacy","9","192","25","Kafkaesque Koffka","3.2.5","yes","598477b2b83f69022949e7e9","47","green","rectangular","red","rectangular","0","/","758","space","8459","8459","(80, 80, 80)","(0, 123, 0)","(177, 0, 0)","(155, 155, 155)","2","legacy","experiment","[5, 6, 7, 0, 1, 2, 3, 4]","/","2500","3000","0","8","252.758751519","1024","2","48000","-16","main","[(0, -252), (178, -178), (252, 0), (178, 178), (0, 252), (-178, 178), (-252, 0), (-178, -178)]","[]","46","even","0","NA","4583913","4648380","4648380","4475181","4474169","2039","4511555","4511555","2039","2039","4483641","4725126","2037","4648380","4724365","4723416","4723416","NA","939","study_X","0","8459","1","yes","1680"
"undefined","undefined","NA","NA","NA","8459","8459","black","no","legacy","legacy","legacy","0","red","(177, 0, 0)","shape","present","lowProb2","rectangular","swap","same","same","swap","red","(177, 0, 0)","lowProb","lowProb6","circular","uniform","1","undefined","0","0.119791666667","1","1","188.067708333","1","23","36109","0","0","0","0","0","0","0","0","53","0","1","0.119791666667","188.067708333","23","36109","52","52","52","12/03/18 12:04:46","Default description","yes","<openexp._canvas.legacy.Legacy object at 0x044CD690>","<openexp._canvas.legacy.Legacy object at 0x04501BD0>","<openexp._canvas.legacy.Legacy object at 0x042B7430>","<openexp._canvas.legacy.Legacy object at 0x042AFA10>","<openexp._canvas.legacy.Legacy object at 0x04292290>","<openexp._canvas.legacy.Legacy object at 0x044C3350>","<openexp._canvas.legacy.Legacy object at 0x044CD450>","<openexp._canvas.legacy.Legacy object at 0x042C9610>","75","SpatProbMultiple3.osexp","C:/Userdata/Michel/SpatProbMultiple3","no","mono","no","18","no","white","no","yes","0.09","98","1050","legacy","315","27","27","1","C:/Userdata/Michel/SpatProbMultiple3/beh/subject-46.csv","legacy","9","192","25","Kafkaesque Koffka","3.2.5","yes","598477b2b83f69022949e7e9","47","red","rectangular","red","circular","0","/","2301","space","8459","8459","(80, 80, 80)","(0, 123, 0)","(177, 0, 0)","(155, 155, 155)","2","legacy","experiment","[5, 6, 7, 0, 1, 2, 3, 4]","/","2500","3000","0","8","252.758751519","1024","2","48000","-16","main","[(0, -252), (178, -178), (252, 0), (178, 178), (0, 252), (-178, 178), (-252, 0), (-178, -178)]","[]","46","even","4","NA","4583913","4648380","4648380","4475181","4474169","2039","4511555","4511555","2039","2039","4483641","4728823","2037","4648380","4726520","4725572","4725572","NA","939","study_X","0","8459","1","yes","1680"
"undefined","undefined","NA","NA","NA","8459","8459","black","no","legacy","legacy","legacy","0","red","(177, 0, 0)","shape","present","lowProb2","circular","same","swap","same","swap","red","(177, 0, 0)","highProbShape","highProbShape","rectangular","uniform","1","undefined","0","0.125","1","1","192.875","1","24","37032","0","0","0","0","0","0","0","0","54","0","1","0.125","192.875","24","37032","53","53","53","12/03/18 12:04:46","Default description","yes","<openexp._canvas.legacy.Legacy object at 0x044CD690>","<openexp._canvas.legacy.Legacy object at 0x04501BD0>","<openexp._canvas.legacy.Legacy object at 0x042B7430>","<openexp._canvas.legacy.Legacy object at 0x042AFA10>","<openexp._canvas.legacy.Legacy object at 0x04292290>","<openexp._canvas.legacy.Legacy object at 0x044C3350>","<openexp._canvas.legacy.Legacy object at 0x044CD090>","<openexp._canvas.legacy.Legacy object at 0x042C9610>","75","SpatProbMultiple3.osexp","C:/Userdata/Michel/SpatProbMultiple3","no","mono","no","18","no","white","no","yes","0.09","98","1050","legacy","315","28","28","1","C:/Userdata/Michel/SpatProbMultiple3/beh/subject-46.csv","legacy","9","192","25","Kafkaesque Koffka","3.2.5","yes","598477b2b83f69022949e7e9","47","red","circular","red","rectangular","0","/","923","space","8459","8459","(80, 80, 80)","(0, 123, 0)","(177, 0, 0)","(155, 155, 155)","2","legacy","experiment","[5, 6, 7, 0, 1, 2, 3, 4]","/","2500","3000","0","8","252.758751519","1024","2","48000","-16","main","[(0, -252), (178, -178), (252, 0), (178, 178), (0, 252), (-178, 178), (-252, 0), (-178, -178)]","[]","46","even","1","NA","4583913","4648380","4648380","4475181","4474169","2039","4511555","4511555","2039","2039","4483641","4731135","2037","4648380","4730209","4729261","4729261","NA","939","study_X","0","8459","1","yes","1680"
"undefined","undefined","NA","NA","NA","8459","8459","black","no","legacy","legacy","legacy","0","green","(0, 123, 0)","shape","present","lowProb5","rectangular","swap","swap","swap","swap","green","(0, 123, 0)","lowProb","lowProb3","circular","uniform","1","undefined","0","0.130208333333","1","1","198.869791667","1","25","38183","0","0","0","0","0","0","0","0","55","0","1","0.130208333333","198.869791667","25","38183","54","54","54","12/03/18 12:04:46","Default description","yes","<openexp._canvas.legacy.Legacy object at 0x044CD690>","<openexp._canvas.legacy.Legacy object at 0x04501BD0>","<openexp._canvas.legacy.Legacy object at 0x042B7430>","<openexp._canvas.legacy.Legacy object at 0x042AFA10>","<openexp._canvas.legacy.Legacy object at 0x04292290>","<openexp._canvas.legacy.Legacy object at 0x044C3350>","<openexp._canvas.legacy.Legacy object at 0x04510310>","<openexp._canvas.legacy.Legacy object at 0x042C9610>","75","SpatProbMultiple3.osexp","C:/Userdata/Michel/SpatProbMultiple3","no","mono","no","18","no","white","no","yes","0.09","98","1050","legacy","315","29","29","1","C:/Userdata/Michel/SpatProbMultiple3/beh/subject-46.csv","legacy","9","192","25","Kafkaesque Koffka","3.2.5","yes","598477b2b83f69022949e7e9","47","green","rectangular","green","circular","0","/","1151","space","8459","8459","(80, 80, 80)","(0, 123, 0)","(177, 0, 0)","(155, 155, 155)","2","legacy","experiment","[5, 6, 7, 0, 1, 2, 3, 4]","/","2500","3000","0","8","252.758751519","1024","2","48000","-16","main","[(0, -252), (178, -178), (252, 0), (178, 178), (0, 252), (-178, 178), (-252, 0), (-178, -178)]","[]","46","even","0","NA","4583913","4648380","4648380","4475181","4474169","2039","4511555","4511555","2039","2039","4483641","4733687","2037","4648380","4732533","4731585","4731585","NA","939","study_X","0","8459","1","yes","1680"
"undefined","undefined","NA","NA","NA","8459","8459","black","no","legacy","legacy","legacy","0","red","(177, 0, 0)","color","present","highProb","rectangular","swap","same","same","swap","green","(0, 123, 0)","lowProb","lowProb2","rectangular","uniform","1","undefined","0","0.135416666667","1","1","204.895833333","1","26","39340","0","0","0","0","0","0","0","0","56","0","1","0.135416666667","204.895833333","26","39340","55","55","55","12/03/18 12:04:46","Default description","yes","<openexp._canvas.legacy.Legacy object at 0x044CD690>","<openexp._canvas.legacy.Legacy object at 0x04501BD0>","<openexp._canvas.legacy.Legacy object at 0x042B7430>","<openexp._canvas.legacy.Legacy object at 0x042AFA10>","<openexp._canvas.legacy.Legacy object at 0x04292290>","<openexp._canvas.legacy.Legacy object at 0x044C3350>","<openexp._canvas.legacy.Legacy object at 0x045A5FD0>","<openexp._canvas.legacy.Legacy object at 0x042C9610>","75","SpatProbMultiple3.osexp","C:/Userdata/Michel/SpatProbMultiple3","no","mono","no","18","no","white","no","yes","0.09","98","1050","legacy","45","30","30","1","C:/Userdata/Michel/SpatProbMultiple3/beh/subject-46.csv","legacy","9","192","25","Kafkaesque Koffka","3.2.5","yes","598477b2b83f69022949e7e9","47","red","rectangular","green","rectangular","0","\","1157","space","8459","8459","(80, 80, 80)","(0, 123, 0)","(177, 0, 0)","(155, 155, 155)","2","legacy","experiment","[5, 6, 7, 0, 1, 2, 3, 4]","\","2500","3000","0","8","252.758751519","1024","2","48000","-16","main","[(0, -252), (178, -178), (252, 0), (178, 178), (0, 252), (-178, 178), (-252, 0), (-178, -178)]","[]","46","even","7","NA","4583913","4648380","4648380","4475181","4474169","2039","4511555","4511555","2039","2039","4483641","4736239","2037","4648380","4735078","4734130","4734130","NA","939","study_X","0","8459","1","yes","1680"
"undefined","undefined","NA","NA","NA","8459","8459","black","no","legacy","legacy","legacy","0","red","(177, 0, 0)","color","present","highProb","circular","same","swap","same","swap","green","(0, 123, 0)","lowProb","lowProb3","circular","uniform","1","undefined","0","0.140625","1","1","211.598958333","1","27","40627","0","0","0","0","0","0","0","0","57","0","1","0.140625","211.598958333","27","40627","56","56","56","12/03/18 12:04:46","Default description","yes","<openexp._canvas.legacy.Legacy object at 0x044CD690>","<openexp._canvas.legacy.Legacy object at 0x04501BD0>","<openexp._canvas.legacy.Legacy object at 0x042B7430>","<openexp._canvas.legacy.Legacy object at 0x042AFA10>","<openexp._canvas.legacy.Legacy object at 0x04292290>","<openexp._canvas.legacy.Legacy object at 0x044C3350>","<openexp._canvas.legacy.Legacy object at 0x0450E910>","<openexp._canvas.legacy.Legacy object at 0x042C9610>","75","SpatProbMultiple3.osexp","C:/Userdata/Michel/SpatProbMultiple3","no","mono","no","18","no","white","no","yes","0.09","98","1050","legacy","45","31","31","1","C:/Userdata/Michel/SpatProbMultiple3/beh/subject-46.csv","legacy","9","192","25","Kafkaesque Koffka","3.2.5","yes","598477b2b83f69022949e7e9","47","red","circular","green","circular","0","\","1287","space","8459","8459","(80, 80, 80)","(0, 123, 0)","(177, 0, 0)","(155, 155, 155)","2","legacy","experiment","[5, 6, 7, 0, 1, 2, 3, 4]","\","2500","3000","0","8","252.758751519","1024","2","48000","-16","main","[(0, -252), (178, -178), (252, 0), (178, 178), (0, 252), (-178, 178), (-252, 0), (-178, -178)]","[]","46","even","0","NA","4583913","4648380","4648380","4475181","4474169","2039","4511555","4511555","2039","2039","4483641","4738934","2037","4648380","4737645","4736696","4736696","NA","939","study_X","0","8459","1","yes","1680"
"undefined","undefined","NA","NA","NA","8459","8459","black","no","legacy","legacy","legacy","0","green","(0, 123, 0)","color","present","lowProb5","circular","swap","same","swap","same","red","(177, 0, 0)","lowProb","lowProb1","circular","uniform","1","undefined","0","0.145833333333","1","1","218.5","1","28","41952","0","0","0","0","0","0","0","0","58","0","1","0.145833333333","218.5","28","41952","57","57","57","12/03/18 12:04:46","Default description","yes","<openexp._canvas.legacy.Legacy object at 0x044CD690>","<openexp._canvas.legacy.Legacy object at 0x04501BD0>","<openexp._canvas.legacy.Legacy object at 0x042B7430>","<openexp._canvas.legacy.Legacy object at 0x042AFA10>","<openexp._canvas.legacy.Legacy object at 0x04292290>","<openexp._canvas.legacy.Legacy object at 0x044C3350>","<openexp._canvas.legacy.Legacy object at 0x045016B0>","<openexp._canvas.legacy.Legacy object at 0x042C9610>","75","SpatProbMultiple3.osexp","C:/Userdata/Michel/SpatProbMultiple3","no","mono","no","18","no","white","no","yes","0.09","98","1050","legacy","45","32","32","1","C:/Userdata/Michel/SpatProbMultiple3/beh/subject-46.csv","legacy","9","192","25","Kafkaesque Koffka","3.2.5","yes","598477b2b83f69022949e7e9","47","green","circular","red","circular","0","\","1325","space","8459","8459","(80, 80, 80)","(0, 123, 0)","(177, 0, 0)","(155, 155, 155)","2","legacy","experiment","[5, 6, 7, 0, 1, 2, 3, 4]","\","2500","3000","0","8","252.758751519","1024","2","48000","-16","main","[(0, -252), (178, -178), (252, 0), (178, 178), (0, 252), (-178, 178), (-252, 0), (-178, -178)]","[]","46","even","6","NA","4583913","4648380","4648380","4475181","4474169","2039","4511555","4511555","2039","2039","4483641","4741654","2037","4648380","4740327","4739379","4739379","NA","939","study_X","0","8459","1","yes","1680"
"undefined","undefined","NA","NA","NA","8459","8459","black","no","legacy","legacy","legacy","0","green","(0, 123, 0)","shape","present","highProb","rectangular","same","swap","swap","same","green","(0, 123, 0)","lowProb","lowProb4","circular","uniform","1","undefined","0","0.151041666667","1","1","224.953125","1","29","43191","0","0","0","0","0","0","0","0","59","0","1","0.151041666667","224.953125","29","43191","58","58","58","12/03/18 12:04:46","Default description","yes","<openexp._canvas.legacy.Legacy object at 0x044CD690>","<openexp._canvas.legacy.Legacy object at 0x04501BD0>","<openexp._canvas.legacy.Legacy object at 0x042B7430>","<openexp._canvas.legacy.Legacy object at 0x042AFA10>","<openexp._canvas.legacy.Legacy object at 0x04292290>","<openexp._canvas.legacy.Legacy object at 0x044C3350>","<openexp._canvas.legacy.Legacy object at 0x045106F0>","<openexp._canvas.legacy.Legacy object at 0x042C9610>","75","SpatProbMultiple3.osexp","C:/Userdata/Michel/SpatProbMultiple3","no","mono","no","18","no","white","no","yes","0.09","98","1050","legacy","45","33","33","1","C:/Userdata/Michel/SpatProbMultiple3/beh/subject-46.csv","legacy","9","192","25","Kafkaesque Koffka","3.2.5","yes","598477b2b83f69022949e7e9","47","green","rectangular","green","circular","0","\","1239","space","8459","8459","(80, 80, 80)","(0, 123, 0)","(177, 0, 0)","(155, 155, 155)","2","legacy","experiment","[5, 6, 7, 0, 1, 2, 3, 4]","\","2500","3000","0","8","252.758751519","1024","2","48000","-16","main","[(0, -252), (178, -178), (252, 0), (178, 178), (0, 252), (-178, 178), (-252, 0), (-178, -178)]","[]","46","even","2","NA","4583913","4648380","4648380","4475181","4474169","2039","4511555","4511555","2039","2039","4483641","4744286","2037","4648380","4743045","4742097","4742097","NA","939","study_X","0","8459","1","yes","1680"
"undefined","undefined","NA","NA","NA","8459","8459","black","no","legacy","legacy","legacy","0","red","(177, 0, 0)","shape","present","highProb","rectangular","swap","same","swap","same","red","(177, 0, 0)","lowProb","lowProb6","circular","uniform","1","undefined","0","0.15625","1","1","230.276041667","1","30","44213","0","0","0","0","0","0","0","0","60","0","1","0.15625","230.276041667","30","44213","59","59","59","12/03/18 12:04:46","Default description","yes","<openexp._canvas.legacy.Legacy object at 0x044CD690>","<openexp._canvas.legacy.Legacy object at 0x04501BD0>","<openexp._canvas.legacy.Legacy object at 0x042B7430>","<openexp._canvas.legacy.Legacy object at 0x042AFA10>","<openexp._canvas.legacy.Legacy object at 0x04292290>","<openexp._canvas.legacy.Legacy object at 0x044C3350>","<openexp._canvas.legacy.Legacy object at 0x044F7CB0>","<openexp._canvas.legacy.Legacy object at 0x042C9610>","75","SpatProbMultiple3.osexp","C:/Userdata/Michel/SpatProbMultiple3","no","mono","no","18","no","white","no","yes","0.09","98","1050","legacy","45","34","34","1","C:/Userdata/Michel/SpatProbMultiple3/beh/subject-46.csv","legacy","9","192","25","Kafkaesque Koffka","3.2.5","yes","598477b2b83f69022949e7e9","47","red","rectangular","red","circular","0","\","1022","space","8459","8459","(80, 80, 80)","(0, 123, 0)","(177, 0, 0)","(155, 155, 155)","2","legacy","experiment","[5, 6, 7, 0, 1, 2, 3, 4]","\","2500","3000","0","8","252.758751519","1024","2","48000","-16","main","[(0, -252), (178, -178), (252, 0), (178, 178), (0, 252), (-178, 178), (-252, 0), (-178, -178)]","[]","46","even","4","NA","4583913","4648380","4648380","4475181","4474169","2039","4511555","4511555","2039","2039","4483641","4746703","2037","4648380","4745678","4744729","4744729","NA","939","study_X","0","8459","1","yes","1680"
"undefined","undefined","NA","NA","NA","8459","8459","black","no","legacy","legacy","legacy","0","red","(177, 0, 0)","color","present","highProb","circular","same","swap","swap","same","green","(0, 123, 0)","lowProb","lowProb5","circular","uniform","1","undefined","0","0.161458333333","1","1","236.59375","1","31","45426","0","0","0","0","0","0","0","0","61","0","1","0.161458333333","236.59375","31","45426","60","60","60","12/03/18 12:04:46","Default description","yes","<openexp._canvas.legacy.Legacy object at 0x044CD690>","<openexp._canvas.legacy.Legacy object at 0x04501BD0>","<openexp._canvas.legacy.Legacy object at 0x042B7430>","<openexp._canvas.legacy.Legacy object at 0x042AFA10>","<openexp._canvas.legacy.Legacy object at 0x04292290>","<openexp._canvas.legacy.Legacy object at 0x044C3350>","<openexp._canvas.legacy.Legacy object at 0x0459F690>","<openexp._canvas.legacy.Legacy object at 0x042C9610>","75","SpatProbMultiple3.osexp","C:/Userdata/Michel/SpatProbMultiple3","no","mono","no","18","no","white","no","yes","0.09","98","1050","legacy","315","35","35","1","C:/Userdata/Michel/SpatProbMultiple3/beh/subject-46.csv","legacy","9","192","25","Kafkaesque Koffka","3.2.5","yes","598477b2b83f69022949e7e9","47","red","circular","green","circular","0","/","1213","space","8459","8459","(80, 80, 80)","(0, 123, 0)","(177, 0, 0)","(155, 155, 155)","2","legacy","experiment","[5, 6, 7, 0, 1, 2, 3, 4]","/","2500","3000","0","8","252.758751519","1024","2","48000","-16","main","[(0, -252), (178, -178), (252, 0), (178, 178), (0, 252), (-178, 178), (-252, 0), (-178, -178)]","[]","46","even","3","NA","4583913","4648380","4648380","4475181","4474169","2039","4511555","4511555","2039","2039","4483641","4749319","2037","4648380","4748102","4747153","4747153","NA","939","study_X","0","8459","1","yes","1680"
"undefined","undefined","NA","NA","NA","8459","8459","black","no","legacy","legacy","legacy","0","green","(0, 123, 0)","color","present","highProb","circular","swap","same","swap","same","red","(177, 0, 0)","lowProb","lowProb6","circular","uniform","1","undefined","0","0.166666666667","1","1","245.453125","1","32","47127","0","0","0","0","0","0","0","0","62","0","1","0.166666666667","245.453125","32","47127","61","61","61","12/03/18 12:04:46","Default description","yes","<openexp._canvas.legacy.Legacy object at 0x044CD690>","<openexp._canvas.legacy.Legacy object at 0x04501BD0>","<openexp._canvas.legacy.Legacy object at 0x042B7430>","<openexp._canvas.legacy.Legacy object at 0x042AFA10>","<openexp._canvas.legacy.Legacy object at 0x04292290>","<openexp._canvas.legacy.Legacy object at 0x044C3350>","<openexp._canvas.legacy.Legacy object at 0x04510310>","<openexp._canvas.legacy.Legacy object at 0x042C9610>","75","SpatProbMultiple3.osexp","C:/Userdata/Michel/SpatProbMultiple3","no","mono","no","18","no","white","no","yes","0.09","98","1050","legacy","315","36","36","1","C:/Userdata/Michel/SpatProbMultiple3/beh/subject-46.csv","legacy","9","192","25","Kafkaesque Koffka","3.2.5","yes","598477b2b83f69022949e7e9","47","green","circular","red","circular","0","/","1701","space","8459","8459","(80, 80, 80)","(0, 123, 0)","(177, 0, 0)","(155, 155, 155)","2","legacy","experiment","[5, 6, 7, 0, 1, 2, 3, 4]","/","2500","3000","0","8","252.758751519","1024","2","48000","-16","main","[(0, -252), (178, -178), (252, 0), (178, 178), (0, 252), (-178, 178), (-252, 0), (-178, -178)]","[]","46","even","4","NA","4583913","4648380","4648380","4475181","4474169","2039","4511555","4511555","2039","2039","4483641","4752423","2037","4648380","4750718","4749769","4749769","NA","939","study_X","0","8459","1","yes","1680"
"undefined","undefined","NA","NA","NA","8459","8459","black","no","legacy","legacy","legacy","0","green","(0, 123, 0)","color","present","highProb","rectangular","same","swap","same","swap","red","(177, 0, 0)","lowProb","lowProb4","rectangular","uniform","1","undefined","0","0.171875","1","1","250.453125","1","33","48087","0","0","0","0","0","0","0","0","63","0","1","0.171875","250.453125","33","48087","62","62","62","12/03/18 12:04:46","Default description","yes","<openexp._canvas.legacy.Legacy object at 0x044CD690>","<openexp._canvas.legacy.Legacy object at 0x04501BD0>","<openexp._canvas.legacy.Legacy object at 0x042B7430>","<openexp._canvas.legacy.Legacy object at 0x042AFA10>","<openexp._canvas.legacy.Legacy object at 0x04292290>","<openexp._canvas.legacy.Legacy object at 0x044C3350>","<openexp._canvas.legacy.Legacy object at 0x04501950>","<openexp._canvas.legacy.Legacy object at 0x042C9610>","75","SpatProbMultiple3.osexp","C:/Userdata/Michel/SpatProbMultiple3","no","mono","no","18","no","white","no","yes","0.09","98","1050","legacy","45","37","37","1","C:/Userdata/Michel/SpatProbMultiple3/beh/subject-46.csv","legacy","9","192","25","Kafkaesque Koffka","3.2.5","yes","598477b2b83f69022949e7e9","47","green","rectangular","red","rectangular","0","\","960","space","8459","8459","(80, 80, 80)","(0, 123, 0)","(177, 0, 0)","(155, 155, 155)","2","legacy","experiment","[5, 6, 7, 0, 1, 2, 3, 4]","\","2500","3000","0","8","252.758751519","1024","2","48000","-16","main","[(0, -252), (178, -178), (252, 0), (178, 178), (0, 252), (-178, 178), (-252, 0), (-178, -178)]","[]","46","even","2","NA","4583913","4648380","4648380","4475181","4474169","2039","4511555","4511555","2039","2039","4483641","4754766","2037","4648380","4753803","4752854","4752854","NA","939","study_X","0","8459","1","yes","1680"
"undefined","undefined","NA","NA","NA","8459","8459","black","no","legacy","legacy","legacy","0","green","(0, 123, 0)","color","present","highProbOther","rectangular","same","same","same","same","red","(177, 0, 0)","highProbColor","highProbColor","rectangular","uniform","1","undefined","0","0.177083333333","1","1","257.979166667","1","34","49532","0","0","0","0","0","0","0","0","64","0","1","0.177083333333","257.979166667","34","49532","63","63","63","12/03/18 12:04:46","Default description","yes","<openexp._canvas.legacy.Legacy object at 0x044CD690>","<openexp._canvas.legacy.Legacy object at 0x04501BD0>","<openexp._canvas.legacy.Legacy object at 0x042B7430>","<openexp._canvas.legacy.Legacy object at 0x042AFA10>","<openexp._canvas.legacy.Legacy object at 0x04292290>","<openexp._canvas.legacy.Legacy object at 0x044C3350>","<openexp._canvas.legacy.Legacy object at 0x044CDF90>","<openexp._canvas.legacy.Legacy object at 0x042C9610>","75","SpatProbMultiple3.osexp","C:/Userdata/Michel/SpatProbMultiple3","no","mono","no","18","no","white","no","yes","0.09","98","1050","legacy","45","38","38","1","C:/Userdata/Michel/SpatProbMultiple3/beh/subject-46.csv","legacy","9","192","25","Kafkaesque Koffka","3.2.5","yes","598477b2b83f69022949e7e9","47","green","rectangular","red","rectangular","0","\","1445","space","8459","8459","(80, 80, 80)","(0, 123, 0)","(177, 0, 0)","(155, 155, 155)","2","legacy","experiment","[5, 6, 7, 0, 1, 2, 3, 4]","\","2500","3000","0","8","252.758751519","1024","2","48000","-16","main","[(0, -252), (178, -178), (252, 0), (178, 178), (0, 252), (-178, 178), (-252, 0), (-178, -178)]","[]","46","even","5","NA","4583913","4648380","4648380","4475181","4474169","2039","4511555","4511555","2039","2039","4483641","4757622","2037","4648380","4756175","4755227","4755227","NA","939","study_X","0","8459","1","yes","1680"
"undefined","undefined","NA","NA","NA","8459","8459","black","no","legacy","legacy","legacy","0","green","(0, 123, 0)","shape","present","highProb","rectangular","same","same","swap","swap","green","(0, 123, 0)","lowProb","lowProb6","circular","uniform","1","undefined","0","0.182291666667","1","1","264.84375","1","35","50850","0","0","0","0","0","0","0","0","65","0","1","0.182291666667","264.84375","35","50850","64","64","64","12/03/18 12:04:46","Default description","yes","<openexp._canvas.legacy.Legacy object at 0x044CD690>","<openexp._canvas.legacy.Legacy object at 0x04501BD0>","<openexp._canvas.legacy.Legacy object at 0x042B7430>","<openexp._canvas.legacy.Legacy object at 0x042AFA10>","<openexp._canvas.legacy.Legacy object at 0x04292290>","<openexp._canvas.legacy.Legacy object at 0x044C3350>","<openexp._canvas.legacy.Legacy object at 0x045011B0>","<openexp._canvas.legacy.Legacy object at 0x042C9610>","75","SpatProbMultiple3.osexp","C:/Userdata/Michel/SpatProbMultiple3","no","mono","no","18","no","white","no","yes","0.09","98","1050","legacy","315","39","39","1","C:/Userdata/Michel/SpatProbMultiple3/beh/subject-46.csv","legacy","9","192","25","Kafkaesque Koffka","3.2.5","yes","598477b2b83f69022949e7e9","47","green","rectangular","green","circular","0","/","1318","space","8459","8459","(80, 80, 80)","(0, 123, 0)","(177, 0, 0)","(155, 155, 155)","2","legacy","experiment","[5, 6, 7, 0, 1, 2, 3, 4]","/","2500","3000","0","8","252.758751519","1024","2","48000","-16","main","[(0, -252), (178, -178), (252, 0), (178, 178), (0, 252), (-178, 178), (-252, 0), (-178, -178)]","[]","46","even","4","NA","4583913","4648380","4648380","4475181","4474169","2039","4511555","4511555","2039","2039","4483641","4760334","2037","4648380","4759013","4758064","4758064","NA","939","study_X","0","8459","1","yes","1680"
"undefined","undefined","NA","NA","NA","8459","8459","black","no","legacy","legacy","legacy","0","green","(0, 123, 0)","color","absent","lowProb2","rectangular","same","same","same","swap","green","(0, 123, 0)","lowProb","lowProb4","rectangular","uniform","1","undefined","0","0.1875","1","1","269.432291667","1","36","51731","0","0","0","0","0","0","0","0","66","0","1","0.1875","269.432291667","36","51731","65","65","65","12/03/18 12:04:46","Default description","yes","<openexp._canvas.legacy.Legacy object at 0x044CD690>","<openexp._canvas.legacy.Legacy object at 0x04501BD0>","<openexp._canvas.legacy.Legacy object at 0x042B7430>","<openexp._canvas.legacy.Legacy object at 0x042AFA10>","<openexp._canvas.legacy.Legacy object at 0x04292290>","<openexp._canvas.legacy.Legacy object at 0x044C3350>","<openexp._canvas.legacy.Legacy object at 0x045A5510>","<openexp._canvas.legacy.Legacy object at 0x042C9610>","75","SpatProbMultiple3.osexp","C:/Userdata/Michel/SpatProbMultiple3","no","mono","no","18","no","white","no","yes","0.09","98","1050","legacy","315","40","40","1","C:/Userdata/Michel/SpatProbMultiple3/beh/subject-46.csv","legacy","9","192","25","Kafkaesque Koffka","3.2.5","yes","598477b2b83f69022949e7e9","47","green","rectangular","green","rectangular","0","/","881","space","8459","8459","(80, 80, 80)","(0, 123, 0)","(177, 0, 0)","(155, 155, 155)","2","legacy","experiment","[5, 6, 7, 0, 1, 2, 3, 4]","/","2500","3000","0","8","252.758751519","1024","2","48000","-16","main","[(0, -252), (178, -178), (252, 0), (178, 178), (0, 252), (-178, 178), (-252, 0), (-178, -178)]","[]","46","even","2","NA","4583913","4648380","4648380","4475181","4474169","2039","4511555","4511555","2039","2039","4483641","4762607","2037","4648380","4761723","4760775","4760775","NA","939","study_X","0","8459","1","yes","1680"
"undefined","undefined","NA","NA","NA","8459","8459","black","no","legacy","legacy","legacy","0","green","(0, 123, 0)","color","present","highProb","circular","same","swap","swap","swap","red","(177, 0, 0)","lowProb","lowProb4","circular","uniform","1","undefined","0","0.192708333333","1","1","278.666666667","1","37","53504","0","0","0","0","0","0","0","0","67","0","1","0.192708333333","278.666666667","37","53504","66","66","66","12/03/18 12:04:46","Default description","yes","<openexp._canvas.legacy.Legacy object at 0x044CD690>","<openexp._canvas.legacy.Legacy object at 0x04501BD0>","<openexp._canvas.legacy.Legacy object at 0x042B7430>","<openexp._canvas.legacy.Legacy object at 0x042AFA10>","<openexp._canvas.legacy.Legacy object at 0x04292290>","<openexp._canvas.legacy.Legacy object at 0x044C3350>","<openexp._canvas.legacy.Legacy object at 0x0450E390>","<openexp._canvas.legacy.Legacy object at 0x042C9610>","75","SpatProbMultiple3.osexp","C:/Userdata/Michel/SpatProbMultiple3","no","mono","no","18","no","white","no","yes","0.09","98","1050","legacy","315","41","41","1","C:/Userdata/Michel/SpatProbMultiple3/beh/subject-46.csv","legacy","9","192","25","Kafkaesque Koffka","3.2.5","yes","598477b2b83f69022949e7e9","47","green","circular","red","circular","0","/","1773","space","8459","8459","(80, 80, 80)","(0, 123, 0)","(177, 0, 0)","(155, 155, 155)","2","legacy","experiment","[5, 6, 7, 0, 1, 2, 3, 4]","/","2500","3000","0","8","252.758751519","1024","2","48000","-16","main","[(0, -252), (178, -178), (252, 0), (178, 178), (0, 252), (-178, 178), (-252, 0), (-178, -178)]","[]","46","even","2","NA","4583913","4648380","4648380","4475181","4474169","2039","4511555","4511555","2039","2039","4483641","4765767","2037","4648380","4763991","4763042","4763042","NA","939","study_X","0","8459","1","yes","1680"
"undefined","undefined","NA","NA","NA","8459","8459","black","no","legacy","legacy","legacy","0","red","(177, 0, 0)","color","present","highProb","rectangular","swap","swap","swap","swap","green","(0, 123, 0)","lowProb","lowProb1","rectangular","uniform","1","undefined","0","0.197916666667","1","1","285.260416667","1","38","54770","0","0","0","0","0","0","0","0","68","0","1","0.197916666667","285.260416667","38","54770","67","67","67","12/03/18 12:04:46","Default description","yes","<openexp._canvas.legacy.Legacy object at 0x044CD690>","<openexp._canvas.legacy.Legacy object at 0x04501BD0>","<openexp._canvas.legacy.Legacy object at 0x042B7430>","<openexp._canvas.legacy.Legacy object at 0x042AFA10>","<openexp._canvas.legacy.Legacy object at 0x04292290>","<openexp._canvas.legacy.Legacy object at 0x044C3350>","<openexp._canvas.legacy.Legacy object at 0x0450EFD0>","<openexp._canvas.legacy.Legacy object at 0x042C9610>","75","SpatProbMultiple3.osexp","C:/Userdata/Michel/SpatProbMultiple3","no","mono","no","18","no","white","no","yes","0.09","98","1050","legacy","315","42","42","1","C:/Userdata/Michel/SpatProbMultiple3/beh/subject-46.csv","legacy","9","192","25","Kafkaesque Koffka","3.2.5","yes","598477b2b83f69022949e7e9","47","red","rectangular","green","rectangular","0","/","1266","space","8459","8459","(80, 80, 80)","(0, 123, 0)","(177, 0, 0)","(155, 155, 155)","2","legacy","experiment","[5, 6, 7, 0, 1, 2, 3, 4]","/","2500","3000","0","8","252.758751519","1024","2","48000","-16","main","[(0, -252), (178, -178), (252, 0), (178, 178), (0, 252), (-178, 178), (-252, 0), (-178, -178)]","[]","46","even","6","NA","4583913","4648380","4648380","4475181","4474169","2039","4511555","4511555","2039","2039","4483641","4768431","2037","4648380","4767161","4766213","4766213","NA","939","study_X","0","8459","1","yes","1680"
"undefined","undefined","NA","NA","NA","8459","8459","black","no","legacy","legacy","legacy","0","green","(0, 123, 0)","shape","present","highProb","rectangular","swap","same","same","swap","green","(0, 123, 0)","lowProb","lowProb5","circular","uniform","0","undefined","0","0.197916666667","1","1","295.520833333","1","38","56740","0","0","0","0","0","0","0","0","69","0","1","0.197916666667","295.520833333","38","56740","68","68","68","12/03/18 12:04:46","Default description","yes","<openexp._canvas.legacy.Legacy object at 0x044CD690>","<openexp._canvas.legacy.Legacy object at 0x04501BD0>","<openexp._canvas.legacy.Legacy object at 0x042B7430>","<openexp._canvas.legacy.Legacy object at 0x042AFA10>","<openexp._canvas.legacy.Legacy object at 0x04292290>","<openexp._canvas.legacy.Legacy object at 0x044C3350>","<openexp._canvas.legacy.Legacy object at 0x045106B0>","<openexp._canvas.legacy.Legacy object at 0x042C9610>","75","SpatProbMultiple3.osexp","C:/Userdata/Michel/SpatProbMultiple3","no","mono","no","18","no","white","no","yes","0.09","98","1050","legacy","45","43","43","1","C:/Userdata/Michel/SpatProbMultiple3/beh/subject-46.csv","legacy","9","192","25","Kafkaesque Koffka","3.2.5","yes","598477b2b83f69022949e7e9","47","green","rectangular","green","circular","0","/","1970","space","8459","8459","(80, 80, 80)","(0, 123, 0)","(177, 0, 0)","(155, 155, 155)","2","legacy","experiment","[5, 6, 7, 0, 1, 2, 3, 4]","\","2500","3000","0","8","252.758751519","1024","2","48000","-16","main","[(0, -252), (178, -178), (252, 0), (178, 178), (0, 252), (-178, 178), (-252, 0), (-178, -178)]","[]","46","even","3","NA","4583913","4648380","4648380","4475181","4474169","2039","4511555","4511555","2039","2039","4483641","4771798","2037","4648380","4769826","4768877","4768877","NA","939","study_X","0","8459","1","yes","1680"
"undefined","undefined","NA","NA","NA","8459","8459","black","no","legacy","legacy","legacy","0","green","(0, 123, 0)","color","absent","highProb","circular","same","swap","same","same","green","(0, 123, 0)","lowProb","lowProb6","circular","uniform","1","undefined","0","0.203125","1","1","300.526041667","1","39","57701","0","0","0","0","0","0","0","0","70","0","1","0.203125","300.526041667","39","57701","69","69","69","12/03/18 12:04:46","Default description","yes","<openexp._canvas.legacy.Legacy object at 0x044CD690>","<openexp._canvas.legacy.Legacy object at 0x04501BD0>","<openexp._canvas.legacy.Legacy object at 0x042B7430>","<openexp._canvas.legacy.Legacy object at 0x042AFA10>","<openexp._canvas.legacy.Legacy object at 0x04292290>","<openexp._canvas.legacy.Legacy object at 0x044C3350>","<openexp._canvas.legacy.Legacy object at 0x044AF650>","<openexp._canvas.legacy.Legacy object at 0x042C9610>","75","SpatProbMultiple3.osexp","C:/Userdata/Michel/SpatProbMultiple3","no","mono","no","18","no","white","no","yes","0.09","98","1050","legacy","45","44","44","1","C:/Userdata/Michel/SpatProbMultiple3/beh/subject-46.csv","legacy","9","192","25","Kafkaesque Koffka","3.2.5","yes","598477b2b83f69022949e7e9","47","green","circular","green","circular","0","\","961","space","8459","8459","(80, 80, 80)","(0, 123, 0)","(177, 0, 0)","(155, 155, 155)","2","legacy","experiment","[5, 6, 7, 0, 1, 2, 3, 4]","\","2500","3000","0","8","252.758751519","1024","2","48000","-16","main","[(0, -252), (178, -178), (252, 0), (178, 178), (0, 252), (-178, 178), (-252, 0), (-178, -178)]","[]","46","even","4","NA","4583913","4648380","4648380","4475181","4474169","2039","4511555","4511555","2039","2039","4483641","4774158","2037","4648380","4773194","4772245","4772245","NA","939","study_X","0","8459","1","yes","1680"
"undefined","undefined","NA","NA","NA","8459","8459","black","no","legacy","legacy","legacy","0","red","(177, 0, 0)","shape","present","highProb","rectangular","swap","swap","swap","same","red","(177, 0, 0)","highProbColor","highProbColor","circular","uniform","1","undefined","0","0.208333333333","1","1","305.59375","1","40","58674","0","0","0","0","0","0","0","0","71","0","1","0.208333333333","305.59375","40","58674","70","70","70","12/03/18 12:04:46","Default description","yes","<openexp._canvas.legacy.Legacy object at 0x044CD690>","<openexp._canvas.legacy.Legacy object at 0x04501BD0>","<openexp._canvas.legacy.Legacy object at 0x042B7430>","<openexp._canvas.legacy.Legacy object at 0x042AFA10>","<openexp._canvas.legacy.Legacy object at 0x04292290>","<openexp._canvas.legacy.Legacy object at 0x044C3350>","<openexp._canvas.legacy.Legacy object at 0x045011B0>","<openexp._canvas.legacy.Legacy object at 0x042C9610>","75","SpatProbMultiple3.osexp","C:/Userdata/Michel/SpatProbMultiple3","no","mono","no","18","no","white","no","yes","0.09","98","1050","legacy","45","45","45","1","C:/Userdata/Michel/SpatProbMultiple3/beh/subject-46.csv","legacy","9","192","25","Kafkaesque Koffka","3.2.5","yes","598477b2b83f69022949e7e9","47","red","rectangular","red","circular","0","\","973","space","8459","8459","(80, 80, 80)","(0, 123, 0)","(177, 0, 0)","(155, 155, 155)","2","legacy","experiment","[5, 6, 7, 0, 1, 2, 3, 4]","\","2500","3000","0","8","252.758751519","1024","2","48000","-16","main","[(0, -252), (178, -178), (252, 0), (178, 178), (0, 252), (-178, 178), (-252, 0), (-178, -178)]","[]","46","even","5","NA","4583913","4648380","4648380","4475181","4474169","2039","4511555","4511555","2039","2039","4483641","4776526","2037","4648380","4775551","4774602","4774602","NA","939","study_X","0","8459","1","yes","1680"
"undefined","undefined","NA","NA","NA","8459","8459","black","no","legacy","legacy","legacy","0","red","(177, 0, 0)","color","present","highProb","circular","same","swap","swap","same","green","(0, 123, 0)","lowProb","lowProb6","circular","uniform","1","undefined","0","0.213541666667","1","1","314.09375","1","41","60306","0","0","0","0","0","0","0","0","72","0","1","0.213541666667","314.09375","41","60306","71","71","71","12/03/18 12:04:46","Default description","yes","<openexp._canvas.legacy.Legacy object at 0x044CD690>","<openexp._canvas.legacy.Legacy object at 0x04501BD0>","<openexp._canvas.legacy.Legacy object at 0x042B7430>","<openexp._canvas.legacy.Legacy object at 0x042AFA10>","<openexp._canvas.legacy.Legacy object at 0x04292290>","<openexp._canvas.legacy.Legacy object at 0x044C3350>","<openexp._canvas.legacy.Legacy object at 0x045248F0>","<openexp._canvas.legacy.Legacy object at 0x042C9610>","75","SpatProbMultiple3.osexp","C:/Userdata/Michel/SpatProbMultiple3","no","mono","no","18","no","white","no","yes","0.09","98","1050","legacy","315","46","46","1","C:/Userdata/Michel/SpatProbMultiple3/beh/subject-46.csv","legacy","9","192","25","Kafkaesque Koffka","3.2.5","yes","598477b2b83f69022949e7e9","47","red","circular","green","circular","0","/","1632","space","8459","8459","(80, 80, 80)","(0, 123, 0)","(177, 0, 0)","(155, 155, 155)","2","legacy","experiment","[5, 6, 7, 0, 1, 2, 3, 4]","/","2500","3000","0","8","252.758751519","1024","2","48000","-16","main","[(0, -252), (178, -178), (252, 0), (178, 178), (0, 252), (-178, 178), (-252, 0), (-178, -178)]","[]","46","even","4","NA","4583913","4648380","4648380","4475181","4474169","2039","4511555","4511555","2039","2039","4483641","4779566","2037","4648380","4777930","4776982","4776982","NA","939","study_X","0","8459","1","yes","1680"
"undefined","undefined","NA","NA","NA","8459","8459","black","no","legacy","legacy","legacy","0","green","(0, 123, 0)","shape","present","highProb","rectangular","swap","swap","same","same","green","(0, 123, 0)","lowProb","lowProb4","circular","uniform","1","undefined","0","0.21875","1","1","320.505208333","1","42","61537","0","0","0","0","0","0","0","0","73","0","1","0.21875","320.505208333","42","61537","72","72","72","12/03/18 12:04:46","Default description","yes","<openexp._canvas.legacy.Legacy object at 0x044CD690>","<openexp._canvas.legacy.Legacy object at 0x04501BD0>","<openexp._canvas.legacy.Legacy object at 0x042B7430>","<openexp._canvas.legacy.Legacy object at 0x042AFA10>","<openexp._canvas.legacy.Legacy object at 0x04292290>","<openexp._canvas.legacy.Legacy object at 0x044C3350>","<openexp._canvas.legacy.Legacy object at 0x04510D30>","<openexp._canvas.legacy.Legacy object at 0x042C9610>","75","SpatProbMultiple3.osexp","C:/Userdata/Michel/SpatProbMultiple3","no","mono","no","18","no","white","no","yes","0.09","98","1050","legacy","315","47","47","1","C:/Userdata/Michel/SpatProbMultiple3/beh/subject-46.csv","legacy","9","192","25","Kafkaesque Koffka","3.2.5","yes","598477b2b83f69022949e7e9","47","green","rectangular","green","circular","0","/","1231","space","8459","8459","(80, 80, 80)","(0, 123, 0)","(177, 0, 0)","(155, 155, 155)","2","legacy","experiment","[5, 6, 7, 0, 1, 2, 3, 4]","/","2500","3000","0","8","252.758751519","1024","2","48000","-16","main","[(0, -252), (178, -178), (252, 0), (178, 178), (0, 252), (-178, 178), (-252, 0), (-178, -178)]","[]","46","even","2","NA","4583913","4648380","4648380","4475181","4474169","2039","4511555","4511555","2039","2039","4483641","4782199","2037","4648380","4780964","4780015","4780015","NA","939","study_X","0","8459","1","yes","1680"
"undefined","undefined","NA","NA","NA","8459","8459","black","no","legacy","legacy","legacy","0","green","(0, 123, 0)","shape","present","highProb","rectangular","same","same","same","same","green","(0, 123, 0)","highProbColor","highProbColor","circular","uniform","1","undefined","0","0.223958333333","1","1","329.739583333","1","43","63310","0","0","0","0","0","0","0","0","74","0","1","0.223958333333","329.739583333","43","63310","73","73","73","12/03/18 12:04:46","Default description","yes","<openexp._canvas.legacy.Legacy object at 0x044CD690>","<openexp._canvas.legacy.Legacy object at 0x04501BD0>","<openexp._canvas.legacy.Legacy object at 0x042B7430>","<openexp._canvas.legacy.Legacy object at 0x042AFA10>","<openexp._canvas.legacy.Legacy object at 0x04292290>","<openexp._canvas.legacy.Legacy object at 0x044C3350>","<openexp._canvas.legacy.Legacy object at 0x042B7390>","<openexp._canvas.legacy.Legacy object at 0x042C9610>","75","SpatProbMultiple3.osexp","C:/Userdata/Michel/SpatProbMultiple3","no","mono","no","18","no","white","no","yes","0.09","98","1050","legacy","315","48","48","1","C:/Userdata/Michel/SpatProbMultiple3/beh/subject-46.csv","legacy","9","192","25","Kafkaesque Koffka","3.2.5","yes","598477b2b83f69022949e7e9","47","green","rectangular","green","circular","0","/","1773","space","8459","8459","(80, 80, 80)","(0, 123, 0)","(177, 0, 0)","(155, 155, 155)","2","legacy","experiment","[5, 6, 7, 0, 1, 2, 3, 4]","/","2500","3000","0","8","252.758751519","1024","2","48000","-16","main","[(0, -252), (178, -178), (252, 0), (178, 178), (0, 252), (-178, 178), (-252, 0), (-178, -178)]","[]","46","even","5","NA","4583913","4648380","4648380","4475181","4474169","2039","4511555","4511555","2039","2039","4483641","4785375","2037","4648380","4783598","4782650","4782650","NA","939","study_X","0","8459","1","yes","1680"
"undefined","undefined","NA","NA","NA","8459","8459","black","no","legacy","legacy","legacy","0","red","(177, 0, 0)","shape","present","lowProb5","circular","swap","swap","swap","swap","red","(177, 0, 0)","lowProb","lowProb1","rectangular","uniform","1","undefined","0","0.229166666667","1","1","336.046875","1","44","64521","0","0","0","0","0","0","0","0","75","0","1","0.229166666667","336.046875","44","64521","74","74","74","12/03/18 12:04:46","Default description","yes","<openexp._canvas.legacy.Legacy object at 0x044CD690>","<openexp._canvas.legacy.Legacy object at 0x04501BD0>","<openexp._canvas.legacy.Legacy object at 0x042B7430>","<openexp._canvas.legacy.Legacy object at 0x042AFA10>","<openexp._canvas.legacy.Legacy object at 0x04292290>","<openexp._canvas.legacy.Legacy object at 0x044C3350>","<openexp._canvas.legacy.Legacy object at 0x044AF6D0>","<openexp._canvas.legacy.Legacy object at 0x042C9610>","75","SpatProbMultiple3.osexp","C:/Userdata/Michel/SpatProbMultiple3","no","mono","no","18","no","white","no","yes","0.09","98","1050","legacy","315","49","49","1","C:/Userdata/Michel/SpatProbMultiple3/beh/subject-46.csv","legacy","9","192","25","Kafkaesque Koffka","3.2.5","yes","598477b2b83f69022949e7e9","47","red","circular","red","rectangular","0","/","1211","space","8459","8459","(80, 80, 80)","(0, 123, 0)","(177, 0, 0)","(155, 155, 155)","2","legacy","experiment","[5, 6, 7, 0, 1, 2, 3, 4]","/","2500","3000","0","8","252.758751519","1024","2","48000","-16","main","[(0, -252), (178, -178), (252, 0), (178, 178), (0, 252), (-178, 178), (-252, 0), (-178, -178)]","[]","46","even","6","NA","4583913","4648380","4648380","4475181","4474169","2039","4511555","4511555","2039","2039","4483641","4787974","2037","4648380","4786760","4785812","4785812","NA","939","study_X","0","8459","1","yes","1680"
"undefined","undefined","NA","NA","NA","8459","8459","black","no","legacy","legacy","legacy","0","green","(0, 123, 0)","color","present","highProb","circular","swap","same","same","swap","red","(177, 0, 0)","lowProb","lowProb3","circular","uniform","1","undefined","0","0.234375","1","1","342.614583333","1","45","65782","0","0","0","0","0","0","0","0","76","0","1","0.234375","342.614583333","45","65782","75","75","75","12/03/18 12:04:46","Default description","yes","<openexp._canvas.legacy.Legacy object at 0x044CD690>","<openexp._canvas.legacy.Legacy object at 0x04501BD0>","<openexp._canvas.legacy.Legacy object at 0x042B7430>","<openexp._canvas.legacy.Legacy object at 0x042AFA10>","<openexp._canvas.legacy.Legacy object at 0x04292290>","<openexp._canvas.legacy.Legacy object at 0x044C3350>","<openexp._canvas.legacy.Legacy object at 0x0450EB30>","<openexp._canvas.legacy.Legacy object at 0x042C9610>","75","SpatProbMultiple3.osexp","C:/Userdata/Michel/SpatProbMultiple3","no","mono","no","18","no","white","no","yes","0.09","98","1050","legacy","45","50","50","1","C:/Userdata/Michel/SpatProbMultiple3/beh/subject-46.csv","legacy","9","192","25","Kafkaesque Koffka","3.2.5","yes","598477b2b83f69022949e7e9","47","green","circular","red","circular","0","\","1261","space","8459","8459","(80, 80, 80)","(0, 123, 0)","(177, 0, 0)","(155, 155, 155)","2","legacy","experiment","[5, 6, 7, 0, 1, 2, 3, 4]","\","2500","3000","0","8","252.758751519","1024","2","48000","-16","main","[(0, -252), (178, -178), (252, 0), (178, 178), (0, 252), (-178, 178), (-252, 0), (-178, -178)]","[]","46","even","0","NA","4583913","4648380","4648380","4475181","4474169","2039","4511555","4511555","2039","2039","4483641","4790622","2037","4648380","4789359","4788410","4788410","NA","939","study_X","0","8459","1","yes","1680"
"undefined","undefined","NA","NA","NA","8459","8459","black","no","legacy","legacy","legacy","0","red","(177, 0, 0)","color","present","lowProb4","rectangular","swap","swap","swap","swap","green","(0, 123, 0)","lowProb","lowProb2","rectangular","uniform","0","undefined","0","0.234375","1","1","355.635416667","1","45","68282","0","0","0","0","0","0","0","0","77","0","1","0.234375","355.635416667","45","68282","76","76","76","12/03/18 12:04:46","Default description","yes","<openexp._canvas.legacy.Legacy object at 0x044CD690>","<openexp._canvas.legacy.Legacy object at 0x04501BD0>","<openexp._canvas.legacy.Legacy object at 0x042B7430>","<openexp._canvas.legacy.Legacy object at 0x042AFA10>","<openexp._canvas.legacy.Legacy object at 0x04292290>","<openexp._canvas.legacy.Legacy object at 0x044C3350>","<openexp._canvas.legacy.Legacy object at 0x04518290>","<openexp._canvas.legacy.Legacy object at 0x042C9610>","75","SpatProbMultiple3.osexp","C:/Userdata/Michel/SpatProbMultiple3","no","mono","no","18","no","white","no","yes","0.09","98","1050","legacy","45","51","51","1","C:/Userdata/Michel/SpatProbMultiple3/beh/subject-46.csv","legacy","9","192","25","Kafkaesque Koffka","3.2.5","yes","598477b2b83f69022949e7e9","47","red","rectangular","green","rectangular","0","None","2500","space","8459","8459","(80, 80, 80)","(0, 123, 0)","(177, 0, 0)","(155, 155, 155)","2","legacy","experiment","[5, 6, 7, 0, 1, 2, 3, 4]","\","2500","3000","0","8","252.758751519","1024","2","48000","-16","main","[(0, -252), (178, -178), (252, 0), (178, 178), (0, 252), (-178, 178), (-252, 0), (-178, -178)]","[]","46","even","7","NA","4583913","4648380","4648380","4475181","4474169","2039","4511555","4511555","2039","2039","4483641","4794518","2037","4648380","4792015","4791066","4791066","NA","939","study_X","0","8459","1","yes","1680"
"undefined","undefined","NA","NA","NA","8459","8459","black","no","legacy","legacy","legacy","0","red","(177, 0, 0)","color","present","lowProb5","circular","same","swap","same","swap","green","(0, 123, 0)","lowProb","lowProb3","circular","uniform","1","undefined","0","0.239583333333","1","1","365.828125","1","46","70239","0","0","0","0","0","0","0","0","78","0","1","0.239583333333","365.828125","46","70239","77","77","77","12/03/18 12:04:46","Default description","yes","<openexp._canvas.legacy.Legacy object at 0x044CD690>","<openexp._canvas.legacy.Legacy object at 0x04501BD0>","<openexp._canvas.legacy.Legacy object at 0x042B7430>","<openexp._canvas.legacy.Legacy object at 0x042AFA10>","<openexp._canvas.legacy.Legacy object at 0x04292290>","<openexp._canvas.legacy.Legacy object at 0x044C3350>","<openexp._canvas.legacy.Legacy object at 0x044CD350>","<openexp._canvas.legacy.Legacy object at 0x042C9610>","75","SpatProbMultiple3.osexp","C:/Userdata/Michel/SpatProbMultiple3","no","mono","no","18","no","white","no","yes","0.09","98","1050","legacy","45","52","52","1","C:/Userdata/Michel/SpatProbMultiple3/beh/subject-46.csv","legacy","9","192","25","Kafkaesque Koffka","3.2.5","yes","598477b2b83f69022949e7e9","47","red","circular","green","circular","0","\","1957","space","8459","8459","(80, 80, 80)","(0, 123, 0)","(177, 0, 0)","(155, 155, 155)","2","legacy","experiment","[5, 6, 7, 0, 1, 2, 3, 4]","\","2500","3000","0","8","252.758751519","1024","2","48000","-16","main","[(0, -252), (178, -178), (252, 0), (178, 178), (0, 252), (-178, 178), (-252, 0), (-178, -178)]","[]","46","even","0","NA","4583913","4648380","4648380","4475181","4474169","2039","4511555","4511555","2039","2039","4483641","4797871","2037","4648380","4795911","4794963","4794963","NA","939","study_X","0","8459","1","yes","1680"
