acc,accuracy,answerQ1,answerQ2,answerQ3,average_response_time,avg_rt,background,bidi,canvas_backend,clock_backend,color_backend,compensation,cond_disColor,cond_disColorRGB,cond_disFeature,cond_disPresent,cond_disProbability,cond_disShape,cond_primingDisColor,cond_primingDisShape,cond_primingTarColor,cond_primingTarShape,cond_tarColor,cond_tarColorRGB,cond_tarLocation,cond_tarLocationLong,cond_tarShape,coordinates,correct,correct_continuePress,count_Questions,count_blockAcc,count_blockFeed,count_blockLoop,count_blockRT,count_blockSeq,count_blockSumCorrect,count_blockSumRT,count_continuePress,count_example,count_expSettings,count_exp_mainLoop,count_experiment,count_instructions,count_instructions1,count_instructions2,count_log,count_main,count_prepCanvas,count_totalAcc,count_totalRT,count_totalSumCorrect,count_totalSumRT,count_trialResp,count_trialSeq,count_trialTask,datetime,description,disable_garbage_collection,dispBlank,dispBlockStart,dispFeedBlock,dispFix,dispInstructions,dispQuestions,dispSearch,dispStartScreen,distance2screen,experiment_file,experiment_path,font_bold,font_family,font_italic,font_size,font_underline,foreground,form_clicks,fullscreen,gaborFreq,gaborSize,height,keyboard_backend,lineOriTar,live_row,live_row_blockLoop,live_row_exp_mainLoop,logfile,mouse_backend,noExpBlocks,noExpTrials,noPracTrials,opensesame_codename,opensesame_version,osf_always_upload_experiment,osf_id,physical_screensize,previousDisColor,previousDisShape,previousTarColor,previousTarShape,repeat_cycle,response,responseTime,response_continuePress,response_time,response_time_continuePress,rgb_gray,rgb_green,rgb_red,rgb_white,round_decimals,sampler_backend,set_blockType,set_counterPositions,set_respCorrect,set_respTimeoutExp,set_respTimeoutPrac,set_rotation,set_setSize,sizeImaginary,sound_buf_size,sound_channels,sound_freq,sound_sample_size,start,stimPositions,stimuli,subject_nr,subject_parity,tarIdx,time_Questions,time_blockFeed,time_blockLoop,time_blockSeq,time_continuePress,time_example,time_expSettings,time_exp_mainLoop,time_experiment,time_instructions,time_instructions1,time_instructions2,time_log,time_main,time_prepCanvas,time_trialResp,time_trialSeq,time_trialTask,timing_EEGwait,timing_fix,title,total_correct,total_response_time,total_responses,uniform_coordinates,width
undefined,undefined,NA,NA,NA,16629,16629,black,no,legacy,legacy,legacy,0,green,"(0, 123, 0)",color,present,highProb,circular,swap,swap,same,swap,red,"(177, 0, 0)",lowProb,lowProb6,circular,uniform,1,undefined,0,0.005208333,1,1,8.880208333,1,1,1705,0,0,0,0,0,0,0,0,26,0,1,0.005208333,8.880208333,1,1705,25,25,25,11/28/2018 15:27,Default description,yes,<openexp._canvas.legacy.Legacy object at 0x054665B0>,<openexp._canvas.legacy.Legacy object at 0x054CF750>,<openexp._canvas.legacy.Legacy object at 0x054FE730>,<openexp._canvas.legacy.Legacy object at 0x052FE930>,<openexp._canvas.legacy.Legacy object at 0x052EE190>,<openexp._canvas.legacy.Legacy object at 0x054592B0>,<openexp._canvas.legacy.Legacy object at 0x05303FB0>,<openexp._canvas.legacy.Legacy object at 0x054700D0>,75,SpatProbMultiple3.osexp,C:/Userdata/Michel/SpatProbMultiple3,no,mono,no,18,no,white,no,yes,0.09,98,1050,legacy,315,0,0,1,C:/Userdata/Michel/SpatProbMultiple3/subject-7.csv,legacy,9,192,25,Kafkaesque Koffka,3.2.5,yes,598477b2b83f69022949e7e9,47,green,circular,red,circular,0,/,1705,space,16629,16629,"(80, 80, 80)","(0, 123, 0)","(177, 0, 0)","(155, 155, 155)",2,legacy,experiment,"[6, 7, 0, 1, 2, 3, 4, 5]",/,2500,3000,0,8,252.7587515,1024,2,48000,-16,main,"[(0, -252), (178, -178), (252, 0), (178, 178), (0, 252), (-178, 178), (-252, 0), (-178, -178)]",[],31,odd,5,NA,216136,291579,291579,114354,113344,2255,140242,140242,2255,2255,130983,299742,2251,291579,298034,291968,291969,NA,899,study_X,0,16629,1,yes,1680
undefined,undefined,NA,NA,NA,16629,16629,black,no,legacy,legacy,legacy,0,green,"(0, 123, 0)",color,present,highProb,circular,same,same,same,same,red,"(177, 0, 0)",lowProb,lowProb2,circular,uniform,1,undefined,0,0.010416667,1,1,14.83333333,1,2,2848,0,0,0,0,0,0,0,0,27,0,1,0.010416667,14.83333333,2,2848,26,26,26,11/28/2018 15:27,Default description,yes,<openexp._canvas.legacy.Legacy object at 0x054665B0>,<openexp._canvas.legacy.Legacy object at 0x054CF750>,<openexp._canvas.legacy.Legacy object at 0x054FE730>,<openexp._canvas.legacy.Legacy object at 0x052FE930>,<openexp._canvas.legacy.Legacy object at 0x052EE190>,<openexp._canvas.legacy.Legacy object at 0x054592B0>,<openexp._canvas.legacy.Legacy object at 0x0547E270>,<openexp._canvas.legacy.Legacy object at 0x054700D0>,75,SpatProbMultiple3.osexp,C:/Userdata/Michel/SpatProbMultiple3,no,mono,no,18,no,white,no,yes,0.09,98,1050,legacy,45,1,1,1,C:/Userdata/Michel/SpatProbMultiple3/subject-7.csv,legacy,9,192,25,Kafkaesque Koffka,3.2.5,yes,598477b2b83f69022949e7e9,47,green,circular,red,circular,0,\,1143,space,16629,16629,"(80, 80, 80)","(0, 123, 0)","(177, 0, 0)","(155, 155, 155)",2,legacy,experiment,"[6, 7, 0, 1, 2, 3, 4, 5]",\,2500,3000,0,8,252.7587515,1024,2,48000,-16,main,"[(0, -252), (178, -178), (252, 0), (178, 178), (0, 252), (-178, 178), (-252, 0), (-178, -178)]",[],31,odd,0,NA,216136,291579,291579,114354,113344,2255,140242,140242,2255,2255,130983,302246,2251,291579,301101,300193,300193,NA,899,study_X,0,16629,1,yes,1680
undefined,undefined,NA,NA,NA,16629,16629,black,no,legacy,legacy,legacy,0,green,"(0, 123, 0)",shape,absent,lowProb3,circular,same,same,swap,same,green,"(0, 123, 0)",lowProb,lowProb1,circular,uniform,1,undefined,0,0.015625,1,1,18.55208333,1,3,3562,0,0,0,0,0,0,0,0,28,0,1,0.015625,18.55208333,3,3562,27,27,27,11/28/2018 15:27,Default description,yes,<openexp._canvas.legacy.Legacy object at 0x054665B0>,<openexp._canvas.legacy.Legacy object at 0x054CF750>,<openexp._canvas.legacy.Legacy object at 0x054FE730>,<openexp._canvas.legacy.Legacy object at 0x052FE930>,<openexp._canvas.legacy.Legacy object at 0x052EE190>,<openexp._canvas.legacy.Legacy object at 0x054592B0>,<openexp._canvas.legacy.Legacy object at 0x054D9090>,<openexp._canvas.legacy.Legacy object at 0x054700D0>,75,SpatProbMultiple3.osexp,C:/Userdata/Michel/SpatProbMultiple3,no,mono,no,18,no,white,no,yes,0.09,98,1050,legacy,45,2,2,1,C:/Userdata/Michel/SpatProbMultiple3/subject-7.csv,legacy,9,192,25,Kafkaesque Koffka,3.2.5,yes,598477b2b83f69022949e7e9,47,green,circular,green,circular,0,\,714,space,16629,16629,"(80, 80, 80)","(0, 123, 0)","(177, 0, 0)","(155, 155, 155)",2,legacy,experiment,"[6, 7, 0, 1, 2, 3, 4, 5]",\,2500,3000,0,8,252.7587515,1024,2,48000,-16,main,"[(0, -252), (178, -178), (252, 0), (178, 178), (0, 252), (-178, 178), (-252, 0), (-178, -178)]",[],31,odd,7,NA,216136,291579,291579,114354,113344,2255,140242,140242,2255,2255,130983,304294,2251,291579,303576,302667,302667,NA,899,study_X,0,16629,1,yes,1680
undefined,undefined,NA,NA,NA,16629,16629,black,no,legacy,legacy,legacy,0,green,"(0, 123, 0)",color,present,highProb,circular,same,same,swap,same,red,"(177, 0, 0)",lowProb,lowProb1,circular,uniform,1,undefined,0,0.020833333,1,1,24.671875,1,4,4737,0,0,0,0,0,0,0,0,29,0,1,0.020833333,24.671875,4,4737,28,28,28,11/28/2018 15:27,Default description,yes,<openexp._canvas.legacy.Legacy object at 0x054665B0>,<openexp._canvas.legacy.Legacy object at 0x054CF750>,<openexp._canvas.legacy.Legacy object at 0x054FE730>,<openexp._canvas.legacy.Legacy object at 0x052FE930>,<openexp._canvas.legacy.Legacy object at 0x052EE190>,<openexp._canvas.legacy.Legacy object at 0x054592B0>,<openexp._canvas.legacy.Legacy object at 0x05466030>,<openexp._canvas.legacy.Legacy object at 0x054700D0>,75,SpatProbMultiple3.osexp,C:/Userdata/Michel/SpatProbMultiple3,no,mono,no,18,no,white,no,yes,0.09,98,1050,legacy,315,3,3,1,C:/Userdata/Michel/SpatProbMultiple3/subject-7.csv,legacy,9,192,25,Kafkaesque Koffka,3.2.5,yes,598477b2b83f69022949e7e9,47,green,circular,red,circular,0,/,1175,space,16629,16629,"(80, 80, 80)","(0, 123, 0)","(177, 0, 0)","(155, 155, 155)",2,legacy,experiment,"[6, 7, 0, 1, 2, 3, 4, 5]",/,2500,3000,0,8,252.7587515,1024,2,48000,-16,main,"[(0, -252), (178, -178), (252, 0), (178, 178), (0, 252), (-178, 178), (-252, 0), (-178, -178)]",[],31,odd,7,NA,216136,291579,291579,114354,113344,2255,140242,140242,2255,2255,130983,306806,2251,291579,305628,304720,304720,NA,899,study_X,0,16629,1,yes,1680
undefined,undefined,NA,NA,NA,16629,16629,black,no,legacy,legacy,legacy,0,red,"(177, 0, 0)",color,absent,lowProb5,rectangular,swap,swap,same,swap,red,"(177, 0, 0)",highProbColor,highProbColor,rectangular,uniform,1,undefined,0,0.026041667,1,1,30.32291667,1,5,5822,0,0,0,0,0,0,0,0,30,0,1,0.026041667,30.32291667,5,5822,29,29,29,11/28/2018 15:27,Default description,yes,<openexp._canvas.legacy.Legacy object at 0x054665B0>,<openexp._canvas.legacy.Legacy object at 0x054CF750>,<openexp._canvas.legacy.Legacy object at 0x054FE730>,<openexp._canvas.legacy.Legacy object at 0x052FE930>,<openexp._canvas.legacy.Legacy object at 0x052EE190>,<openexp._canvas.legacy.Legacy object at 0x054592B0>,<openexp._canvas.legacy.Legacy object at 0x054FE490>,<openexp._canvas.legacy.Legacy object at 0x054700D0>,75,SpatProbMultiple3.osexp,C:/Userdata/Michel/SpatProbMultiple3,no,mono,no,18,no,white,no,yes,0.09,98,1050,legacy,45,4,4,1,C:/Userdata/Michel/SpatProbMultiple3/subject-7.csv,legacy,9,192,25,Kafkaesque Koffka,3.2.5,yes,598477b2b83f69022949e7e9,47,red,rectangular,red,rectangular,0,\,1085,space,16629,16629,"(80, 80, 80)","(0, 123, 0)","(177, 0, 0)","(155, 155, 155)",2,legacy,experiment,"[6, 7, 0, 1, 2, 3, 4, 5]",\,2500,3000,0,8,252.7587515,1024,2,48000,-16,main,"[(0, -252), (178, -178), (252, 0), (178, 178), (0, 252), (-178, 178), (-252, 0), (-178, -178)]",[],31,odd,6,NA,216136,291579,291579,114354,113344,2255,140242,140242,2255,2255,130983,309214,2251,291579,308126,307220,307220,NA,899,study_X,0,16629,1,yes,1680
undefined,undefined,NA,NA,NA,16629,16629,black,no,legacy,legacy,legacy,0,green,"(0, 123, 0)",shape,present,lowProb5,circular,swap,swap,swap,same,green,"(0, 123, 0)",lowProb,lowProb4,rectangular,uniform,1,undefined,0,0.03125,1,1,42.30208333,1,6,8122,0,0,0,0,0,0,0,0,31,0,1,0.03125,42.30208333,6,8122,30,30,30,11/28/2018 15:27,Default description,yes,<openexp._canvas.legacy.Legacy object at 0x054665B0>,<openexp._canvas.legacy.Legacy object at 0x054CF750>,<openexp._canvas.legacy.Legacy object at 0x054FE730>,<openexp._canvas.legacy.Legacy object at 0x052FE930>,<openexp._canvas.legacy.Legacy object at 0x052EE190>,<openexp._canvas.legacy.Legacy object at 0x054592B0>,<openexp._canvas.legacy.Legacy object at 0x0547ED50>,<openexp._canvas.legacy.Legacy object at 0x054700D0>,75,SpatProbMultiple3.osexp,C:/Userdata/Michel/SpatProbMultiple3,no,mono,no,18,no,white,no,yes,0.09,98,1050,legacy,45,5,5,1,C:/Userdata/Michel/SpatProbMultiple3/subject-7.csv,legacy,9,192,25,Kafkaesque Koffka,3.2.5,yes,598477b2b83f69022949e7e9,47,green,circular,green,rectangular,0,\,2300,space,16629,16629,"(80, 80, 80)","(0, 123, 0)","(177, 0, 0)","(155, 155, 155)",2,legacy,experiment,"[6, 7, 0, 1, 2, 3, 4, 5]",\,2500,3000,0,8,252.7587515,1024,2,48000,-16,main,"[(0, -252), (178, -178), (252, 0), (178, 178), (0, 252), (-178, 178), (-252, 0), (-178, -178)]",[],31,odd,3,NA,216136,291579,291579,114354,113344,2255,140242,140242,2255,2255,130983,312846,2251,291579,310544,309635,309635,NA,899,study_X,0,16629,1,yes,1680
undefined,undefined,NA,NA,NA,16629,16629,black,no,legacy,legacy,legacy,0,red,"(177, 0, 0)",shape,absent,lowProb1,rectangular,swap,swap,swap,same,red,"(177, 0, 0)",lowProb,lowProb5,rectangular,uniform,1,undefined,0,0.036458333,1,1,50.80208333,1,7,9754,0,0,0,0,0,0,0,0,32,0,1,0.036458333,50.80208333,7,9754,31,31,31,11/28/2018 15:27,Default description,yes,<openexp._canvas.legacy.Legacy object at 0x054665B0>,<openexp._canvas.legacy.Legacy object at 0x054CF750>,<openexp._canvas.legacy.Legacy object at 0x054FE730>,<openexp._canvas.legacy.Legacy object at 0x052FE930>,<openexp._canvas.legacy.Legacy object at 0x052EE190>,<openexp._canvas.legacy.Legacy object at 0x054592B0>,<openexp._canvas.legacy.Legacy object at 0x052FE9D0>,<openexp._canvas.legacy.Legacy object at 0x054700D0>,75,SpatProbMultiple3.osexp,C:/Userdata/Michel/SpatProbMultiple3,no,mono,no,18,no,white,no,yes,0.09,98,1050,legacy,45,6,6,1,C:/Userdata/Michel/SpatProbMultiple3/subject-7.csv,legacy,9,192,25,Kafkaesque Koffka,3.2.5,yes,598477b2b83f69022949e7e9,47,red,rectangular,red,rectangular,0,\,1632,space,16629,16629,"(80, 80, 80)","(0, 123, 0)","(177, 0, 0)","(155, 155, 155)",2,legacy,experiment,"[6, 7, 0, 1, 2, 3, 4, 5]",\,2500,3000,0,8,252.7587515,1024,2,48000,-16,main,"[(0, -252), (178, -178), (252, 0), (178, 178), (0, 252), (-178, 178), (-252, 0), (-178, -178)]",[],31,odd,4,NA,216136,291579,291579,114354,113344,2255,140242,140242,2255,2255,130983,315798,2251,291579,314164,313256,313256,NA,899,study_X,0,16629,1,yes,1680
undefined,undefined,NA,NA,NA,16629,16629,black,no,legacy,legacy,legacy,0,green,"(0, 123, 0)",color,present,highProb,rectangular,swap,same,same,same,red,"(177, 0, 0)",lowProb,lowProb5,rectangular,uniform,1,undefined,0,0.041666667,1,1,60.69270833,1,8,11653,0,0,0,0,0,0,0,0,33,0,1,0.041666667,60.69270833,8,11653,32,32,32,11/28/2018 15:27,Default description,yes,<openexp._canvas.legacy.Legacy object at 0x054665B0>,<openexp._canvas.legacy.Legacy object at 0x054CF750>,<openexp._canvas.legacy.Legacy object at 0x054FE730>,<openexp._canvas.legacy.Legacy object at 0x052FE930>,<openexp._canvas.legacy.Legacy object at 0x052EE190>,<openexp._canvas.legacy.Legacy object at 0x054592B0>,<openexp._canvas.legacy.Legacy object at 0x054FEBD0>,<openexp._canvas.legacy.Legacy object at 0x054700D0>,75,SpatProbMultiple3.osexp,C:/Userdata/Michel/SpatProbMultiple3,no,mono,no,18,no,white,no,yes,0.09,98,1050,legacy,45,7,7,1,C:/Userdata/Michel/SpatProbMultiple3/subject-7.csv,legacy,9,192,25,Kafkaesque Koffka,3.2.5,yes,598477b2b83f69022949e7e9,47,green,rectangular,red,rectangular,0,\,1899,space,16629,16629,"(80, 80, 80)","(0, 123, 0)","(177, 0, 0)","(155, 155, 155)",2,legacy,experiment,"[6, 7, 0, 1, 2, 3, 4, 5]",\,2500,3000,0,8,252.7587515,1024,2,48000,-16,main,"[(0, -252), (178, -178), (252, 0), (178, 178), (0, 252), (-178, 178), (-252, 0), (-178, -178)]",[],31,odd,4,NA,216136,291579,291579,114354,113344,2255,140242,140242,2255,2255,130983,319022,2251,291579,317121,316214,316214,NA,899,study_X,0,16629,1,yes,1680
undefined,undefined,NA,NA,NA,16629,16629,black,no,legacy,legacy,legacy,0,green,"(0, 123, 0)",color,absent,highProb,rectangular,same,same,swap,same,green,"(0, 123, 0)",lowProb,lowProb1,rectangular,uniform,1,undefined,0,0.046875,1,1,66.58854167,1,9,12785,0,0,0,0,0,0,0,0,34,0,1,0.046875,66.58854167,9,12785,33,33,33,11/28/2018 15:27,Default description,yes,<openexp._canvas.legacy.Legacy object at 0x054665B0>,<openexp._canvas.legacy.Legacy object at 0x054CF750>,<openexp._canvas.legacy.Legacy object at 0x054FE730>,<openexp._canvas.legacy.Legacy object at 0x052FE930>,<openexp._canvas.legacy.Legacy object at 0x052EE190>,<openexp._canvas.legacy.Legacy object at 0x054592B0>,<openexp._canvas.legacy.Legacy object at 0x054FE130>,<openexp._canvas.legacy.Legacy object at 0x054700D0>,75,SpatProbMultiple3.osexp,C:/Userdata/Michel/SpatProbMultiple3,no,mono,no,18,no,white,no,yes,0.09,98,1050,legacy,45,8,8,1,C:/Userdata/Michel/SpatProbMultiple3/subject-7.csv,legacy,9,192,25,Kafkaesque Koffka,3.2.5,yes,598477b2b83f69022949e7e9,47,green,rectangular,green,rectangular,0,\,1132,space,16629,16629,"(80, 80, 80)","(0, 123, 0)","(177, 0, 0)","(155, 155, 155)",2,legacy,experiment,"[6, 7, 0, 1, 2, 3, 4, 5]",\,2500,3000,0,8,252.7587515,1024,2,48000,-16,main,"[(0, -252), (178, -178), (252, 0), (178, 178), (0, 252), (-178, 178), (-252, 0), (-178, -178)]",[],31,odd,7,NA,216136,291579,291579,114354,113344,2255,140242,140242,2255,2255,130983,321478,2251,291579,320342,319434,319434,NA,899,study_X,0,16629,1,yes,1680
undefined,undefined,NA,NA,NA,16629,16629,black,no,legacy,legacy,legacy,0,green,"(0, 123, 0)",color,present,highProb,circular,same,swap,swap,swap,red,"(177, 0, 0)",highProbShape,highProbShape,circular,uniform,1,undefined,0,0.052083333,1,1,75.92708333,1,10,14578,0,0,0,0,0,0,0,0,35,0,1,0.052083333,75.92708333,10,14578,34,34,34,11/28/2018 15:27,Default description,yes,<openexp._canvas.legacy.Legacy object at 0x054665B0>,<openexp._canvas.legacy.Legacy object at 0x054CF750>,<openexp._canvas.legacy.Legacy object at 0x054FE730>,<openexp._canvas.legacy.Legacy object at 0x052FE930>,<openexp._canvas.legacy.Legacy object at 0x052EE190>,<openexp._canvas.legacy.Legacy object at 0x054592B0>,<openexp._canvas.legacy.Legacy object at 0x054706D0>,<openexp._canvas.legacy.Legacy object at 0x054700D0>,75,SpatProbMultiple3.osexp,C:/Userdata/Michel/SpatProbMultiple3,no,mono,no,18,no,white,no,yes,0.09,98,1050,legacy,45,9,9,1,C:/Userdata/Michel/SpatProbMultiple3/subject-7.csv,legacy,9,192,25,Kafkaesque Koffka,3.2.5,yes,598477b2b83f69022949e7e9,47,green,circular,red,circular,0,\,1793,space,16629,16629,"(80, 80, 80)","(0, 123, 0)","(177, 0, 0)","(155, 155, 155)",2,legacy,experiment,"[6, 7, 0, 1, 2, 3, 4, 5]",\,2500,3000,0,8,252.7587515,1024,2,48000,-16,main,"[(0, -252), (178, -178), (252, 0), (178, 178), (0, 252), (-178, 178), (-252, 0), (-178, -178)]",[],31,odd,2,NA,216136,291579,291579,114354,113344,2255,140242,140242,2255,2255,130983,324614,2251,291579,322817,321909,321909,NA,899,study_X,0,16629,1,yes,1680
undefined,undefined,NA,NA,NA,16629,16629,black,no,legacy,legacy,legacy,0,red,"(177, 0, 0)",shape,absent,lowProb4,rectangular,swap,swap,same,swap,red,"(177, 0, 0)",lowProb,lowProb1,rectangular,uniform,1,undefined,0,0.057291667,1,1,79.61458333,1,11,15286,0,0,0,0,0,0,0,0,36,0,1,0.057291667,79.61458333,11,15286,35,35,35,11/28/2018 15:27,Default description,yes,<openexp._canvas.legacy.Legacy object at 0x054665B0>,<openexp._canvas.legacy.Legacy object at 0x054CF750>,<openexp._canvas.legacy.Legacy object at 0x054FE730>,<openexp._canvas.legacy.Legacy object at 0x052FE930>,<openexp._canvas.legacy.Legacy object at 0x052EE190>,<openexp._canvas.legacy.Legacy object at 0x054592B0>,<openexp._canvas.legacy.Legacy object at 0x054FE4B0>,<openexp._canvas.legacy.Legacy object at 0x054700D0>,75,SpatProbMultiple3.osexp,C:/Userdata/Michel/SpatProbMultiple3,no,mono,no,18,no,white,no,yes,0.09,98,1050,legacy,45,10,10,1,C:/Userdata/Michel/SpatProbMultiple3/subject-7.csv,legacy,9,192,25,Kafkaesque Koffka,3.2.5,yes,598477b2b83f69022949e7e9,47,red,rectangular,red,rectangular,0,\,708,space,16629,16629,"(80, 80, 80)","(0, 123, 0)","(177, 0, 0)","(155, 155, 155)",2,legacy,experiment,"[6, 7, 0, 1, 2, 3, 4, 5]",\,2500,3000,0,8,252.7587515,1024,2,48000,-16,main,"[(0, -252), (178, -178), (252, 0), (178, 178), (0, 252), (-178, 178), (-252, 0), (-178, -178)]",[],31,odd,7,NA,216136,291579,291579,114354,113344,2255,140242,140242,2255,2255,130983,326645,2251,291579,325935,325027,325027,NA,899,study_X,0,16629,1,yes,1680
undefined,undefined,NA,NA,NA,16629,16629,black,no,legacy,legacy,legacy,0,red,"(177, 0, 0)",shape,present,highProb,circular,same,swap,same,same,red,"(177, 0, 0)",lowProb,lowProb6,rectangular,uniform,1,undefined,0,0.0625,1,1,87.69791667,1,12,16838,0,0,0,0,0,0,0,0,37,0,1,0.0625,87.69791667,12,16838,36,36,36,11/28/2018 15:27,Default description,yes,<openexp._canvas.legacy.Legacy object at 0x054665B0>,<openexp._canvas.legacy.Legacy object at 0x054CF750>,<openexp._canvas.legacy.Legacy object at 0x054FE730>,<openexp._canvas.legacy.Legacy object at 0x052FE930>,<openexp._canvas.legacy.Legacy object at 0x052EE190>,<openexp._canvas.legacy.Legacy object at 0x054592B0>,<openexp._canvas.legacy.Legacy object at 0x05466610>,<openexp._canvas.legacy.Legacy object at 0x054700D0>,75,SpatProbMultiple3.osexp,C:/Userdata/Michel/SpatProbMultiple3,no,mono,no,18,no,white,no,yes,0.09,98,1050,legacy,45,11,11,1,C:/Userdata/Michel/SpatProbMultiple3/subject-7.csv,legacy,9,192,25,Kafkaesque Koffka,3.2.5,yes,598477b2b83f69022949e7e9,47,red,circular,red,rectangular,0,\,1552,space,16629,16629,"(80, 80, 80)","(0, 123, 0)","(177, 0, 0)","(155, 155, 155)",2,legacy,experiment,"[6, 7, 0, 1, 2, 3, 4, 5]",\,2500,3000,0,8,252.7587515,1024,2,48000,-16,main,"[(0, -252), (178, -178), (252, 0), (178, 178), (0, 252), (-178, 178), (-252, 0), (-178, -178)]",[],31,odd,5,NA,216136,291579,291579,114354,113344,2255,140242,140242,2255,2255,130983,329510,2251,291579,327955,327048,327048,NA,899,study_X,0,16629,1,yes,1680
undefined,undefined,NA,NA,NA,16629,16629,black,no,legacy,legacy,legacy,0,red,"(177, 0, 0)",color,absent,highProb,circular,same,same,same,swap,red,"(177, 0, 0)",highProbShape,highProbShape,circular,uniform,1,undefined,0,0.067708333,1,1,91.515625,1,13,17571,0,0,0,0,0,0,0,0,38,0,1,0.067708333,91.515625,13,17571,37,37,37,11/28/2018 15:27,Default description,yes,<openexp._canvas.legacy.Legacy object at 0x054665B0>,<openexp._canvas.legacy.Legacy object at 0x054CF750>,<openexp._canvas.legacy.Legacy object at 0x054FE730>,<openexp._canvas.legacy.Legacy object at 0x052FE930>,<openexp._canvas.legacy.Legacy object at 0x052EE190>,<openexp._canvas.legacy.Legacy object at 0x054592B0>,<openexp._canvas.legacy.Legacy object at 0x054D5C30>,<openexp._canvas.legacy.Legacy object at 0x054700D0>,75,SpatProbMultiple3.osexp,C:/Userdata/Michel/SpatProbMultiple3,no,mono,no,18,no,white,no,yes,0.09,98,1050,legacy,315,12,12,1,C:/Userdata/Michel/SpatProbMultiple3/subject-7.csv,legacy,9,192,25,Kafkaesque Koffka,3.2.5,yes,598477b2b83f69022949e7e9,47,red,circular,red,circular,0,/,733,space,16629,16629,"(80, 80, 80)","(0, 123, 0)","(177, 0, 0)","(155, 155, 155)",2,legacy,experiment,"[6, 7, 0, 1, 2, 3, 4, 5]",/,2500,3000,0,8,252.7587515,1024,2,48000,-16,main,"[(0, -252), (178, -178), (252, 0), (178, 178), (0, 252), (-178, 178), (-252, 0), (-178, -178)]",[],31,odd,2,NA,216136,291579,291579,114354,113344,2255,140242,140242,2255,2255,130983,331574,2251,291579,330838,329929,329929,NA,899,study_X,0,16629,1,yes,1680
undefined,undefined,NA,NA,NA,16629,16629,black,no,legacy,legacy,legacy,0,green,"(0, 123, 0)",shape,present,highProb,circular,swap,same,swap,swap,green,"(0, 123, 0)",highProbColor,highProbColor,rectangular,uniform,1,undefined,0,0.072916667,1,1,97.546875,1,14,18729,0,0,0,0,0,0,0,0,39,0,1,0.072916667,97.546875,14,18729,38,38,38,11/28/2018 15:27,Default description,yes,<openexp._canvas.legacy.Legacy object at 0x054665B0>,<openexp._canvas.legacy.Legacy object at 0x054CF750>,<openexp._canvas.legacy.Legacy object at 0x054FE730>,<openexp._canvas.legacy.Legacy object at 0x052FE930>,<openexp._canvas.legacy.Legacy object at 0x052EE190>,<openexp._canvas.legacy.Legacy object at 0x054592B0>,<openexp._canvas.legacy.Legacy object at 0x054CF290>,<openexp._canvas.legacy.Legacy object at 0x054700D0>,75,SpatProbMultiple3.osexp,C:/Userdata/Michel/SpatProbMultiple3,no,mono,no,18,no,white,no,yes,0.09,98,1050,legacy,45,13,13,1,C:/Userdata/Michel/SpatProbMultiple3/subject-7.csv,legacy,9,192,25,Kafkaesque Koffka,3.2.5,yes,598477b2b83f69022949e7e9,47,green,circular,green,rectangular,0,\,1158,space,16629,16629,"(80, 80, 80)","(0, 123, 0)","(177, 0, 0)","(155, 155, 155)",2,legacy,experiment,"[6, 7, 0, 1, 2, 3, 4, 5]",\,2500,3000,0,8,252.7587515,1024,2,48000,-16,main,"[(0, -252), (178, -178), (252, 0), (178, 178), (0, 252), (-178, 178), (-252, 0), (-178, -178)]",[],31,odd,6,NA,216136,291579,291579,114354,113344,2255,140242,140242,2255,2255,130983,334054,2251,291579,332893,331985,331985,NA,899,study_X,0,16629,1,yes,1680
undefined,undefined,NA,NA,NA,16629,16629,black,no,legacy,legacy,legacy,0,red,"(177, 0, 0)",shape,present,highProb,rectangular,swap,swap,swap,swap,red,"(177, 0, 0)",highProbColor,highProbColor,circular,uniform,1,undefined,0,0.078125,1,1,104.0625,1,15,19980,0,0,0,0,0,0,0,0,40,0,1,0.078125,104.0625,15,19980,39,39,39,11/28/2018 15:27,Default description,yes,<openexp._canvas.legacy.Legacy object at 0x054665B0>,<openexp._canvas.legacy.Legacy object at 0x054CF750>,<openexp._canvas.legacy.Legacy object at 0x054FE730>,<openexp._canvas.legacy.Legacy object at 0x052FE930>,<openexp._canvas.legacy.Legacy object at 0x052EE190>,<openexp._canvas.legacy.Legacy object at 0x054592B0>,<openexp._canvas.legacy.Legacy object at 0x054D9E90>,<openexp._canvas.legacy.Legacy object at 0x054700D0>,75,SpatProbMultiple3.osexp,C:/Userdata/Michel/SpatProbMultiple3,no,mono,no,18,no,white,no,yes,0.09,98,1050,legacy,45,14,14,1,C:/Userdata/Michel/SpatProbMultiple3/subject-7.csv,legacy,9,192,25,Kafkaesque Koffka,3.2.5,yes,598477b2b83f69022949e7e9,47,red,rectangular,red,circular,0,\,1251,space,16629,16629,"(80, 80, 80)","(0, 123, 0)","(177, 0, 0)","(155, 155, 155)",2,legacy,experiment,"[6, 7, 0, 1, 2, 3, 4, 5]",\,2500,3000,0,8,252.7587515,1024,2,48000,-16,main,"[(0, -252), (178, -178), (252, 0), (178, 178), (0, 252), (-178, 178), (-252, 0), (-178, -178)]",[],31,odd,6,NA,216136,291579,291579,114354,113344,2255,140242,140242,2255,2255,130983,336646,2251,291579,335392,334483,334483,NA,899,study_X,0,16629,1,yes,1680
undefined,undefined,NA,NA,NA,16629,16629,black,no,legacy,legacy,legacy,0,red,"(177, 0, 0)",shape,present,highProb,circular,same,swap,same,swap,red,"(177, 0, 0)",lowProb,lowProb3,rectangular,uniform,1,undefined,0,0.083333333,1,1,109.9322917,1,16,21107,0,0,0,0,0,0,0,0,41,0,1,0.083333333,109.9322917,16,21107,40,40,40,11/28/2018 15:27,Default description,yes,<openexp._canvas.legacy.Legacy object at 0x054665B0>,<openexp._canvas.legacy.Legacy object at 0x054CF750>,<openexp._canvas.legacy.Legacy object at 0x054FE730>,<openexp._canvas.legacy.Legacy object at 0x052FE930>,<openexp._canvas.legacy.Legacy object at 0x052EE190>,<openexp._canvas.legacy.Legacy object at 0x054592B0>,<openexp._canvas.legacy.Legacy object at 0x0547E410>,<openexp._canvas.legacy.Legacy object at 0x054700D0>,75,SpatProbMultiple3.osexp,C:/Userdata/Michel/SpatProbMultiple3,no,mono,no,18,no,white,no,yes,0.09,98,1050,legacy,315,15,15,1,C:/Userdata/Michel/SpatProbMultiple3/subject-7.csv,legacy,9,192,25,Kafkaesque Koffka,3.2.5,yes,598477b2b83f69022949e7e9,47,red,circular,red,rectangular,0,/,1127,space,16629,16629,"(80, 80, 80)","(0, 123, 0)","(177, 0, 0)","(155, 155, 155)",2,legacy,experiment,"[6, 7, 0, 1, 2, 3, 4, 5]",/,2500,3000,0,8,252.7587515,1024,2,48000,-16,main,"[(0, -252), (178, -178), (252, 0), (178, 178), (0, 252), (-178, 178), (-252, 0), (-178, -178)]",[],31,odd,1,NA,216136,291579,291579,114354,113344,2255,140242,140242,2255,2255,130983,339094,2251,291579,337963,337054,337054,NA,899,study_X,0,16629,1,yes,1680
undefined,undefined,NA,NA,NA,16629,16629,black,no,legacy,legacy,legacy,0,green,"(0, 123, 0)",color,present,lowProb4,circular,swap,same,same,swap,red,"(177, 0, 0)",lowProb,lowProb2,circular,uniform,1,undefined,0,0.088541667,1,1,114.40625,1,17,21966,0,0,0,0,0,0,0,0,42,0,1,0.088541667,114.40625,17,21966,41,41,41,11/28/2018 15:27,Default description,yes,<openexp._canvas.legacy.Legacy object at 0x054665B0>,<openexp._canvas.legacy.Legacy object at 0x054CF750>,<openexp._canvas.legacy.Legacy object at 0x054FE730>,<openexp._canvas.legacy.Legacy object at 0x052FE930>,<openexp._canvas.legacy.Legacy object at 0x052EE190>,<openexp._canvas.legacy.Legacy object at 0x054592B0>,<openexp._canvas.legacy.Legacy object at 0x054FE850>,<openexp._canvas.legacy.Legacy object at 0x054700D0>,75,SpatProbMultiple3.osexp,C:/Userdata/Michel/SpatProbMultiple3,no,mono,no,18,no,white,no,yes,0.09,98,1050,legacy,45,16,16,1,C:/Userdata/Michel/SpatProbMultiple3/subject-7.csv,legacy,9,192,25,Kafkaesque Koffka,3.2.5,yes,598477b2b83f69022949e7e9,47,green,circular,red,circular,0,\,859,space,16629,16629,"(80, 80, 80)","(0, 123, 0)","(177, 0, 0)","(155, 155, 155)",2,legacy,experiment,"[6, 7, 0, 1, 2, 3, 4, 5]",\,2500,3000,0,8,252.7587515,1024,2,48000,-16,main,"[(0, -252), (178, -178), (252, 0), (178, 178), (0, 252), (-178, 178), (-252, 0), (-178, -178)]",[],31,odd,0,NA,216136,291579,291579,114354,113344,2255,140242,140242,2255,2255,130983,341285,2251,291579,340423,339514,339514,NA,899,study_X,0,16629,1,yes,1680
undefined,undefined,NA,NA,NA,16629,16629,black,no,legacy,legacy,legacy,0,red,"(177, 0, 0)",shape,present,lowProb4,circular,swap,same,same,swap,red,"(177, 0, 0)",lowProb,lowProb1,rectangular,uniform,1,undefined,0,0.09375,1,1,119,1,18,22848,0,0,0,0,0,0,0,0,43,0,1,0.09375,119,18,22848,42,42,42,11/28/2018 15:27,Default description,yes,<openexp._canvas.legacy.Legacy object at 0x054665B0>,<openexp._canvas.legacy.Legacy object at 0x054CF750>,<openexp._canvas.legacy.Legacy object at 0x054FE730>,<openexp._canvas.legacy.Legacy object at 0x052FE930>,<openexp._canvas.legacy.Legacy object at 0x052EE190>,<openexp._canvas.legacy.Legacy object at 0x054592B0>,<openexp._canvas.legacy.Legacy object at 0x05303B50>,<openexp._canvas.legacy.Legacy object at 0x054700D0>,75,SpatProbMultiple3.osexp,C:/Userdata/Michel/SpatProbMultiple3,no,mono,no,18,no,white,no,yes,0.09,98,1050,legacy,45,17,17,1,C:/Userdata/Michel/SpatProbMultiple3/subject-7.csv,legacy,9,192,25,Kafkaesque Koffka,3.2.5,yes,598477b2b83f69022949e7e9,47,red,circular,red,rectangular,0,\,882,space,16629,16629,"(80, 80, 80)","(0, 123, 0)","(177, 0, 0)","(155, 155, 155)",2,legacy,experiment,"[6, 7, 0, 1, 2, 3, 4, 5]",\,2500,3000,0,8,252.7587515,1024,2,48000,-16,main,"[(0, -252), (178, -178), (252, 0), (178, 178), (0, 252), (-178, 178), (-252, 0), (-178, -178)]",[],31,odd,7,NA,216136,291579,291579,114354,113344,2255,140242,140242,2255,2255,130983,343485,2251,291579,342600,341691,341691,NA,899,study_X,0,16629,1,yes,1680
undefined,undefined,NA,NA,NA,16629,16629,black,no,legacy,legacy,legacy,0,green,"(0, 123, 0)",color,present,highProb,rectangular,swap,swap,same,same,red,"(177, 0, 0)",lowProb,lowProb3,rectangular,uniform,1,undefined,0,0.098958333,1,1,124.9322917,1,19,23987,0,0,0,0,0,0,0,0,44,0,1,0.098958333,124.9322917,19,23987,43,43,43,11/28/2018 15:27,Default description,yes,<openexp._canvas.legacy.Legacy object at 0x054665B0>,<openexp._canvas.legacy.Legacy object at 0x054CF750>,<openexp._canvas.legacy.Legacy object at 0x054FE730>,<openexp._canvas.legacy.Legacy object at 0x052FE930>,<openexp._canvas.legacy.Legacy object at 0x052EE190>,<openexp._canvas.legacy.Legacy object at 0x054592B0>,<openexp._canvas.legacy.Legacy object at 0x05470CB0>,<openexp._canvas.legacy.Legacy object at 0x054700D0>,75,SpatProbMultiple3.osexp,C:/Userdata/Michel/SpatProbMultiple3,no,mono,no,18,no,white,no,yes,0.09,98,1050,legacy,315,18,18,1,C:/Userdata/Michel/SpatProbMultiple3/subject-7.csv,legacy,9,192,25,Kafkaesque Koffka,3.2.5,yes,598477b2b83f69022949e7e9,47,green,rectangular,red,rectangular,0,/,1139,space,16629,16629,"(80, 80, 80)","(0, 123, 0)","(177, 0, 0)","(155, 155, 155)",2,legacy,experiment,"[6, 7, 0, 1, 2, 3, 4, 5]",/,2500,3000,0,8,252.7587515,1024,2,48000,-16,main,"[(0, -252), (178, -178), (252, 0), (178, 178), (0, 252), (-178, 178), (-252, 0), (-178, -178)]",[],31,odd,1,NA,216136,291579,291579,114354,113344,2255,140242,140242,2255,2255,130983,345941,2251,291579,344800,343891,343891,NA,899,study_X,0,16629,1,yes,1680
undefined,undefined,NA,NA,NA,16629,16629,black,no,legacy,legacy,legacy,0,red,"(177, 0, 0)",color,present,highProb,circular,swap,swap,swap,swap,green,"(0, 123, 0)",lowProb,lowProb6,circular,uniform,1,undefined,0,0.104166667,1,1,136.0104167,1,20,26114,0,0,0,0,0,0,0,0,45,0,1,0.104166667,136.0104167,20,26114,44,44,44,11/28/2018 15:27,Default description,yes,<openexp._canvas.legacy.Legacy object at 0x054665B0>,<openexp._canvas.legacy.Legacy object at 0x054CF750>,<openexp._canvas.legacy.Legacy object at 0x054FE730>,<openexp._canvas.legacy.Legacy object at 0x052FE930>,<openexp._canvas.legacy.Legacy object at 0x052EE190>,<openexp._canvas.legacy.Legacy object at 0x054592B0>,<openexp._canvas.legacy.Legacy object at 0x05466750>,<openexp._canvas.legacy.Legacy object at 0x054700D0>,75,SpatProbMultiple3.osexp,C:/Userdata/Michel/SpatProbMultiple3,no,mono,no,18,no,white,no,yes,0.09,98,1050,legacy,315,19,19,1,C:/Userdata/Michel/SpatProbMultiple3/subject-7.csv,legacy,9,192,25,Kafkaesque Koffka,3.2.5,yes,598477b2b83f69022949e7e9,47,red,circular,green,circular,0,/,2127,space,16629,16629,"(80, 80, 80)","(0, 123, 0)","(177, 0, 0)","(155, 155, 155)",2,legacy,experiment,"[6, 7, 0, 1, 2, 3, 4, 5]",/,2500,3000,0,8,252.7587515,1024,2,48000,-16,main,"[(0, -252), (178, -178), (252, 0), (178, 178), (0, 252), (-178, 178), (-252, 0), (-178, -178)]",[],31,odd,5,NA,216136,291579,291579,114354,113344,2255,140242,140242,2255,2255,130983,349406,2251,291579,347277,346368,346368,NA,899,study_X,0,16629,1,yes,1680
undefined,undefined,NA,NA,NA,16629,16629,black,no,legacy,legacy,legacy,0,green,"(0, 123, 0)",shape,present,highProb,rectangular,swap,swap,same,same,green,"(0, 123, 0)",lowProb,lowProb6,circular,uniform,1,undefined,0,0.109375,1,1,146.1979167,1,21,28070,0,0,0,0,0,0,0,0,46,0,1,0.109375,146.1979167,21,28070,45,45,45,11/28/2018 15:27,Default description,yes,<openexp._canvas.legacy.Legacy object at 0x054665B0>,<openexp._canvas.legacy.Legacy object at 0x054CF750>,<openexp._canvas.legacy.Legacy object at 0x054FE730>,<openexp._canvas.legacy.Legacy object at 0x052FE930>,<openexp._canvas.legacy.Legacy object at 0x052EE190>,<openexp._canvas.legacy.Legacy object at 0x054592B0>,<openexp._canvas.legacy.Legacy object at 0x0547EA10>,<openexp._canvas.legacy.Legacy object at 0x054700D0>,75,SpatProbMultiple3.osexp,C:/Userdata/Michel/SpatProbMultiple3,no,mono,no,18,no,white,no,yes,0.09,98,1050,legacy,45,20,20,1,C:/Userdata/Michel/SpatProbMultiple3/subject-7.csv,legacy,9,192,25,Kafkaesque Koffka,3.2.5,yes,598477b2b83f69022949e7e9,47,green,rectangular,green,circular,0,\,1956,space,16629,16629,"(80, 80, 80)","(0, 123, 0)","(177, 0, 0)","(155, 155, 155)",2,legacy,experiment,"[6, 7, 0, 1, 2, 3, 4, 5]",\,2500,3000,0,8,252.7587515,1024,2,48000,-16,main,"[(0, -252), (178, -178), (252, 0), (178, 178), (0, 252), (-178, 178), (-252, 0), (-178, -178)]",[],31,odd,5,NA,216136,291579,291579,114354,113344,2255,140242,140242,2255,2255,130983,352694,2251,291579,350734,349826,349826,NA,899,study_X,0,16629,1,yes,1680
undefined,undefined,NA,NA,NA,16629,16629,black,no,legacy,legacy,legacy,0,red,"(177, 0, 0)",color,absent,lowProb5,rectangular,swap,same,swap,swap,red,"(177, 0, 0)",lowProb,lowProb5,rectangular,uniform,1,undefined,0,0.114583333,1,1,154.4583333,1,22,29656,0,0,0,0,0,0,0,0,47,0,1,0.114583333,154.4583333,22,29656,46,46,46,11/28/2018 15:27,Default description,yes,<openexp._canvas.legacy.Legacy object at 0x054665B0>,<openexp._canvas.legacy.Legacy object at 0x054CF750>,<openexp._canvas.legacy.Legacy object at 0x054FE730>,<openexp._canvas.legacy.Legacy object at 0x052FE930>,<openexp._canvas.legacy.Legacy object at 0x052EE190>,<openexp._canvas.legacy.Legacy object at 0x054592B0>,<openexp._canvas.legacy.Legacy object at 0x05303590>,<openexp._canvas.legacy.Legacy object at 0x054700D0>,75,SpatProbMultiple3.osexp,C:/Userdata/Michel/SpatProbMultiple3,no,mono,no,18,no,white,no,yes,0.09,98,1050,legacy,45,21,21,1,C:/Userdata/Michel/SpatProbMultiple3/subject-7.csv,legacy,9,192,25,Kafkaesque Koffka,3.2.5,yes,598477b2b83f69022949e7e9,47,red,rectangular,red,rectangular,0,\,1586,space,16629,16629,"(80, 80, 80)","(0, 123, 0)","(177, 0, 0)","(155, 155, 155)",2,legacy,experiment,"[6, 7, 0, 1, 2, 3, 4, 5]",\,2500,3000,0,8,252.7587515,1024,2,48000,-16,main,"[(0, -252), (178, -178), (252, 0), (178, 178), (0, 252), (-178, 178), (-252, 0), (-178, -178)]",[],31,odd,4,NA,216136,291579,291579,114354,113344,2255,140242,140242,2255,2255,130983,355606,2251,291579,354017,353108,353108,NA,899,study_X,0,16629,1,yes,1680
undefined,undefined,NA,NA,NA,16629,16629,black,no,legacy,legacy,legacy,0,red,"(177, 0, 0)",color,present,highProb,rectangular,same,same,swap,same,green,"(0, 123, 0)",lowProb,lowProb3,rectangular,uniform,1,undefined,0,0.119791667,1,1,158.25,1,23,30384,0,0,0,0,0,0,0,0,48,0,1,0.119791667,158.25,23,30384,47,47,47,11/28/2018 15:27,Default description,yes,<openexp._canvas.legacy.Legacy object at 0x054665B0>,<openexp._canvas.legacy.Legacy object at 0x054CF750>,<openexp._canvas.legacy.Legacy object at 0x054FE730>,<openexp._canvas.legacy.Legacy object at 0x052FE930>,<openexp._canvas.legacy.Legacy object at 0x052EE190>,<openexp._canvas.legacy.Legacy object at 0x054592B0>,<openexp._canvas.legacy.Legacy object at 0x054FE510>,<openexp._canvas.legacy.Legacy object at 0x054700D0>,75,SpatProbMultiple3.osexp,C:/Userdata/Michel/SpatProbMultiple3,no,mono,no,18,no,white,no,yes,0.09,98,1050,legacy,315,22,22,1,C:/Userdata/Michel/SpatProbMultiple3/subject-7.csv,legacy,9,192,25,Kafkaesque Koffka,3.2.5,yes,598477b2b83f69022949e7e9,47,red,rectangular,green,rectangular,0,/,728,space,16629,16629,"(80, 80, 80)","(0, 123, 0)","(177, 0, 0)","(155, 155, 155)",2,legacy,experiment,"[6, 7, 0, 1, 2, 3, 4, 5]",/,2500,3000,0,8,252.7587515,1024,2,48000,-16,main,"[(0, -252), (178, -178), (252, 0), (178, 178), (0, 252), (-178, 178), (-252, 0), (-178, -178)]",[],31,odd,1,NA,216136,291579,291579,114354,113344,2255,140242,140242,2255,2255,130983,357661,2251,291579,356931,356022,356022,NA,899,study_X,0,16629,1,yes,1680
undefined,undefined,NA,NA,NA,16629,16629,black,no,legacy,legacy,legacy,0,green,"(0, 123, 0)",shape,present,lowProb2,circular,swap,swap,same,same,green,"(0, 123, 0)",lowProb,lowProb1,rectangular,uniform,1,undefined,0,0.125,1,1,163.3177083,1,24,31357,0,0,0,0,0,0,0,0,49,0,1,0.125,163.3177083,24,31357,48,48,48,11/28/2018 15:27,Default description,yes,<openexp._canvas.legacy.Legacy object at 0x054665B0>,<openexp._canvas.legacy.Legacy object at 0x054CF750>,<openexp._canvas.legacy.Legacy object at 0x054FE730>,<openexp._canvas.legacy.Legacy object at 0x052FE930>,<openexp._canvas.legacy.Legacy object at 0x052EE190>,<openexp._canvas.legacy.Legacy object at 0x054592B0>,<openexp._canvas.legacy.Legacy object at 0x054703B0>,<openexp._canvas.legacy.Legacy object at 0x054700D0>,75,SpatProbMultiple3.osexp,C:/Userdata/Michel/SpatProbMultiple3,no,mono,no,18,no,white,no,yes,0.09,98,1050,legacy,315,23,23,1,C:/Userdata/Michel/SpatProbMultiple3/subject-7.csv,legacy,9,192,25,Kafkaesque Koffka,3.2.5,yes,598477b2b83f69022949e7e9,47,green,circular,green,rectangular,0,/,973,space,16629,16629,"(80, 80, 80)","(0, 123, 0)","(177, 0, 0)","(155, 155, 155)",2,legacy,experiment,"[6, 7, 0, 1, 2, 3, 4, 5]",/,2500,3000,0,8,252.7587515,1024,2,48000,-16,main,"[(0, -252), (178, -178), (252, 0), (178, 178), (0, 252), (-178, 178), (-252, 0), (-178, -178)]",[],31,odd,7,NA,216136,291579,291579,114354,113344,2255,140242,140242,2255,2255,130983,359949,2251,291579,358974,358066,358066,NA,899,study_X,0,16629,1,yes,1680
undefined,undefined,NA,NA,NA,16629,16629,black,no,legacy,legacy,legacy,0,green,"(0, 123, 0)",color,present,highProb,circular,same,same,swap,swap,red,"(177, 0, 0)",lowProb,lowProb6,circular,uniform,1,undefined,0,0.130208333,1,1,172.2916667,1,25,33080,0,0,0,0,0,0,0,0,50,0,1,0.130208333,172.2916667,25,33080,49,49,49,11/28/2018 15:27,Default description,yes,<openexp._canvas.legacy.Legacy object at 0x054665B0>,<openexp._canvas.legacy.Legacy object at 0x054CF750>,<openexp._canvas.legacy.Legacy object at 0x054FE730>,<openexp._canvas.legacy.Legacy object at 0x052FE930>,<openexp._canvas.legacy.Legacy object at 0x052EE190>,<openexp._canvas.legacy.Legacy object at 0x054592B0>,<openexp._canvas.legacy.Legacy object at 0x05470450>,<openexp._canvas.legacy.Legacy object at 0x054700D0>,75,SpatProbMultiple3.osexp,C:/Userdata/Michel/SpatProbMultiple3,no,mono,no,18,no,white,no,yes,0.09,98,1050,legacy,45,24,24,1,C:/Userdata/Michel/SpatProbMultiple3/subject-7.csv,legacy,9,192,25,Kafkaesque Koffka,3.2.5,yes,598477b2b83f69022949e7e9,47,green,circular,red,circular,0,\,1723,space,16629,16629,"(80, 80, 80)","(0, 123, 0)","(177, 0, 0)","(155, 155, 155)",2,legacy,experiment,"[6, 7, 0, 1, 2, 3, 4, 5]",\,2500,3000,0,8,252.7587515,1024,2,48000,-16,main,"[(0, -252), (178, -178), (252, 0), (178, 178), (0, 252), (-178, 178), (-252, 0), (-178, -178)]",[],31,odd,5,NA,216136,291579,291579,114354,113344,2255,140242,140242,2255,2255,130983,363029,2251,291579,361304,360396,360396,NA,899,study_X,0,16629,1,yes,1680
undefined,undefined,NA,NA,NA,16629,16629,black,no,legacy,legacy,legacy,0,green,"(0, 123, 0)",shape,present,highProb,circular,same,same,swap,swap,green,"(0, 123, 0)",lowProb,lowProb2,rectangular,uniform,1,undefined,0,0.135416667,1,1,177.1354167,1,26,34010,0,0,0,0,0,0,0,0,51,0,1,0.135416667,177.1354167,26,34010,50,50,50,11/28/2018 15:27,Default description,yes,<openexp._canvas.legacy.Legacy object at 0x054665B0>,<openexp._canvas.legacy.Legacy object at 0x054CF750>,<openexp._canvas.legacy.Legacy object at 0x054FE730>,<openexp._canvas.legacy.Legacy object at 0x052FE930>,<openexp._canvas.legacy.Legacy object at 0x052EE190>,<openexp._canvas.legacy.Legacy object at 0x054592B0>,<openexp._canvas.legacy.Legacy object at 0x05466750>,<openexp._canvas.legacy.Legacy object at 0x054700D0>,75,SpatProbMultiple3.osexp,C:/Userdata/Michel/SpatProbMultiple3,no,mono,no,18,no,white,no,yes,0.09,98,1050,legacy,45,25,25,1,C:/Userdata/Michel/SpatProbMultiple3/subject-7.csv,legacy,9,192,25,Kafkaesque Koffka,3.2.5,yes,598477b2b83f69022949e7e9,47,green,circular,green,rectangular,0,\,930,space,16629,16629,"(80, 80, 80)","(0, 123, 0)","(177, 0, 0)","(155, 155, 155)",2,legacy,experiment,"[6, 7, 0, 1, 2, 3, 4, 5]",\,2500,3000,0,8,252.7587515,1024,2,48000,-16,main,"[(0, -252), (178, -178), (252, 0), (178, 178), (0, 252), (-178, 178), (-252, 0), (-178, -178)]",[],31,odd,0,NA,216136,291579,291579,114354,113344,2255,140242,140242,2255,2255,130983,365286,2251,291579,364353,363445,363445,NA,899,study_X,0,16629,1,yes,1680
undefined,undefined,NA,NA,NA,16629,16629,black,no,legacy,legacy,legacy,0,red,"(177, 0, 0)",color,present,highProb,rectangular,swap,swap,same,same,green,"(0, 123, 0)",lowProb,lowProb2,rectangular,uniform,1,undefined,0,0.140625,1,1,180.125,1,27,34584,0,0,0,0,0,0,0,0,52,0,1,0.140625,180.125,27,34584,51,51,51,11/28/2018 15:27,Default description,yes,<openexp._canvas.legacy.Legacy object at 0x054665B0>,<openexp._canvas.legacy.Legacy object at 0x054CF750>,<openexp._canvas.legacy.Legacy object at 0x054FE730>,<openexp._canvas.legacy.Legacy object at 0x052FE930>,<openexp._canvas.legacy.Legacy object at 0x052EE190>,<openexp._canvas.legacy.Legacy object at 0x054592B0>,<openexp._canvas.legacy.Legacy object at 0x054CF850>,<openexp._canvas.legacy.Legacy object at 0x054700D0>,75,SpatProbMultiple3.osexp,C:/Userdata/Michel/SpatProbMultiple3,no,mono,no,18,no,white,no,yes,0.09,98,1050,legacy,45,26,26,1,C:/Userdata/Michel/SpatProbMultiple3/subject-7.csv,legacy,9,192,25,Kafkaesque Koffka,3.2.5,yes,598477b2b83f69022949e7e9,47,red,rectangular,green,rectangular,0,\,574,space,16629,16629,"(80, 80, 80)","(0, 123, 0)","(177, 0, 0)","(155, 155, 155)",2,legacy,experiment,"[6, 7, 0, 1, 2, 3, 4, 5]",\,2500,3000,0,8,252.7587515,1024,2,48000,-16,main,"[(0, -252), (178, -178), (252, 0), (178, 178), (0, 252), (-178, 178), (-252, 0), (-178, -178)]",[],31,odd,0,NA,216136,291579,291579,114354,113344,2255,140242,140242,2255,2255,130983,367190,2251,291579,366612,365704,365704,NA,899,study_X,0,16629,1,yes,1680
undefined,undefined,NA,NA,NA,16629,16629,black,no,legacy,legacy,legacy,0,green,"(0, 123, 0)",shape,present,highProb,circular,swap,swap,same,same,green,"(0, 123, 0)",lowProb,lowProb5,rectangular,uniform,1,undefined,0,0.145833333,1,1,187.109375,1,28,35925,0,0,0,0,0,0,0,0,53,0,1,0.145833333,187.109375,28,35925,52,52,52,11/28/2018 15:27,Default description,yes,<openexp._canvas.legacy.Legacy object at 0x054665B0>,<openexp._canvas.legacy.Legacy object at 0x054CF750>,<openexp._canvas.legacy.Legacy object at 0x054FE730>,<openexp._canvas.legacy.Legacy object at 0x052FE930>,<openexp._canvas.legacy.Legacy object at 0x052EE190>,<openexp._canvas.legacy.Legacy object at 0x054592B0>,<openexp._canvas.legacy.Legacy object at 0x05303BF0>,<openexp._canvas.legacy.Legacy object at 0x054700D0>,75,SpatProbMultiple3.osexp,C:/Userdata/Michel/SpatProbMultiple3,no,mono,no,18,no,white,no,yes,0.09,98,1050,legacy,315,27,27,1,C:/Userdata/Michel/SpatProbMultiple3/subject-7.csv,legacy,9,192,25,Kafkaesque Koffka,3.2.5,yes,598477b2b83f69022949e7e9,47,green,circular,green,rectangular,0,/,1341,space,16629,16629,"(80, 80, 80)","(0, 123, 0)","(177, 0, 0)","(155, 155, 155)",2,legacy,experiment,"[6, 7, 0, 1, 2, 3, 4, 5]",/,2500,3000,0,8,252.7587515,1024,2,48000,-16,main,"[(0, -252), (178, -178), (252, 0), (178, 178), (0, 252), (-178, 178), (-252, 0), (-178, -178)]",[],31,odd,4,NA,216136,291579,291579,114354,113344,2255,140242,140242,2255,2255,130983,369862,2251,291579,368517,367609,367609,NA,899,study_X,0,16629,1,yes,1680
undefined,undefined,NA,NA,NA,16629,16629,black,no,legacy,legacy,legacy,0,red,"(177, 0, 0)",shape,present,highProb,circular,swap,same,swap,same,red,"(177, 0, 0)",highProbColor,highProbColor,rectangular,uniform,1,undefined,0,0.151041667,1,1,192.765625,1,29,37011,0,0,0,0,0,0,0,0,54,0,1,0.151041667,192.765625,29,37011,53,53,53,11/28/2018 15:27,Default description,yes,<openexp._canvas.legacy.Legacy object at 0x054665B0>,<openexp._canvas.legacy.Legacy object at 0x054CF750>,<openexp._canvas.legacy.Legacy object at 0x054FE730>,<openexp._canvas.legacy.Legacy object at 0x052FE930>,<openexp._canvas.legacy.Legacy object at 0x052EE190>,<openexp._canvas.legacy.Legacy object at 0x054592B0>,<openexp._canvas.legacy.Legacy object at 0x05470DF0>,<openexp._canvas.legacy.Legacy object at 0x054700D0>,75,SpatProbMultiple3.osexp,C:/Userdata/Michel/SpatProbMultiple3,no,mono,no,18,no,white,no,yes,0.09,98,1050,legacy,45,28,28,1,C:/Userdata/Michel/SpatProbMultiple3/subject-7.csv,legacy,9,192,25,Kafkaesque Koffka,3.2.5,yes,598477b2b83f69022949e7e9,47,red,circular,red,rectangular,0,\,1086,space,16629,16629,"(80, 80, 80)","(0, 123, 0)","(177, 0, 0)","(155, 155, 155)",2,legacy,experiment,"[6, 7, 0, 1, 2, 3, 4, 5]",\,2500,3000,0,8,252.7587515,1024,2,48000,-16,main,"[(0, -252), (178, -178), (252, 0), (178, 178), (0, 252), (-178, 178), (-252, 0), (-178, -178)]",[],31,odd,6,NA,216136,291579,291579,114354,113344,2255,140242,140242,2255,2255,130983,372269,2251,291579,371181,370272,370273,NA,899,study_X,0,16629,1,yes,1680
undefined,undefined,NA,NA,NA,16629,16629,black,no,legacy,legacy,legacy,0,green,"(0, 123, 0)",shape,present,highProb,rectangular,swap,swap,swap,swap,green,"(0, 123, 0)",lowProb,lowProb2,circular,uniform,1,undefined,0,0.15625,1,1,200.90625,1,30,38574,0,0,0,0,0,0,0,0,55,0,1,0.15625,200.90625,30,38574,54,54,54,11/28/2018 15:27,Default description,yes,<openexp._canvas.legacy.Legacy object at 0x054665B0>,<openexp._canvas.legacy.Legacy object at 0x054CF750>,<openexp._canvas.legacy.Legacy object at 0x054FE730>,<openexp._canvas.legacy.Legacy object at 0x052FE930>,<openexp._canvas.legacy.Legacy object at 0x052EE190>,<openexp._canvas.legacy.Legacy object at 0x054592B0>,<openexp._canvas.legacy.Legacy object at 0x05303B50>,<openexp._canvas.legacy.Legacy object at 0x054700D0>,75,SpatProbMultiple3.osexp,C:/Userdata/Michel/SpatProbMultiple3,no,mono,no,18,no,white,no,yes,0.09,98,1050,legacy,45,29,29,1,C:/Userdata/Michel/SpatProbMultiple3/subject-7.csv,legacy,9,192,25,Kafkaesque Koffka,3.2.5,yes,598477b2b83f69022949e7e9,47,green,rectangular,green,circular,0,\,1563,space,16629,16629,"(80, 80, 80)","(0, 123, 0)","(177, 0, 0)","(155, 155, 155)",2,legacy,experiment,"[6, 7, 0, 1, 2, 3, 4, 5]",\,2500,3000,0,8,252.7587515,1024,2,48000,-16,main,"[(0, -252), (178, -178), (252, 0), (178, 178), (0, 252), (-178, 178), (-252, 0), (-178, -178)]",[],31,odd,0,NA,216136,291579,291579,114354,113344,2255,140242,140242,2255,2255,130983,375173,2251,291579,373608,372699,372699,NA,899,study_X,0,16629,1,yes,1680
undefined,undefined,NA,NA,NA,16629,16629,black,no,legacy,legacy,legacy,0,green,"(0, 123, 0)",shape,absent,lowProb4,circular,same,swap,same,same,green,"(0, 123, 0)",lowProb,lowProb4,circular,uniform,0,undefined,0,0.15625,1,1,213.9270833,1,30,41074,0,0,0,0,0,0,0,0,56,0,1,0.15625,213.9270833,30,41074,55,55,55,11/28/2018 15:27,Default description,yes,<openexp._canvas.legacy.Legacy object at 0x054665B0>,<openexp._canvas.legacy.Legacy object at 0x054CF750>,<openexp._canvas.legacy.Legacy object at 0x054FE730>,<openexp._canvas.legacy.Legacy object at 0x052FE930>,<openexp._canvas.legacy.Legacy object at 0x052EE190>,<openexp._canvas.legacy.Legacy object at 0x054592B0>,<openexp._canvas.legacy.Legacy object at 0x05303530>,<openexp._canvas.legacy.Legacy object at 0x054700D0>,75,SpatProbMultiple3.osexp,C:/Userdata/Michel/SpatProbMultiple3,no,mono,no,18,no,white,no,yes,0.09,98,1050,legacy,45,30,30,1,C:/Userdata/Michel/SpatProbMultiple3/subject-7.csv,legacy,9,192,25,Kafkaesque Koffka,3.2.5,yes,598477b2b83f69022949e7e9,47,green,circular,green,circular,0,None,2500,space,16629,16629,"(80, 80, 80)","(0, 123, 0)","(177, 0, 0)","(155, 155, 155)",2,legacy,experiment,"[6, 7, 0, 1, 2, 3, 4, 5]",\,2500,3000,0,8,252.7587515,1024,2,48000,-16,main,"[(0, -252), (178, -178), (252, 0), (178, 178), (0, 252), (-178, 178), (-252, 0), (-178, -178)]",[],31,odd,3,NA,216136,291579,291579,114354,113344,2255,140242,140242,2255,2255,130983,379014,2251,291579,376511,375602,375602,NA,899,study_X,0,16629,1,yes,1680
undefined,undefined,NA,NA,NA,16629,16629,black,no,legacy,legacy,legacy,0,red,"(177, 0, 0)",shape,present,highProb,circular,swap,same,swap,swap,red,"(177, 0, 0)",lowProb,lowProb3,rectangular,uniform,1,undefined,0,0.161458333,1,1,218.3333333,1,31,41920,0,0,0,0,0,0,0,0,57,0,1,0.161458333,218.3333333,31,41920,56,56,56,11/28/2018 15:27,Default description,yes,<openexp._canvas.legacy.Legacy object at 0x054665B0>,<openexp._canvas.legacy.Legacy object at 0x054CF750>,<openexp._canvas.legacy.Legacy object at 0x054FE730>,<openexp._canvas.legacy.Legacy object at 0x052FE930>,<openexp._canvas.legacy.Legacy object at 0x052EE190>,<openexp._canvas.legacy.Legacy object at 0x054592B0>,<openexp._canvas.legacy.Legacy object at 0x054CFAD0>,<openexp._canvas.legacy.Legacy object at 0x054700D0>,75,SpatProbMultiple3.osexp,C:/Userdata/Michel/SpatProbMultiple3,no,mono,no,18,no,white,no,yes,0.09,98,1050,legacy,45,31,31,1,C:/Userdata/Michel/SpatProbMultiple3/subject-7.csv,legacy,9,192,25,Kafkaesque Koffka,3.2.5,yes,598477b2b83f69022949e7e9,47,red,circular,red,rectangular,0,\,846,space,16629,16629,"(80, 80, 80)","(0, 123, 0)","(177, 0, 0)","(155, 155, 155)",2,legacy,experiment,"[6, 7, 0, 1, 2, 3, 4, 5]",\,2500,3000,0,8,252.7587515,1024,2,48000,-16,main,"[(0, -252), (178, -178), (252, 0), (178, 178), (0, 252), (-178, 178), (-252, 0), (-178, -178)]",[],31,odd,1,NA,216136,291579,291579,114354,113344,2255,140242,140242,2255,2255,130983,381182,2251,291579,380334,379427,379427,NA,899,study_X,0,16629,1,yes,1680
undefined,undefined,NA,NA,NA,16629,16629,black,no,legacy,legacy,legacy,0,red,"(177, 0, 0)",color,present,highProb,circular,same,same,swap,swap,green,"(0, 123, 0)",lowProb,lowProb1,circular,uniform,1,undefined,0,0.166666667,1,1,223.1666667,1,32,42848,0,0,0,0,0,0,0,0,58,0,1,0.166666667,223.1666667,32,42848,57,57,57,11/28/2018 15:27,Default description,yes,<openexp._canvas.legacy.Legacy object at 0x054665B0>,<openexp._canvas.legacy.Legacy object at 0x054CF750>,<openexp._canvas.legacy.Legacy object at 0x054FE730>,<openexp._canvas.legacy.Legacy object at 0x052FE930>,<openexp._canvas.legacy.Legacy object at 0x052EE190>,<openexp._canvas.legacy.Legacy object at 0x054592B0>,<openexp._canvas.legacy.Legacy object at 0x0547E210>,<openexp._canvas.legacy.Legacy object at 0x054700D0>,75,SpatProbMultiple3.osexp,C:/Userdata/Michel/SpatProbMultiple3,no,mono,no,18,no,white,no,yes,0.09,98,1050,legacy,315,32,32,1,C:/Userdata/Michel/SpatProbMultiple3/subject-7.csv,legacy,9,192,25,Kafkaesque Koffka,3.2.5,yes,598477b2b83f69022949e7e9,47,red,circular,green,circular,0,/,928,space,16629,16629,"(80, 80, 80)","(0, 123, 0)","(177, 0, 0)","(155, 155, 155)",2,legacy,experiment,"[6, 7, 0, 1, 2, 3, 4, 5]",/,2500,3000,0,8,252.7587515,1024,2,48000,-16,main,"[(0, -252), (178, -178), (252, 0), (178, 178), (0, 252), (-178, 178), (-252, 0), (-178, -178)]",[],31,odd,7,NA,216136,291579,291579,114354,113344,2255,140242,140242,2255,2255,130983,383438,2251,291579,382506,381597,381597,NA,899,study_X,0,16629,1,yes,1680
undefined,undefined,NA,NA,NA,16629,16629,black,no,legacy,legacy,legacy,0,red,"(177, 0, 0)",shape,present,highProb,rectangular,same,swap,swap,same,red,"(177, 0, 0)",lowProb,lowProb1,circular,uniform,1,undefined,0,0.171875,1,1,229.984375,1,33,44157,0,0,0,0,0,0,0,0,59,0,1,0.171875,229.984375,33,44157,58,58,58,11/28/2018 15:27,Default description,yes,<openexp._canvas.legacy.Legacy object at 0x054665B0>,<openexp._canvas.legacy.Legacy object at 0x054CF750>,<openexp._canvas.legacy.Legacy object at 0x054FE730>,<openexp._canvas.legacy.Legacy object at 0x052FE930>,<openexp._canvas.legacy.Legacy object at 0x052EE190>,<openexp._canvas.legacy.Legacy object at 0x054592B0>,<openexp._canvas.legacy.Legacy object at 0x053035D0>,<openexp._canvas.legacy.Legacy object at 0x054700D0>,75,SpatProbMultiple3.osexp,C:/Userdata/Michel/SpatProbMultiple3,no,mono,no,18,no,white,no,yes,0.09,98,1050,legacy,45,33,33,1,C:/Userdata/Michel/SpatProbMultiple3/subject-7.csv,legacy,9,192,25,Kafkaesque Koffka,3.2.5,yes,598477b2b83f69022949e7e9,47,red,rectangular,red,circular,0,\,1309,space,16629,16629,"(80, 80, 80)","(0, 123, 0)","(177, 0, 0)","(155, 155, 155)",2,legacy,experiment,"[6, 7, 0, 1, 2, 3, 4, 5]",\,2500,3000,0,8,252.7587515,1024,2,48000,-16,main,"[(0, -252), (178, -178), (252, 0), (178, 178), (0, 252), (-178, 178), (-252, 0), (-178, -178)]",[],31,odd,7,NA,216136,291579,291579,114354,113344,2255,140242,140242,2255,2255,130983,386110,2251,291579,384798,383890,383890,NA,899,study_X,0,16629,1,yes,1680
undefined,undefined,NA,NA,NA,16629,16629,black,no,legacy,legacy,legacy,0,green,"(0, 123, 0)",color,present,highProb,rectangular,swap,same,same,swap,red,"(177, 0, 0)",lowProb,lowProb6,rectangular,uniform,1,undefined,0,0.177083333,1,1,236.859375,1,34,45477,0,0,0,0,0,0,0,0,60,0,1,0.177083333,236.859375,34,45477,59,59,59,11/28/2018 15:27,Default description,yes,<openexp._canvas.legacy.Legacy object at 0x054665B0>,<openexp._canvas.legacy.Legacy object at 0x054CF750>,<openexp._canvas.legacy.Legacy object at 0x054FE730>,<openexp._canvas.legacy.Legacy object at 0x052FE930>,<openexp._canvas.legacy.Legacy object at 0x052EE190>,<openexp._canvas.legacy.Legacy object at 0x054592B0>,<openexp._canvas.legacy.Legacy object at 0x054D9350>,<openexp._canvas.legacy.Legacy object at 0x054700D0>,75,SpatProbMultiple3.osexp,C:/Userdata/Michel/SpatProbMultiple3,no,mono,no,18,no,white,no,yes,0.09,98,1050,legacy,315,34,34,1,C:/Userdata/Michel/SpatProbMultiple3/subject-7.csv,legacy,9,192,25,Kafkaesque Koffka,3.2.5,yes,598477b2b83f69022949e7e9,47,green,rectangular,red,rectangular,0,/,1320,space,16629,16629,"(80, 80, 80)","(0, 123, 0)","(177, 0, 0)","(155, 155, 155)",2,legacy,experiment,"[6, 7, 0, 1, 2, 3, 4, 5]",/,2500,3000,0,8,252.7587515,1024,2,48000,-16,main,"[(0, -252), (178, -178), (252, 0), (178, 178), (0, 252), (-178, 178), (-252, 0), (-178, -178)]",[],31,odd,5,NA,216136,291579,291579,114354,113344,2255,140242,140242,2255,2255,130983,388758,2251,291579,387434,386526,386526,NA,899,study_X,0,16629,1,yes,1680
undefined,undefined,NA,NA,NA,16629,16629,black,no,legacy,legacy,legacy,0,red,"(177, 0, 0)",shape,present,highProb,circular,swap,swap,same,same,red,"(177, 0, 0)",lowProb,lowProb4,rectangular,uniform,1,undefined,0,0.182291667,1,1,243.0677083,1,35,46669,0,0,0,0,0,0,0,0,61,0,1,0.182291667,243.0677083,35,46669,60,60,60,11/28/2018 15:27,Default description,yes,<openexp._canvas.legacy.Legacy object at 0x054665B0>,<openexp._canvas.legacy.Legacy object at 0x054CF750>,<openexp._canvas.legacy.Legacy object at 0x054FE730>,<openexp._canvas.legacy.Legacy object at 0x052FE930>,<openexp._canvas.legacy.Legacy object at 0x052EE190>,<openexp._canvas.legacy.Legacy object at 0x054592B0>,<openexp._canvas.legacy.Legacy object at 0x054F8350>,<openexp._canvas.legacy.Legacy object at 0x054700D0>,75,SpatProbMultiple3.osexp,C:/Userdata/Michel/SpatProbMultiple3,no,mono,no,18,no,white,no,yes,0.09,98,1050,legacy,315,35,35,1,C:/Userdata/Michel/SpatProbMultiple3/subject-7.csv,legacy,9,192,25,Kafkaesque Koffka,3.2.5,yes,598477b2b83f69022949e7e9,47,red,circular,red,rectangular,0,/,1192,space,16629,16629,"(80, 80, 80)","(0, 123, 0)","(177, 0, 0)","(155, 155, 155)",2,legacy,experiment,"[6, 7, 0, 1, 2, 3, 4, 5]",/,2500,3000,0,8,252.7587515,1024,2,48000,-16,main,"[(0, -252), (178, -178), (252, 0), (178, 178), (0, 252), (-178, 178), (-252, 0), (-178, -178)]",[],31,odd,3,NA,216136,291579,291579,114354,113344,2255,140242,140242,2255,2255,130983,391293,2251,291579,390098,389190,389190,NA,899,study_X,0,16629,1,yes,1680
undefined,undefined,NA,NA,NA,16629,16629,black,no,legacy,legacy,legacy,0,red,"(177, 0, 0)",color,present,highProbOther,circular,same,same,swap,swap,green,"(0, 123, 0)",lowProb,lowProb5,circular,uniform,1,undefined,0,0.1875,1,1,252.7864583,1,36,48535,0,0,0,0,0,0,0,0,62,0,1,0.1875,252.7864583,36,48535,61,61,61,11/28/2018 15:27,Default description,yes,<openexp._canvas.legacy.Legacy object at 0x054665B0>,<openexp._canvas.legacy.Legacy object at 0x054CF750>,<openexp._canvas.legacy.Legacy object at 0x054FE730>,<openexp._canvas.legacy.Legacy object at 0x052FE930>,<openexp._canvas.legacy.Legacy object at 0x052EE190>,<openexp._canvas.legacy.Legacy object at 0x054592B0>,<openexp._canvas.legacy.Legacy object at 0x05303950>,<openexp._canvas.legacy.Legacy object at 0x054700D0>,75,SpatProbMultiple3.osexp,C:/Userdata/Michel/SpatProbMultiple3,no,mono,no,18,no,white,no,yes,0.09,98,1050,legacy,45,36,36,1,C:/Userdata/Michel/SpatProbMultiple3/subject-7.csv,legacy,9,192,25,Kafkaesque Koffka,3.2.5,yes,598477b2b83f69022949e7e9,47,red,circular,green,circular,0,\,1866,space,16629,16629,"(80, 80, 80)","(0, 123, 0)","(177, 0, 0)","(155, 155, 155)",2,legacy,experiment,"[6, 7, 0, 1, 2, 3, 4, 5]",\,2500,3000,0,8,252.7587515,1024,2,48000,-16,main,"[(0, -252), (178, -178), (252, 0), (178, 178), (0, 252), (-178, 178), (-252, 0), (-178, -178)]",[],31,odd,4,NA,216136,291579,291579,114354,113344,2255,140242,140242,2255,2255,130983,394501,2251,291579,392634,391726,391726,NA,899,study_X,0,16629,1,yes,1680
undefined,undefined,NA,NA,NA,16629,16629,black,no,legacy,legacy,legacy,0,green,"(0, 123, 0)",color,present,lowProb5,rectangular,swap,swap,swap,swap,red,"(177, 0, 0)",highProbShape,highProbShape,rectangular,uniform,1,undefined,0,0.192708333,1,1,257.9114583,1,37,49519,0,0,0,0,0,0,0,0,63,0,1,0.192708333,257.9114583,37,49519,62,62,62,11/28/2018 15:27,Default description,yes,<openexp._canvas.legacy.Legacy object at 0x054665B0>,<openexp._canvas.legacy.Legacy object at 0x054CF750>,<openexp._canvas.legacy.Legacy object at 0x054FE730>,<openexp._canvas.legacy.Legacy object at 0x052FE930>,<openexp._canvas.legacy.Legacy object at 0x052EE190>,<openexp._canvas.legacy.Legacy object at 0x054592B0>,<openexp._canvas.legacy.Legacy object at 0x054D5A50>,<openexp._canvas.legacy.Legacy object at 0x054700D0>,75,SpatProbMultiple3.osexp,C:/Userdata/Michel/SpatProbMultiple3,no,mono,no,18,no,white,no,yes,0.09,98,1050,legacy,315,37,37,1,C:/Userdata/Michel/SpatProbMultiple3/subject-7.csv,legacy,9,192,25,Kafkaesque Koffka,3.2.5,yes,598477b2b83f69022949e7e9,47,green,rectangular,red,rectangular,0,/,984,space,16629,16629,"(80, 80, 80)","(0, 123, 0)","(177, 0, 0)","(155, 155, 155)",2,legacy,experiment,"[6, 7, 0, 1, 2, 3, 4, 5]",/,2500,3000,0,8,252.7587515,1024,2,48000,-16,main,"[(0, -252), (178, -178), (252, 0), (178, 178), (0, 252), (-178, 178), (-252, 0), (-178, -178)]",[],31,odd,2,NA,216136,291579,291579,114354,113344,2255,140242,140242,2255,2255,130983,396813,2251,291579,395826,394917,394917,NA,899,study_X,0,16629,1,yes,1680
undefined,undefined,NA,NA,NA,16629,16629,black,no,legacy,legacy,legacy,0,green,"(0, 123, 0)",color,absent,lowProb2,circular,same,swap,swap,swap,green,"(0, 123, 0)",lowProb,lowProb5,circular,uniform,0,undefined,0,0.192708333,1,1,265.1302083,1,37,50905,0,0,0,0,0,0,0,0,64,0,1,0.192708333,265.1302083,37,50905,63,63,63,11/28/2018 15:27,Default description,yes,<openexp._canvas.legacy.Legacy object at 0x054665B0>,<openexp._canvas.legacy.Legacy object at 0x054CF750>,<openexp._canvas.legacy.Legacy object at 0x054FE730>,<openexp._canvas.legacy.Legacy object at 0x052FE930>,<openexp._canvas.legacy.Legacy object at 0x052EE190>,<openexp._canvas.legacy.Legacy object at 0x054592B0>,<openexp._canvas.legacy.Legacy object at 0x05303370>,<openexp._canvas.legacy.Legacy object at 0x054700D0>,75,SpatProbMultiple3.osexp,C:/Userdata/Michel/SpatProbMultiple3,no,mono,no,18,no,white,no,yes,0.09,98,1050,legacy,315,38,38,1,C:/Userdata/Michel/SpatProbMultiple3/subject-7.csv,legacy,9,192,25,Kafkaesque Koffka,3.2.5,yes,598477b2b83f69022949e7e9,47,green,circular,green,circular,0,\,1386,space,16629,16629,"(80, 80, 80)","(0, 123, 0)","(177, 0, 0)","(155, 155, 155)",2,legacy,experiment,"[6, 7, 0, 1, 2, 3, 4, 5]",/,2500,3000,0,8,252.7587515,1024,2,48000,-16,main,"[(0, -252), (178, -178), (252, 0), (178, 178), (0, 252), (-178, 178), (-252, 0), (-178, -178)]",[],31,odd,4,NA,216136,291579,291579,114354,113344,2255,140242,140242,2255,2255,130983,399542,2251,291579,398152,397244,397244,NA,899,study_X,0,16629,1,yes,1680
undefined,undefined,NA,NA,NA,16629,16629,black,no,legacy,legacy,legacy,0,green,"(0, 123, 0)",shape,present,highProb,circular,same,same,same,swap,green,"(0, 123, 0)",lowProb,lowProb6,rectangular,uniform,1,undefined,0,0.197916667,1,1,272.9114583,1,38,52399,0,0,0,0,0,0,0,0,65,0,1,0.197916667,272.9114583,38,52399,64,64,64,11/28/2018 15:27,Default description,yes,<openexp._canvas.legacy.Legacy object at 0x054665B0>,<openexp._canvas.legacy.Legacy object at 0x054CF750>,<openexp._canvas.legacy.Legacy object at 0x054FE730>,<openexp._canvas.legacy.Legacy object at 0x052FE930>,<openexp._canvas.legacy.Legacy object at 0x052EE190>,<openexp._canvas.legacy.Legacy object at 0x054592B0>,<openexp._canvas.legacy.Legacy object at 0x05303350>,<openexp._canvas.legacy.Legacy object at 0x054700D0>,75,SpatProbMultiple3.osexp,C:/Userdata/Michel/SpatProbMultiple3,no,mono,no,18,no,white,no,yes,0.09,98,1050,legacy,45,39,39,1,C:/Userdata/Michel/SpatProbMultiple3/subject-7.csv,legacy,9,192,25,Kafkaesque Koffka,3.2.5,yes,598477b2b83f69022949e7e9,47,green,circular,green,rectangular,0,\,1494,space,16629,16629,"(80, 80, 80)","(0, 123, 0)","(177, 0, 0)","(155, 155, 155)",2,legacy,experiment,"[6, 7, 0, 1, 2, 3, 4, 5]",\,2500,3000,0,8,252.7587515,1024,2,48000,-16,main,"[(0, -252), (178, -178), (252, 0), (178, 178), (0, 252), (-178, 178), (-252, 0), (-178, -178)]",[],31,odd,5,NA,216136,291579,291579,114354,113344,2255,140242,140242,2255,2255,130983,402366,2251,291579,400868,399959,399959,NA,899,study_X,0,16629,1,yes,1680
undefined,undefined,NA,NA,NA,16629,16629,black,no,legacy,legacy,legacy,0,red,"(177, 0, 0)",shape,present,highProb,rectangular,swap,swap,swap,swap,red,"(177, 0, 0)",lowProb,lowProb4,circular,uniform,1,undefined,0,0.203125,1,1,283.1770833,1,39,54370,0,0,0,0,0,0,0,0,66,0,1,0.203125,283.1770833,39,54370,65,65,65,11/28/2018 15:27,Default description,yes,<openexp._canvas.legacy.Legacy object at 0x054665B0>,<openexp._canvas.legacy.Legacy object at 0x054CF750>,<openexp._canvas.legacy.Legacy object at 0x054FE730>,<openexp._canvas.legacy.Legacy object at 0x052FE930>,<openexp._canvas.legacy.Legacy object at 0x052EE190>,<openexp._canvas.legacy.Legacy object at 0x054592B0>,<openexp._canvas.legacy.Legacy object at 0x054FE030>,<openexp._canvas.legacy.Legacy object at 0x054700D0>,75,SpatProbMultiple3.osexp,C:/Userdata/Michel/SpatProbMultiple3,no,mono,no,18,no,white,no,yes,0.09,98,1050,legacy,315,40,40,1,C:/Userdata/Michel/SpatProbMultiple3/subject-7.csv,legacy,9,192,25,Kafkaesque Koffka,3.2.5,yes,598477b2b83f69022949e7e9,47,red,rectangular,red,circular,0,/,1971,space,16629,16629,"(80, 80, 80)","(0, 123, 0)","(177, 0, 0)","(155, 155, 155)",2,legacy,experiment,"[6, 7, 0, 1, 2, 3, 4, 5]",/,2500,3000,0,8,252.7587515,1024,2,48000,-16,main,"[(0, -252), (178, -178), (252, 0), (178, 178), (0, 252), (-178, 178), (-252, 0), (-178, -178)]",[],31,odd,3,NA,216136,291579,291579,114354,113344,2255,140242,140242,2255,2255,130983,405669,2251,291579,403696,402788,402788,NA,899,study_X,0,16629,1,yes,1680
undefined,undefined,NA,NA,NA,16629,16629,black,no,legacy,legacy,legacy,0,green,"(0, 123, 0)",shape,present,highProb,rectangular,swap,same,swap,same,green,"(0, 123, 0)",lowProb,lowProb3,circular,uniform,1,undefined,0,0.208333333,1,1,288.953125,1,40,55479,0,0,0,0,0,0,0,0,67,0,1,0.208333333,288.953125,40,55479,66,66,66,11/28/2018 15:27,Default description,yes,<openexp._canvas.legacy.Legacy object at 0x054665B0>,<openexp._canvas.legacy.Legacy object at 0x054CF750>,<openexp._canvas.legacy.Legacy object at 0x054FE730>,<openexp._canvas.legacy.Legacy object at 0x052FE930>,<openexp._canvas.legacy.Legacy object at 0x052EE190>,<openexp._canvas.legacy.Legacy object at 0x054592B0>,<openexp._canvas.legacy.Legacy object at 0x05303490>,<openexp._canvas.legacy.Legacy object at 0x054700D0>,75,SpatProbMultiple3.osexp,C:/Userdata/Michel/SpatProbMultiple3,no,mono,no,18,no,white,no,yes,0.09,98,1050,legacy,315,41,41,1,C:/Userdata/Michel/SpatProbMultiple3/subject-7.csv,legacy,9,192,25,Kafkaesque Koffka,3.2.5,yes,598477b2b83f69022949e7e9,47,green,rectangular,green,circular,0,/,1109,space,16629,16629,"(80, 80, 80)","(0, 123, 0)","(177, 0, 0)","(155, 155, 155)",2,legacy,experiment,"[6, 7, 0, 1, 2, 3, 4, 5]",/,2500,3000,0,8,252.7587515,1024,2,48000,-16,main,"[(0, -252), (178, -178), (252, 0), (178, 178), (0, 252), (-178, 178), (-252, 0), (-178, -178)]",[],31,odd,1,NA,216136,291579,291579,114354,113344,2255,140242,140242,2255,2255,130983,408109,2251,291579,406998,406090,406090,NA,899,study_X,0,16629,1,yes,1680
undefined,undefined,NA,NA,NA,16629,16629,black,no,legacy,legacy,legacy,0,green,"(0, 123, 0)",color,present,lowProb2,rectangular,same,same,swap,swap,red,"(177, 0, 0)",lowProb,lowProb1,rectangular,uniform,1,undefined,0,0.213541667,1,1,294.0208333,1,41,56452,0,0,0,0,0,0,0,0,68,0,1,0.213541667,294.0208333,41,56452,67,67,67,11/28/2018 15:27,Default description,yes,<openexp._canvas.legacy.Legacy object at 0x054665B0>,<openexp._canvas.legacy.Legacy object at 0x054CF750>,<openexp._canvas.legacy.Legacy object at 0x054FE730>,<openexp._canvas.legacy.Legacy object at 0x052FE930>,<openexp._canvas.legacy.Legacy object at 0x052EE190>,<openexp._canvas.legacy.Legacy object at 0x054592B0>,<openexp._canvas.legacy.Legacy object at 0x054CF7B0>,<openexp._canvas.legacy.Legacy object at 0x054700D0>,75,SpatProbMultiple3.osexp,C:/Userdata/Michel/SpatProbMultiple3,no,mono,no,18,no,white,no,yes,0.09,98,1050,legacy,45,42,42,1,C:/Userdata/Michel/SpatProbMultiple3/subject-7.csv,legacy,9,192,25,Kafkaesque Koffka,3.2.5,yes,598477b2b83f69022949e7e9,47,green,rectangular,red,rectangular,0,\,973,space,16629,16629,"(80, 80, 80)","(0, 123, 0)","(177, 0, 0)","(155, 155, 155)",2,legacy,experiment,"[6, 7, 0, 1, 2, 3, 4, 5]",\,2500,3000,0,8,252.7587515,1024,2,48000,-16,main,"[(0, -252), (178, -178), (252, 0), (178, 178), (0, 252), (-178, 178), (-252, 0), (-178, -178)]",[],31,odd,7,NA,216136,291579,291579,114354,113344,2255,140242,140242,2255,2255,130983,410429,2251,291579,409454,408545,408545,NA,899,study_X,0,16629,1,yes,1680
undefined,undefined,NA,NA,NA,16629,16629,black,no,legacy,legacy,legacy,0,red,"(177, 0, 0)",color,present,highProbOther,rectangular,swap,same,swap,same,green,"(0, 123, 0)",lowProb,lowProb5,rectangular,uniform,1,undefined,0,0.21875,1,1,301.4375,1,42,57876,0,0,0,0,0,0,0,0,69,0,1,0.21875,301.4375,42,57876,68,68,68,11/28/2018 15:27,Default description,yes,<openexp._canvas.legacy.Legacy object at 0x054665B0>,<openexp._canvas.legacy.Legacy object at 0x054CF750>,<openexp._canvas.legacy.Legacy object at 0x054FE730>,<openexp._canvas.legacy.Legacy object at 0x052FE930>,<openexp._canvas.legacy.Legacy object at 0x052EE190>,<openexp._canvas.legacy.Legacy object at 0x054592B0>,<openexp._canvas.legacy.Legacy object at 0x052F1610>,<openexp._canvas.legacy.Legacy object at 0x054700D0>,75,SpatProbMultiple3.osexp,C:/Userdata/Michel/SpatProbMultiple3,no,mono,no,18,no,white,no,yes,0.09,98,1050,legacy,45,43,43,1,C:/Userdata/Michel/SpatProbMultiple3/subject-7.csv,legacy,9,192,25,Kafkaesque Koffka,3.2.5,yes,598477b2b83f69022949e7e9,47,red,rectangular,green,rectangular,0,\,1424,space,16629,16629,"(80, 80, 80)","(0, 123, 0)","(177, 0, 0)","(155, 155, 155)",2,legacy,experiment,"[6, 7, 0, 1, 2, 3, 4, 5]",\,2500,3000,0,8,252.7587515,1024,2,48000,-16,main,"[(0, -252), (178, -178), (252, 0), (178, 178), (0, 252), (-178, 178), (-252, 0), (-178, -178)]",[],31,odd,4,NA,216136,291579,291579,114354,113344,2255,140242,140242,2255,2255,130983,413181,2251,291579,411753,410845,410845,NA,899,study_X,0,16629,1,yes,1680
undefined,undefined,NA,NA,NA,16629,16629,black,no,legacy,legacy,legacy,0,green,"(0, 123, 0)",shape,present,highProb,circular,swap,swap,same,same,green,"(0, 123, 0)",lowProb,lowProb3,rectangular,uniform,1,undefined,0,0.223958333,1,1,306.1041667,1,43,58772,0,0,0,0,0,0,0,0,70,0,1,0.223958333,306.1041667,43,58772,69,69,69,11/28/2018 15:27,Default description,yes,<openexp._canvas.legacy.Legacy object at 0x054665B0>,<openexp._canvas.legacy.Legacy object at 0x054CF750>,<openexp._canvas.legacy.Legacy object at 0x054FE730>,<openexp._canvas.legacy.Legacy object at 0x052FE930>,<openexp._canvas.legacy.Legacy object at 0x052EE190>,<openexp._canvas.legacy.Legacy object at 0x054592B0>,<openexp._canvas.legacy.Legacy object at 0x054FEA90>,<openexp._canvas.legacy.Legacy object at 0x054700D0>,75,SpatProbMultiple3.osexp,C:/Userdata/Michel/SpatProbMultiple3,no,mono,no,18,no,white,no,yes,0.09,98,1050,legacy,45,44,44,1,C:/Userdata/Michel/SpatProbMultiple3/subject-7.csv,legacy,9,192,25,Kafkaesque Koffka,3.2.5,yes,598477b2b83f69022949e7e9,47,green,circular,green,rectangular,0,\,896,space,16629,16629,"(80, 80, 80)","(0, 123, 0)","(177, 0, 0)","(155, 155, 155)",2,legacy,experiment,"[6, 7, 0, 1, 2, 3, 4, 5]",\,2500,3000,0,8,252.7587515,1024,2,48000,-16,main,"[(0, -252), (178, -178), (252, 0), (178, 178), (0, 252), (-178, 178), (-252, 0), (-178, -178)]",[],31,odd,1,NA,216136,291579,291579,114354,113344,2255,140242,140242,2255,2255,130983,415405,2251,291579,414506,413599,413599,NA,899,study_X,0,16629,1,yes,1680
undefined,undefined,NA,NA,NA,16629,16629,black,no,legacy,legacy,legacy,0,green,"(0, 123, 0)",color,present,highProb,circular,same,same,swap,swap,red,"(177, 0, 0)",lowProb,lowProb1,circular,uniform,1,undefined,0,0.229166667,1,1,311.5625,1,44,59820,0,0,0,0,0,0,0,0,71,0,1,0.229166667,311.5625,44,59820,70,70,70,11/28/2018 15:27,Default description,yes,<openexp._canvas.legacy.Legacy object at 0x054665B0>,<openexp._canvas.legacy.Legacy object at 0x054CF750>,<openexp._canvas.legacy.Legacy object at 0x054FE730>,<openexp._canvas.legacy.Legacy object at 0x052FE930>,<openexp._canvas.legacy.Legacy object at 0x052EE190>,<openexp._canvas.legacy.Legacy object at 0x054592B0>,<openexp._canvas.legacy.Legacy object at 0x054666F0>,<openexp._canvas.legacy.Legacy object at 0x054700D0>,75,SpatProbMultiple3.osexp,C:/Userdata/Michel/SpatProbMultiple3,no,mono,no,18,no,white,no,yes,0.09,98,1050,legacy,45,45,45,1,C:/Userdata/Michel/SpatProbMultiple3/subject-7.csv,legacy,9,192,25,Kafkaesque Koffka,3.2.5,yes,598477b2b83f69022949e7e9,47,green,circular,red,circular,0,\,1048,space,16629,16629,"(80, 80, 80)","(0, 123, 0)","(177, 0, 0)","(155, 155, 155)",2,legacy,experiment,"[6, 7, 0, 1, 2, 3, 4, 5]",\,2500,3000,0,8,252.7587515,1024,2,48000,-16,main,"[(0, -252), (178, -178), (252, 0), (178, 178), (0, 252), (-178, 178), (-252, 0), (-178, -178)]",[],31,odd,7,NA,216136,291579,291579,114354,113344,2255,140242,140242,2255,2255,130983,417790,2251,291579,416738,415830,415830,NA,899,study_X,0,16629,1,yes,1680
undefined,undefined,NA,NA,NA,16629,16629,black,no,legacy,legacy,legacy,0,green,"(0, 123, 0)",shape,present,highProb,rectangular,same,swap,swap,same,green,"(0, 123, 0)",highProbColor,highProbColor,circular,uniform,1,undefined,0,0.234375,1,1,319.1875,1,45,61284,0,0,0,0,0,0,0,0,72,0,1,0.234375,319.1875,45,61284,71,71,71,11/28/2018 15:27,Default description,yes,<openexp._canvas.legacy.Legacy object at 0x054665B0>,<openexp._canvas.legacy.Legacy object at 0x054CF750>,<openexp._canvas.legacy.Legacy object at 0x054FE730>,<openexp._canvas.legacy.Legacy object at 0x052FE930>,<openexp._canvas.legacy.Legacy object at 0x052EE190>,<openexp._canvas.legacy.Legacy object at 0x054592B0>,<openexp._canvas.legacy.Legacy object at 0x054E6AD0>,<openexp._canvas.legacy.Legacy object at 0x054700D0>,75,SpatProbMultiple3.osexp,C:/Userdata/Michel/SpatProbMultiple3,no,mono,no,18,no,white,no,yes,0.09,98,1050,legacy,45,46,46,1,C:/Userdata/Michel/SpatProbMultiple3/subject-7.csv,legacy,9,192,25,Kafkaesque Koffka,3.2.5,yes,598477b2b83f69022949e7e9,47,green,rectangular,green,circular,0,\,1464,space,16629,16629,"(80, 80, 80)","(0, 123, 0)","(177, 0, 0)","(155, 155, 155)",2,legacy,experiment,"[6, 7, 0, 1, 2, 3, 4, 5]",\,2500,3000,0,8,252.7587515,1024,2,48000,-16,main,"[(0, -252), (178, -178), (252, 0), (178, 178), (0, 252), (-178, 178), (-252, 0), (-178, -178)]",[],31,odd,6,NA,216136,291579,291579,114354,113344,2255,140242,140242,2255,2255,130983,420573,2251,291579,419106,418198,418198,NA,899,study_X,0,16629,1,yes,1680
undefined,undefined,NA,NA,NA,16629,16629,black,no,legacy,legacy,legacy,0,red,"(177, 0, 0)",shape,present,highProb,circular,swap,swap,swap,swap,red,"(177, 0, 0)",lowProb,lowProb6,rectangular,uniform,1,undefined,0,0.239583333,1,1,326.0104167,1,46,62594,0,0,0,0,0,0,0,0,73,0,1,0.239583333,326.0104167,46,62594,72,72,72,11/28/2018 15:27,Default description,yes,<openexp._canvas.legacy.Legacy object at 0x054665B0>,<openexp._canvas.legacy.Legacy object at 0x054CF750>,<openexp._canvas.legacy.Legacy object at 0x054FE730>,<openexp._canvas.legacy.Legacy object at 0x052FE930>,<openexp._canvas.legacy.Legacy object at 0x052EE190>,<openexp._canvas.legacy.Legacy object at 0x054592B0>,<openexp._canvas.legacy.Legacy object at 0x054F8CB0>,<openexp._canvas.legacy.Legacy object at 0x054700D0>,75,SpatProbMultiple3.osexp,C:/Userdata/Michel/SpatProbMultiple3,no,mono,no,18,no,white,no,yes,0.09,98,1050,legacy,315,47,47,1,C:/Userdata/Michel/SpatProbMultiple3/subject-7.csv,legacy,9,192,25,Kafkaesque Koffka,3.2.5,yes,598477b2b83f69022949e7e9,47,red,circular,red,rectangular,0,/,1310,space,16629,16629,"(80, 80, 80)","(0, 123, 0)","(177, 0, 0)","(155, 155, 155)",2,legacy,experiment,"[6, 7, 0, 1, 2, 3, 4, 5]",/,2500,3000,0,8,252.7587515,1024,2,48000,-16,main,"[(0, -252), (178, -178), (252, 0), (178, 178), (0, 252), (-178, 178), (-252, 0), (-178, -178)]",[],31,odd,5,NA,216136,291579,291579,114354,113344,2255,140242,140242,2255,2255,130983,423213,2251,291579,421901,420993,420993,NA,899,study_X,0,16629,1,yes,1680
undefined,undefined,NA,NA,NA,16629,16629,black,no,legacy,legacy,legacy,0,red,"(177, 0, 0)",color,present,highProb,circular,same,same,swap,swap,green,"(0, 123, 0)",lowProb,lowProb5,circular,uniform,1,undefined,0,0.244791667,1,1,334.53125,1,47,64230,0,0,0,0,0,0,0,0,74,0,1,0.244791667,334.53125,47,64230,73,73,73,11/28/2018 15:27,Default description,yes,<openexp._canvas.legacy.Legacy object at 0x054665B0>,<openexp._canvas.legacy.Legacy object at 0x054CF750>,<openexp._canvas.legacy.Legacy object at 0x054FE730>,<openexp._canvas.legacy.Legacy object at 0x052FE930>,<openexp._canvas.legacy.Legacy object at 0x052EE190>,<openexp._canvas.legacy.Legacy object at 0x054592B0>,<openexp._canvas.legacy.Legacy object at 0x054D5990>,<openexp._canvas.legacy.Legacy object at 0x054700D0>,75,SpatProbMultiple3.osexp,C:/Userdata/Michel/SpatProbMultiple3,no,mono,no,18,no,white,no,yes,0.09,98,1050,legacy,45,48,48,1,C:/Userdata/Michel/SpatProbMultiple3/subject-7.csv,legacy,9,192,25,Kafkaesque Koffka,3.2.5,yes,598477b2b83f69022949e7e9,47,red,circular,green,circular,0,\,1636,space,16629,16629,"(80, 80, 80)","(0, 123, 0)","(177, 0, 0)","(155, 155, 155)",2,legacy,experiment,"[6, 7, 0, 1, 2, 3, 4, 5]",\,2500,3000,0,8,252.7587515,1024,2,48000,-16,main,"[(0, -252), (178, -178), (252, 0), (178, 178), (0, 252), (-178, 178), (-252, 0), (-178, -178)]",[],31,odd,4,NA,216136,291579,291579,114354,113344,2255,140242,140242,2255,2255,130983,426181,2251,291579,424542,423633,423633,NA,899,study_X,0,16629,1,yes,1680
undefined,undefined,NA,NA,NA,16629,16629,black,no,legacy,legacy,legacy,0,green,"(0, 123, 0)",color,absent,lowProb4,rectangular,swap,swap,same,swap,green,"(0, 123, 0)",highProbShape,highProbShape,rectangular,uniform,1,undefined,0,0.25,1,1,340.1979167,1,48,65318,0,0,0,0,0,0,0,0,75,0,1,0.25,340.1979167,48,65318,74,74,74,11/28/2018 15:27,Default description,yes,<openexp._canvas.legacy.Legacy object at 0x054665B0>,<openexp._canvas.legacy.Legacy object at 0x054CF750>,<openexp._canvas.legacy.Legacy object at 0x054FE730>,<openexp._canvas.legacy.Legacy object at 0x052FE930>,<openexp._canvas.legacy.Legacy object at 0x052EE190>,<openexp._canvas.legacy.Legacy object at 0x054592B0>,<openexp._canvas.legacy.Legacy object at 0x05470450>,<openexp._canvas.legacy.Legacy object at 0x054700D0>,75,SpatProbMultiple3.osexp,C:/Userdata/Michel/SpatProbMultiple3,no,mono,no,18,no,white,no,yes,0.09,98,1050,legacy,315,49,49,1,C:/Userdata/Michel/SpatProbMultiple3/subject-7.csv,legacy,9,192,25,Kafkaesque Koffka,3.2.5,yes,598477b2b83f69022949e7e9,47,green,rectangular,green,rectangular,0,/,1088,space,16629,16629,"(80, 80, 80)","(0, 123, 0)","(177, 0, 0)","(155, 155, 155)",2,legacy,experiment,"[6, 7, 0, 1, 2, 3, 4, 5]",/,2500,3000,0,8,252.7587515,1024,2,48000,-16,main,"[(0, -252), (178, -178), (252, 0), (178, 178), (0, 252), (-178, 178), (-252, 0), (-178, -178)]",[],31,odd,2,NA,216136,291579,291579,114354,113344,2255,140242,140242,2255,2255,130983,428597,2251,291579,427505,426596,426596,NA,899,study_X,0,16629,1,yes,1680
undefined,undefined,NA,NA,NA,16629,16629,black,no,legacy,legacy,legacy,0,green,"(0, 123, 0)",shape,present,highProb,rectangular,same,same,same,swap,green,"(0, 123, 0)",lowProb,lowProb4,circular,uniform,1,undefined,0,0.255208333,1,1,351.4583333,1,49,67480,0,0,0,0,0,0,0,0,76,0,1,0.255208333,351.4583333,49,67480,75,75,75,11/28/2018 15:27,Default description,yes,<openexp._canvas.legacy.Legacy object at 0x054665B0>,<openexp._canvas.legacy.Legacy object at 0x054CF750>,<openexp._canvas.legacy.Legacy object at 0x054FE730>,<openexp._canvas.legacy.Legacy object at 0x052FE930>,<openexp._canvas.legacy.Legacy object at 0x052EE190>,<openexp._canvas.legacy.Legacy object at 0x054592B0>,<openexp._canvas.legacy.Legacy object at 0x054E4C70>,<openexp._canvas.legacy.Legacy object at 0x054700D0>,75,SpatProbMultiple3.osexp,C:/Userdata/Michel/SpatProbMultiple3,no,mono,no,18,no,white,no,yes,0.09,98,1050,legacy,45,50,50,1,C:/Userdata/Michel/SpatProbMultiple3/subject-7.csv,legacy,9,192,25,Kafkaesque Koffka,3.2.5,yes,598477b2b83f69022949e7e9,47,green,rectangular,green,circular,0,\,2162,space,16629,16629,"(80, 80, 80)","(0, 123, 0)","(177, 0, 0)","(155, 155, 155)",2,legacy,experiment,"[6, 7, 0, 1, 2, 3, 4, 5]",\,2500,3000,0,8,252.7587515,1024,2,48000,-16,main,"[(0, -252), (178, -178), (252, 0), (178, 178), (0, 252), (-178, 178), (-252, 0), (-178, -178)]",[],31,odd,3,NA,216136,291579,291579,114354,113344,2255,140242,140242,2255,2255,130983,432093,2251,291579,429928,429020,429020,NA,899,study_X,0,16629,1,yes,1680
undefined,undefined,NA,NA,NA,16629,16629,black,no,legacy,legacy,legacy,0,red,"(177, 0, 0)",color,present,highProb,circular,swap,swap,same,same,green,"(0, 123, 0)",lowProb,lowProb2,circular,uniform,1,undefined,0,0.260416667,1,1,360.1510417,1,50,69149,0,0,0,0,0,0,0,0,77,0,1,0.260416667,360.1510417,50,69149,76,76,76,11/28/2018 15:27,Default description,yes,<openexp._canvas.legacy.Legacy object at 0x054665B0>,<openexp._canvas.legacy.Legacy object at 0x054CF750>,<openexp._canvas.legacy.Legacy object at 0x054FE730>,<openexp._canvas.legacy.Legacy object at 0x052FE930>,<openexp._canvas.legacy.Legacy object at 0x052EE190>,<openexp._canvas.legacy.Legacy object at 0x054592B0>,<openexp._canvas.legacy.Legacy object at 0x054D5AF0>,<openexp._canvas.legacy.Legacy object at 0x054700D0>,75,SpatProbMultiple3.osexp,C:/Userdata/Michel/SpatProbMultiple3,no,mono,no,18,no,white,no,yes,0.09,98,1050,legacy,45,51,51,1,C:/Userdata/Michel/SpatProbMultiple3/subject-7.csv,legacy,9,192,25,Kafkaesque Koffka,3.2.5,yes,598477b2b83f69022949e7e9,47,red,circular,green,circular,0,\,1669,space,16629,16629,"(80, 80, 80)","(0, 123, 0)","(177, 0, 0)","(155, 155, 155)",2,legacy,experiment,"[6, 7, 0, 1, 2, 3, 4, 5]",\,2500,3000,0,8,252.7587515,1024,2,48000,-16,main,"[(0, -252), (178, -178), (252, 0), (178, 178), (0, 252), (-178, 178), (-252, 0), (-178, -178)]",[],31,odd,0,NA,216136,291579,291579,114354,113344,2255,140242,140242,2255,2255,130983,435093,2251,291579,433422,432513,432514,NA,899,study_X,0,16629,1,yes,1680
undefined,undefined,NA,NA,NA,16629,16629,black,no,legacy,legacy,legacy,0,red,"(177, 0, 0)",color,present,lowProb5,circular,same,same,same,same,green,"(0, 123, 0)",highProbColor,highProbColor,circular,uniform,1,undefined,0,0.265625,1,1,367.703125,1,51,70599,0,0,0,0,0,0,0,0,78,0,1,0.265625,367.703125,51,70599,77,77,77,11/28/2018 15:27,Default description,yes,<openexp._canvas.legacy.Legacy object at 0x054665B0>,<openexp._canvas.legacy.Legacy object at 0x054CF750>,<openexp._canvas.legacy.Legacy object at 0x054FE730>,<openexp._canvas.legacy.Legacy object at 0x052FE930>,<openexp._canvas.legacy.Legacy object at 0x052EE190>,<openexp._canvas.legacy.Legacy object at 0x054592B0>,<openexp._canvas.legacy.Legacy object at 0x0547E950>,<openexp._canvas.legacy.Legacy object at 0x054700D0>,75,SpatProbMultiple3.osexp,C:/Userdata/Michel/SpatProbMultiple3,no,mono,no,18,no,white,no,yes,0.09,98,1050,legacy,315,52,52,1,C:/Userdata/Michel/SpatProbMultiple3/subject-7.csv,legacy,9,192,25,Kafkaesque Koffka,3.2.5,yes,598477b2b83f69022949e7e9,47,red,circular,green,circular,0,/,1450,space,16629,16629,"(80, 80, 80)","(0, 123, 0)","(177, 0, 0)","(155, 155, 155)",2,legacy,experiment,"[6, 7, 0, 1, 2, 3, 4, 5]",/,2500,3000,0,8,252.7587515,1024,2,48000,-16,main,"[(0, -252), (178, -178), (252, 0), (178, 178), (0, 252), (-178, 178), (-252, 0), (-178, -178)]",[],31,odd,6,NA,216136,291579,291579,114354,113344,2255,140242,140242,2255,2255,130983,437877,2251,291579,436424,435515,435515,NA,899,study_X,0,16629,1,yes,1680
undefined,undefined,NA,NA,NA,16629,16629,black,no,legacy,legacy,legacy,0,green,"(0, 123, 0)",color,present,lowProb1,circular,swap,same,swap,same,red,"(177, 0, 0)",lowProb,lowProb6,circular,uniform,1,undefined,0,0.270833333,1,1,377.2760417,1,52,72437,0,0,0,0,0,0,0,0,79,0,1,0.270833333,377.2760417,52,72437,78,78,78,11/28/2018 15:27,Default description,yes,<openexp._canvas.legacy.Legacy object at 0x054665B0>,<openexp._canvas.legacy.Legacy object at 0x054CF750>,<openexp._canvas.legacy.Legacy object at 0x054FE730>,<openexp._canvas.legacy.Legacy object at 0x052FE930>,<openexp._canvas.legacy.Legacy object at 0x052EE190>,<openexp._canvas.legacy.Legacy object at 0x054592B0>,<openexp._canvas.legacy.Legacy object at 0x054E40F0>,<openexp._canvas.legacy.Legacy object at 0x054700D0>,75,SpatProbMultiple3.osexp,C:/Userdata/Michel/SpatProbMultiple3,no,mono,no,18,no,white,no,yes,0.09,98,1050,legacy,45,53,53,1,C:/Userdata/Michel/SpatProbMultiple3/subject-7.csv,legacy,9,192,25,Kafkaesque Koffka,3.2.5,yes,598477b2b83f69022949e7e9,47,green,circular,red,circular,0,\,1838,space,16629,16629,"(80, 80, 80)","(0, 123, 0)","(177, 0, 0)","(155, 155, 155)",2,legacy,experiment,"[6, 7, 0, 1, 2, 3, 4, 5]",\,2500,3000,0,8,252.7587515,1024,2,48000,-16,main,"[(0, -252), (178, -178), (252, 0), (178, 178), (0, 252), (-178, 178), (-252, 0), (-178, -178)]",[],31,odd,5,NA,216136,291579,291579,114354,113344,2255,140242,140242,2255,2255,130983,441037,2251,291579,439197,438289,438289,NA,899,study_X,0,16629,1,yes,1680
undefined,undefined,NA,NA,NA,16629,16629,black,no,legacy,legacy,legacy,0,green,"(0, 123, 0)",color,absent,highProbOther,circular,same,same,swap,same,green,"(0, 123, 0)",lowProb,lowProb1,circular,uniform,1,undefined,0,0.276041667,1,1,382.5052083,1,53,73441,0,0,0,0,0,0,0,0,80,0,1,0.276041667,382.5052083,53,73441,79,79,79,11/28/2018 15:27,Default description,yes,<openexp._canvas.legacy.Legacy object at 0x054665B0>,<openexp._canvas.legacy.Legacy object at 0x054CF750>,<openexp._canvas.legacy.Legacy object at 0x054FE730>,<openexp._canvas.legacy.Legacy object at 0x052FE930>,<openexp._canvas.legacy.Legacy object at 0x052EE190>,<openexp._canvas.legacy.Legacy object at 0x054592B0>,<openexp._canvas.legacy.Legacy object at 0x054D5D50>,<openexp._canvas.legacy.Legacy object at 0x054700D0>,75,SpatProbMultiple3.osexp,C:/Userdata/Michel/SpatProbMultiple3,no,mono,no,18,no,white,no,yes,0.09,98,1050,legacy,315,54,54,1,C:/Userdata/Michel/SpatProbMultiple3/subject-7.csv,legacy,9,192,25,Kafkaesque Koffka,3.2.5,yes,598477b2b83f69022949e7e9,47,green,circular,green,circular,0,/,1004,space,16629,16629,"(80, 80, 80)","(0, 123, 0)","(177, 0, 0)","(155, 155, 155)",2,legacy,experiment,"[6, 7, 0, 1, 2, 3, 4, 5]",/,2500,3000,0,8,252.7587515,1024,2,48000,-16,main,"[(0, -252), (178, -178), (252, 0), (178, 178), (0, 252), (-178, 178), (-252, 0), (-178, -178)]",[],31,odd,7,NA,216136,291579,291579,114354,113344,2255,140242,140242,2255,2255,130983,443373,2251,291579,442367,441458,441458,NA,899,study_X,0,16629,1,yes,1680
undefined,undefined,NA,NA,NA,16629,16629,black,no,legacy,legacy,legacy,0,red,"(177, 0, 0)",color,present,lowProb4,circular,swap,same,same,same,green,"(0, 123, 0)",lowProb,lowProb1,circular,uniform,1,undefined,0,0.28125,1,1,388.453125,1,54,74583,0,0,0,0,0,0,0,0,81,0,1,0.28125,388.453125,54,74583,80,80,80,11/28/2018 15:27,Default description,yes,<openexp._canvas.legacy.Legacy object at 0x054665B0>,<openexp._canvas.legacy.Legacy object at 0x054CF750>,<openexp._canvas.legacy.Legacy object at 0x054FE730>,<openexp._canvas.legacy.Legacy object at 0x052FE930>,<openexp._canvas.legacy.Legacy object at 0x052EE190>,<openexp._canvas.legacy.Legacy object at 0x054592B0>,<openexp._canvas.legacy.Legacy object at 0x054CF910>,<openexp._canvas.legacy.Legacy object at 0x054700D0>,75,SpatProbMultiple3.osexp,C:/Userdata/Michel/SpatProbMultiple3,no,mono,no,18,no,white,no,yes,0.09,98,1050,legacy,315,55,55,1,C:/Userdata/Michel/SpatProbMultiple3/subject-7.csv,legacy,9,192,25,Kafkaesque Koffka,3.2.5,yes,598477b2b83f69022949e7e9,47,red,circular,green,circular,0,/,1142,space,16629,16629,"(80, 80, 80)","(0, 123, 0)","(177, 0, 0)","(155, 155, 155)",2,legacy,experiment,"[6, 7, 0, 1, 2, 3, 4, 5]",/,2500,3000,0,8,252.7587515,1024,2,48000,-16,main,"[(0, -252), (178, -178), (252, 0), (178, 178), (0, 252), (-178, 178), (-252, 0), (-178, -178)]",[],31,odd,7,NA,216136,291579,291579,114354,113344,2255,140242,140242,2255,2255,130983,445845,2251,291579,444700,443791,443791,NA,899,study_X,0,16629,1,yes,1680
undefined,undefined,NA,NA,NA,16629,16629,black,no,legacy,legacy,legacy,0,red,"(177, 0, 0)",shape,present,highProb,rectangular,same,swap,swap,same,red,"(177, 0, 0)",lowProb,lowProb2,circular,uniform,1,undefined,0,0.286458333,1,1,394.921875,1,55,75825,0,0,0,0,0,0,0,0,82,0,1,0.286458333,394.921875,55,75825,81,81,81,11/28/2018 15:27,Default description,yes,<openexp._canvas.legacy.Legacy object at 0x054665B0>,<openexp._canvas.legacy.Legacy object at 0x054CF750>,<openexp._canvas.legacy.Legacy object at 0x054FE730>,<openexp._canvas.legacy.Legacy object at 0x052FE930>,<openexp._canvas.legacy.Legacy object at 0x052EE190>,<openexp._canvas.legacy.Legacy object at 0x054592B0>,<openexp._canvas.legacy.Legacy object at 0x054FEAD0>,<openexp._canvas.legacy.Legacy object at 0x054700D0>,75,SpatProbMultiple3.osexp,C:/Userdata/Michel/SpatProbMultiple3,no,mono,no,18,no,white,no,yes,0.09,98,1050,legacy,315,56,56,1,C:/Userdata/Michel/SpatProbMultiple3/subject-7.csv,legacy,9,192,25,Kafkaesque Koffka,3.2.5,yes,598477b2b83f69022949e7e9,47,red,rectangular,red,circular,0,/,1242,space,16629,16629,"(80, 80, 80)","(0, 123, 0)","(177, 0, 0)","(155, 155, 155)",2,legacy,experiment,"[6, 7, 0, 1, 2, 3, 4, 5]",/,2500,3000,0,8,252.7587515,1024,2,48000,-16,main,"[(0, -252), (178, -178), (252, 0), (178, 178), (0, 252), (-178, 178), (-252, 0), (-178, -178)]",[],31,odd,0,NA,216136,291579,291579,114354,113344,2255,140242,140242,2255,2255,130983,448421,2251,291579,447175,446266,446266,NA,899,study_X,0,16629,1,yes,1680
undefined,undefined,NA,NA,NA,16629,16629,black,no,legacy,legacy,legacy,0,green,"(0, 123, 0)",color,present,highProb,circular,swap,swap,same,same,red,"(177, 0, 0)",lowProb,lowProb5,circular,uniform,1,undefined,0,0.291666667,1,1,403.390625,1,56,77451,0,0,0,0,0,0,0,0,83,0,1,0.291666667,403.390625,56,77451,82,82,82,11/28/2018 15:27,Default description,yes,<openexp._canvas.legacy.Legacy object at 0x054665B0>,<openexp._canvas.legacy.Legacy object at 0x054CF750>,<openexp._canvas.legacy.Legacy object at 0x054FE730>,<openexp._canvas.legacy.Legacy object at 0x052FE930>,<openexp._canvas.legacy.Legacy object at 0x052EE190>,<openexp._canvas.legacy.Legacy object at 0x054592B0>,<openexp._canvas.legacy.Legacy object at 0x05303410>,<openexp._canvas.legacy.Legacy object at 0x054700D0>,75,SpatProbMultiple3.osexp,C:/Userdata/Michel/SpatProbMultiple3,no,mono,no,18,no,white,no,yes,0.09,98,1050,legacy,45,57,57,1,C:/Userdata/Michel/SpatProbMultiple3/subject-7.csv,legacy,9,192,25,Kafkaesque Koffka,3.2.5,yes,598477b2b83f69022949e7e9,47,green,circular,red,circular,0,\,1626,space,16629,16629,"(80, 80, 80)","(0, 123, 0)","(177, 0, 0)","(155, 155, 155)",2,legacy,experiment,"[6, 7, 0, 1, 2, 3, 4, 5]",\,2500,3000,0,8,252.7587515,1024,2,48000,-16,main,"[(0, -252), (178, -178), (252, 0), (178, 178), (0, 252), (-178, 178), (-252, 0), (-178, -178)]",[],31,odd,4,NA,216136,291579,291579,114354,113344,2255,140242,140242,2255,2255,130983,451381,2251,291579,449753,448845,448845,NA,899,study_X,0,16629,1,yes,1680
undefined,undefined,NA,NA,NA,16629,16629,black,no,legacy,legacy,legacy,0,green,"(0, 123, 0)",shape,absent,lowProb6,rectangular,same,swap,swap,swap,green,"(0, 123, 0)",lowProb,lowProb1,rectangular,uniform,1,undefined,0,0.296875,1,1,407.265625,1,57,78195,0,0,0,0,0,0,0,0,84,0,1,0.296875,407.265625,57,78195,83,83,83,11/28/2018 15:27,Default description,yes,<openexp._canvas.legacy.Legacy object at 0x054665B0>,<openexp._canvas.legacy.Legacy object at 0x054CF750>,<openexp._canvas.legacy.Legacy object at 0x054FE730>,<openexp._canvas.legacy.Legacy object at 0x052FE930>,<openexp._canvas.legacy.Legacy object at 0x052EE190>,<openexp._canvas.legacy.Legacy object at 0x054592B0>,<openexp._canvas.legacy.Legacy object at 0x054ED3D0>,<openexp._canvas.legacy.Legacy object at 0x054700D0>,75,SpatProbMultiple3.osexp,C:/Userdata/Michel/SpatProbMultiple3,no,mono,no,18,no,white,no,yes,0.09,98,1050,legacy,315,58,58,1,C:/Userdata/Michel/SpatProbMultiple3/subject-7.csv,legacy,9,192,25,Kafkaesque Koffka,3.2.5,yes,598477b2b83f69022949e7e9,47,green,rectangular,green,rectangular,0,/,744,space,16629,16629,"(80, 80, 80)","(0, 123, 0)","(177, 0, 0)","(155, 155, 155)",2,legacy,experiment,"[6, 7, 0, 1, 2, 3, 4, 5]",/,2500,3000,0,8,252.7587515,1024,2,48000,-16,main,"[(0, -252), (178, -178), (252, 0), (178, 178), (0, 252), (-178, 178), (-252, 0), (-178, -178)]",[],31,odd,7,NA,216136,291579,291579,114354,113344,2255,140242,140242,2255,2255,130983,453453,2251,291579,452706,451797,451797,NA,899,study_X,0,16629,1,yes,1680
undefined,undefined,NA,NA,NA,16629,16629,black,no,legacy,legacy,legacy,0,green,"(0, 123, 0)",shape,absent,highProbOther,rectangular,same,same,same,same,green,"(0, 123, 0)",lowProb,lowProb6,rectangular,uniform,1,undefined,0,0.302083333,1,1,414.6354167,1,58,79610,0,0,0,0,0,0,0,0,85,0,1,0.302083333,414.6354167,58,79610,84,84,84,11/28/2018 15:27,Default description,yes,<openexp._canvas.legacy.Legacy object at 0x054665B0>,<openexp._canvas.legacy.Legacy object at 0x054CF750>,<openexp._canvas.legacy.Legacy object at 0x054FE730>,<openexp._canvas.legacy.Legacy object at 0x052FE930>,<openexp._canvas.legacy.Legacy object at 0x052EE190>,<openexp._canvas.legacy.Legacy object at 0x054592B0>,<openexp._canvas.legacy.Legacy object at 0x054CF030>,<openexp._canvas.legacy.Legacy object at 0x054700D0>,75,SpatProbMultiple3.osexp,C:/Userdata/Michel/SpatProbMultiple3,no,mono,no,18,no,white,no,yes,0.09,98,1050,legacy,45,59,59,1,C:/Userdata/Michel/SpatProbMultiple3/subject-7.csv,legacy,9,192,25,Kafkaesque Koffka,3.2.5,yes,598477b2b83f69022949e7e9,47,green,rectangular,green,rectangular,0,\,1415,space,16629,16629,"(80, 80, 80)","(0, 123, 0)","(177, 0, 0)","(155, 155, 155)",2,legacy,experiment,"[6, 7, 0, 1, 2, 3, 4, 5]",\,2500,3000,0,8,252.7587515,1024,2,48000,-16,main,"[(0, -252), (178, -178), (252, 0), (178, 178), (0, 252), (-178, 178), (-252, 0), (-178, -178)]",[],31,odd,5,NA,216136,291579,291579,114354,113344,2255,140242,140242,2255,2255,130983,456197,2251,291579,454779,453871,453871,NA,899,study_X,0,16629,1,yes,1680
undefined,undefined,NA,NA,NA,16629,16629,black,no,legacy,legacy,legacy,0,red,"(177, 0, 0)",shape,present,highProb,rectangular,swap,same,swap,swap,red,"(177, 0, 0)",lowProb,lowProb3,circular,uniform,1,undefined,0,0.307291667,1,1,425.2864583,1,59,81655,0,0,0,0,0,0,0,0,86,0,1,0.307291667,425.2864583,59,81655,85,85,85,11/28/2018 15:27,Default description,yes,<openexp._canvas.legacy.Legacy object at 0x054665B0>,<openexp._canvas.legacy.Legacy object at 0x054CF750>,<openexp._canvas.legacy.Legacy object at 0x054FE730>,<openexp._canvas.legacy.Legacy object at 0x052FE930>,<openexp._canvas.legacy.Legacy object at 0x052EE190>,<openexp._canvas.legacy.Legacy object at 0x054592B0>,<openexp._canvas.legacy.Legacy object at 0x054CFD30>,<openexp._canvas.legacy.Legacy object at 0x054700D0>,75,SpatProbMultiple3.osexp,C:/Userdata/Michel/SpatProbMultiple3,no,mono,no,18,no,white,no,yes,0.09,98,1050,legacy,315,60,60,1,C:/Userdata/Michel/SpatProbMultiple3/subject-7.csv,legacy,9,192,25,Kafkaesque Koffka,3.2.5,yes,598477b2b83f69022949e7e9,47,red,rectangular,red,circular,0,/,2045,space,16629,16629,"(80, 80, 80)","(0, 123, 0)","(177, 0, 0)","(155, 155, 155)",2,legacy,experiment,"[6, 7, 0, 1, 2, 3, 4, 5]",/,2500,3000,0,8,252.7587515,1024,2,48000,-16,main,"[(0, -252), (178, -178), (252, 0), (178, 178), (0, 252), (-178, 178), (-252, 0), (-178, -178)]",[],31,odd,1,NA,216136,291579,291579,114354,113344,2255,140242,140242,2255,2255,130983,459573,2251,291579,457525,456617,456617,NA,899,study_X,0,16629,1,yes,1680
undefined,undefined,NA,NA,NA,16629,16629,black,no,legacy,legacy,legacy,0,red,"(177, 0, 0)",shape,present,highProb,circular,same,swap,same,swap,red,"(177, 0, 0)",lowProb,lowProb1,rectangular,uniform,1,undefined,0,0.3125,1,1,429.640625,1,60,82491,0,0,0,0,0,0,0,0,87,0,1,0.3125,429.640625,60,82491,86,86,86,11/28/2018 15:27,Default description,yes,<openexp._canvas.legacy.Legacy object at 0x054665B0>,<openexp._canvas.legacy.Legacy object at 0x054CF750>,<openexp._canvas.legacy.Legacy object at 0x054FE730>,<openexp._canvas.legacy.Legacy object at 0x052FE930>,<openexp._canvas.legacy.Legacy object at 0x052EE190>,<openexp._canvas.legacy.Legacy object at 0x054592B0>,<openexp._canvas.legacy.Legacy object at 0x0547E330>,<openexp._canvas.legacy.Legacy object at 0x054700D0>,75,SpatProbMultiple3.osexp,C:/Userdata/Michel/SpatProbMultiple3,no,mono,no,18,no,white,no,yes,0.09,98,1050,legacy,315,61,61,1,C:/Userdata/Michel/SpatProbMultiple3/subject-7.csv,legacy,9,192,25,Kafkaesque Koffka,3.2.5,yes,598477b2b83f69022949e7e9,47,red,circular,red,rectangular,0,/,836,space,16629,16629,"(80, 80, 80)","(0, 123, 0)","(177, 0, 0)","(155, 155, 155)",2,legacy,experiment,"[6, 7, 0, 1, 2, 3, 4, 5]",/,2500,3000,0,8,252.7587515,1024,2,48000,-16,main,"[(0, -252), (178, -178), (252, 0), (178, 178), (0, 252), (-178, 178), (-252, 0), (-178, -178)]",[],31,odd,7,NA,216136,291579,291579,114354,113344,2255,140242,140242,2255,2255,130983,461733,2251,291579,460893,459985,459985,NA,899,study_X,0,16629,1,yes,1680
undefined,undefined,NA,NA,NA,16629,16629,black,no,legacy,legacy,legacy,0,green,"(0, 123, 0)",shape,present,lowProb1,rectangular,swap,swap,swap,swap,green,"(0, 123, 0)",lowProb,lowProb6,circular,uniform,1,undefined,0,0.317708333,1,1,438.78125,1,61,84246,0,0,0,0,0,0,0,0,88,0,1,0.317708333,438.78125,61,84246,87,87,87,11/28/2018 15:27,Default description,yes,<openexp._canvas.legacy.Legacy object at 0x054665B0>,<openexp._canvas.legacy.Legacy object at 0x054CF750>,<openexp._canvas.legacy.Legacy object at 0x054FE730>,<openexp._canvas.legacy.Legacy object at 0x052FE930>,<openexp._canvas.legacy.Legacy object at 0x052EE190>,<openexp._canvas.legacy.Legacy object at 0x054592B0>,<openexp._canvas.legacy.Legacy object at 0x05303590>,<openexp._canvas.legacy.Legacy object at 0x054700D0>,75,SpatProbMultiple3.osexp,C:/Userdata/Michel/SpatProbMultiple3,no,mono,no,18,no,white,no,yes,0.09,98,1050,legacy,45,62,62,1,C:/Userdata/Michel/SpatProbMultiple3/subject-7.csv,legacy,9,192,25,Kafkaesque Koffka,3.2.5,yes,598477b2b83f69022949e7e9,47,green,rectangular,green,circular,0,\,1755,space,16629,16629,"(80, 80, 80)","(0, 123, 0)","(177, 0, 0)","(155, 155, 155)",2,legacy,experiment,"[6, 7, 0, 1, 2, 3, 4, 5]",\,2500,3000,0,8,252.7587515,1024,2,48000,-16,main,"[(0, -252), (178, -178), (252, 0), (178, 178), (0, 252), (-178, 178), (-252, 0), (-178, -178)]",[],31,odd,5,NA,216136,291579,291579,114354,113344,2255,140242,140242,2255,2255,130983,464821,2251,291579,463062,462154,462154,NA,899,study_X,0,16629,1,yes,1680
undefined,undefined,NA,NA,NA,16629,16629,black,no,legacy,legacy,legacy,0,green,"(0, 123, 0)",color,present,lowProb3,circular,same,swap,swap,same,red,"(177, 0, 0)",highProbShape,highProbShape,circular,uniform,1,undefined,0,0.322916667,1,1,450.9166667,1,62,86576,0,0,0,0,0,0,0,0,89,0,1,0.322916667,450.9166667,62,86576,88,88,88,11/28/2018 15:27,Default description,yes,<openexp._canvas.legacy.Legacy object at 0x054665B0>,<openexp._canvas.legacy.Legacy object at 0x054CF750>,<openexp._canvas.legacy.Legacy object at 0x054FE730>,<openexp._canvas.legacy.Legacy object at 0x052FE930>,<openexp._canvas.legacy.Legacy object at 0x052EE190>,<openexp._canvas.legacy.Legacy object at 0x054592B0>,<openexp._canvas.legacy.Legacy object at 0x0547EA30>,<openexp._canvas.legacy.Legacy object at 0x054700D0>,75,SpatProbMultiple3.osexp,C:/Userdata/Michel/SpatProbMultiple3,no,mono,no,18,no,white,no,yes,0.09,98,1050,legacy,315,63,63,1,C:/Userdata/Michel/SpatProbMultiple3/subject-7.csv,legacy,9,192,25,Kafkaesque Koffka,3.2.5,yes,598477b2b83f69022949e7e9,47,green,circular,red,circular,0,/,2330,space,16629,16629,"(80, 80, 80)","(0, 123, 0)","(177, 0, 0)","(155, 155, 155)",2,legacy,experiment,"[6, 7, 0, 1, 2, 3, 4, 5]",/,2500,3000,0,8,252.7587515,1024,2,48000,-16,main,"[(0, -252), (178, -178), (252, 0), (178, 178), (0, 252), (-178, 178), (-252, 0), (-178, -178)]",[],31,odd,2,NA,216136,291579,291579,114354,113344,2255,140242,140242,2255,2255,130983,468476,2251,291579,466144,465235,465235,NA,899,study_X,0,16629,1,yes,1680
undefined,undefined,NA,NA,NA,16629,16629,black,no,legacy,legacy,legacy,0,green,"(0, 123, 0)",color,present,lowProb4,circular,same,same,same,same,red,"(177, 0, 0)",highProbColor,highProbColor,circular,uniform,0,undefined,0,0.322916667,1,1,456.1458333,1,62,87580,0,0,0,0,0,0,0,0,90,0,1,0.322916667,456.1458333,62,87580,89,89,89,11/28/2018 15:27,Default description,yes,<openexp._canvas.legacy.Legacy object at 0x054665B0>,<openexp._canvas.legacy.Legacy object at 0x054CF750>,<openexp._canvas.legacy.Legacy object at 0x054FE730>,<openexp._canvas.legacy.Legacy object at 0x052FE930>,<openexp._canvas.legacy.Legacy object at 0x052EE190>,<openexp._canvas.legacy.Legacy object at 0x054592B0>,<openexp._canvas.legacy.Legacy object at 0x054CF130>,<openexp._canvas.legacy.Legacy object at 0x054700D0>,75,SpatProbMultiple3.osexp,C:/Userdata/Michel/SpatProbMultiple3,no,mono,no,18,no,white,no,yes,0.09,98,1050,legacy,45,64,64,1,C:/Userdata/Michel/SpatProbMultiple3/subject-7.csv,legacy,9,192,25,Kafkaesque Koffka,3.2.5,yes,598477b2b83f69022949e7e9,47,green,circular,red,circular,0,/,1004,space,16629,16629,"(80, 80, 80)","(0, 123, 0)","(177, 0, 0)","(155, 155, 155)",2,legacy,experiment,"[6, 7, 0, 1, 2, 3, 4, 5]",\,2500,3000,0,8,252.7587515,1024,2,48000,-16,main,"[(0, -252), (178, -178), (252, 0), (178, 178), (0, 252), (-178, 178), (-252, 0), (-178, -178)]",[],31,odd,6,NA,216136,291579,291579,114354,113344,2255,140242,140242,2255,2255,130983,470821,2251,291579,469814,468905,468905,NA,899,study_X,0,16629,1,yes,1680
