"acc","accuracy","average_response_time","avg_rt","background","bidi","canvas_backend","clock_backend","color_backend","compensation","cond_disColor","cond_disColorRGB","cond_disFeature","cond_disPresent","cond_disProbability","cond_disShape","cond_primingDisColor","cond_primingDisShape","cond_primingTarColor","cond_primingTarShape","cond_tarColor","cond_tarColorRGB","cond_tarLocation","cond_tarLocationLong","cond_tarShape","coordinates","correct","correct_continuePress","count_blockAcc","count_blockFeed","count_blockLoop","count_blockRT","count_blockSeq","count_blockSumCorrect","count_blockSumRT","count_continuePress","count_example","count_expSettings","count_exp_mainLoop","count_experiment","count_instructions","count_instructions1","count_instructions2","count_log","count_main","count_prepCanvas","count_totalAcc","count_totalRT","count_totalSumCorrect","count_totalSumRT","count_trialResp","count_trialSeq","count_trialTask","datetime","description","disable_garbage_collection","dispBlank","dispBlockStart","dispFeedBlock","dispFix","dispInstructions","dispSearch","dispStartScreen","distance2screen","experiment_file","experiment_path","font_bold","font_family","font_italic","font_size","font_underline","foreground","form_clicks","fullscreen","gaborFreq","gaborSize","height","keyboard_backend","lineOriTar","live_row","live_row_blockLoop","live_row_exp_mainLoop","logfile","mouse_backend","noExpBlocks","noExpTrials","noPracTrials","opensesame_codename","opensesame_version","osf_always_upload_experiment","osf_id","physical_screensize","previousDisColor","previousDisShape","previousTarColor","previousTarShape","repeat_cycle","response","responseTime","response_continuePress","response_time","response_time_continuePress","rgb_gray","rgb_green","rgb_red","rgb_white","round_decimals","sampler_backend","set_blockType","set_counterPositions","set_respCorrect","set_respTimeoutExp","set_respTimeoutPrac","set_rotation","set_setSize","sizeImaginary","sound_buf_size","sound_channels","sound_freq","sound_sample_size","start","stimPositions","stimuli","subject_nr","subject_parity","tarIdx","time_blockFeed","time_blockLoop","time_blockSeq","time_continuePress","time_example","time_expSettings","time_exp_mainLoop","time_experiment","time_instructions","time_instructions1","time_instructions2","time_log","time_main","time_prepCanvas","time_trialResp","time_trialSeq","time_trialTask","timing_EEGwait","timing_fix","title","total_correct","total_response_time","total_responses","uniform_coordinates","width"
"undefined","undefined","17884","17884","black","no","legacy","legacy","legacy","0","green","(0, 122, 0)","color","present","highProb","circular","same","swap","same","swap","red","(179, 0, 0)","lowProb","lowProb1","circular","uniform","1","undefined","0.00520833333333","1","1","3.72916666667","1","1","716","0","0","0","0","0","0","0","0","25","0","1","0.00520833333333","3.72916666667","1","716","25","25","25","08/25/17 14:25:42","Default description","yes","<openexp._canvas.legacy.legacy object at 0x0487F7F0>","<openexp._canvas.legacy.legacy object at 0x0488B7B0>","<openexp._canvas.legacy.legacy object at 0x04873410>","<openexp._canvas.legacy.legacy object at 0x0496B9D0>","<openexp._canvas.legacy.legacy object at 0x0493D4B0>","<openexp._canvas.legacy.legacy object at 0x0487B550>","<openexp._canvas.legacy.legacy object at 0x0493FA50>","75","IndividualPriorityWithDis_v1.osexp","C:/Userdata/Michel/SpatialProb/IndividualPriorityMaps/Experiment2","no","mono","no","18","no","white","no","yes","0.09","98","1050","legacy","315","0","0","1","C:/Userdata/Michel/SpatialProb/IndividualPriorityMaps/Experiment2/data/subject-23v2.csv","legacy","9","192","25","Jazzy James","3.1.3","yes","598477b2b83f69022949e7e9","47","green","circular","red","circular","0","/","716","space","17884","17884","(80, 80, 80)","(0, 122, 0)","(179, 0, 0)","(155, 155, 155)","2","legacy","experiment","[6, 7, 0, 1, 2, 3, 4, 5]","/","2500","3000","0","8","252.758751519","1024","2","48000","-16","main","[(0, -252), (178, -178), (252, 0), (178, 178), (0, 252), (-178, 178), (-252, 0), (-178, -178)]","[]","23","odd","7","224872","259161","259161","132088","131080","1793","158508","158508","1793","1793","149973","266060","1791","259161","265341","259556","259556","NA","708","study_X","0","17884","1","yes","1680"
"undefined","undefined","17884","17884","black","no","legacy","legacy","legacy","0","green","(0, 122, 0)","color","present","highProb","rectangular","same","swap","same","swap","red","(179, 0, 0)","lowProb","lowProb3","rectangular","uniform","1","undefined","0.0104166666667","1","1","9.39583333333","1","2","1804","0","0","0","0","0","0","0","0","26","0","1","0.0104166666667","9.39583333333","2","1804","26","26","26","08/25/17 14:25:42","Default description","yes","<openexp._canvas.legacy.legacy object at 0x0487F7F0>","<openexp._canvas.legacy.legacy object at 0x0488B7B0>","<openexp._canvas.legacy.legacy object at 0x04873410>","<openexp._canvas.legacy.legacy object at 0x0496B9D0>","<openexp._canvas.legacy.legacy object at 0x0493D4B0>","<openexp._canvas.legacy.legacy object at 0x0488BFB0>","<openexp._canvas.legacy.legacy object at 0x0493FA50>","75","IndividualPriorityWithDis_v1.osexp","C:/Userdata/Michel/SpatialProb/IndividualPriorityMaps/Experiment2","no","mono","no","18","no","white","no","yes","0.09","98","1050","legacy","315","1","1","1","C:/Userdata/Michel/SpatialProb/IndividualPriorityMaps/Experiment2/data/subject-23v2.csv","legacy","9","192","25","Jazzy James","3.1.3","yes","598477b2b83f69022949e7e9","47","green","rectangular","red","rectangular","0","/","1088","space","17884","17884","(80, 80, 80)","(0, 122, 0)","(179, 0, 0)","(155, 155, 155)","2","legacy","experiment","[6, 7, 0, 1, 2, 3, 4, 5]","/","2500","3000","0","8","252.758751519","1024","2","48000","-16","main","[(0, -252), (178, -178), (252, 0), (178, 178), (0, 252), (-178, 178), (-252, 0), (-178, -178)]","[]","23","odd","1","224872","259161","259161","132088","131080","1793","158508","158508","1793","1793","149973","268308","1791","259161","267217","266503","266503","NA","708","study_X","0","17884","1","yes","1680"
"undefined","undefined","17884","17884","black","no","legacy","legacy","legacy","0","red","(179, 0, 0)","color","present","highProb","circular","swap","swap","swap","swap","green","(0, 122, 0)","lowProb","lowProb1","circular","uniform","1","undefined","0.015625","1","1","14.171875","1","3","2721","0","0","0","0","0","0","0","0","27","0","1","0.015625","14.171875","3","2721","27","27","27","08/25/17 14:25:42","Default description","yes","<openexp._canvas.legacy.legacy object at 0x0487F7F0>","<openexp._canvas.legacy.legacy object at 0x0488B7B0>","<openexp._canvas.legacy.legacy object at 0x04873410>","<openexp._canvas.legacy.legacy object at 0x0496B9D0>","<openexp._canvas.legacy.legacy object at 0x0493D4B0>","<openexp._canvas.legacy.legacy object at 0x0487D950>","<openexp._canvas.legacy.legacy object at 0x0493FA50>","75","IndividualPriorityWithDis_v1.osexp","C:/Userdata/Michel/SpatialProb/IndividualPriorityMaps/Experiment2","no","mono","no","18","no","white","no","yes","0.09","98","1050","legacy","315","2","2","1","C:/Userdata/Michel/SpatialProb/IndividualPriorityMaps/Experiment2/data/subject-23v2.csv","legacy","9","192","25","Jazzy James","3.1.3","yes","598477b2b83f69022949e7e9","47","red","circular","green","circular","0","/","917","space","17884","17884","(80, 80, 80)","(0, 122, 0)","(179, 0, 0)","(155, 155, 155)","2","legacy","experiment","[6, 7, 0, 1, 2, 3, 4, 5]","/","2500","3000","0","8","252.758751519","1024","2","48000","-16","main","[(0, -252), (178, -178), (252, 0), (178, 178), (0, 252), (-178, 178), (-252, 0), (-178, -178)]","[]","23","odd","7","224872","259161","259161","132088","131080","1793","158508","158508","1793","1793","149973","270348","1791","259161","269429","268715","268715","NA","708","study_X","0","17884","1","yes","1680"
"undefined","undefined","17884","17884","black","no","legacy","legacy","legacy","0","green","(0, 122, 0)","color","present","lowProb5","rectangular","swap","swap","swap","swap","red","(179, 0, 0)","lowProb","lowProb4","rectangular","uniform","1","undefined","0.0208333333333","1","1","19.453125","1","4","3735","0","0","0","0","0","0","0","0","28","0","1","0.0208333333333","19.453125","4","3735","28","28","28","08/25/17 14:25:42","Default description","yes","<openexp._canvas.legacy.legacy object at 0x0487F7F0>","<openexp._canvas.legacy.legacy object at 0x0488B7B0>","<openexp._canvas.legacy.legacy object at 0x04873410>","<openexp._canvas.legacy.legacy object at 0x0496B9D0>","<openexp._canvas.legacy.legacy object at 0x0493D4B0>","<openexp._canvas.legacy.legacy object at 0x04873250>","<openexp._canvas.legacy.legacy object at 0x0493FA50>","75","IndividualPriorityWithDis_v1.osexp","C:/Userdata/Michel/SpatialProb/IndividualPriorityMaps/Experiment2","no","mono","no","18","no","white","no","yes","0.09","98","1050","legacy","45","3","3","1","C:/Userdata/Michel/SpatialProb/IndividualPriorityMaps/Experiment2/data/subject-23v2.csv","legacy","9","192","25","Jazzy James","3.1.3","yes","598477b2b83f69022949e7e9","47","green","rectangular","red","rectangular","0","\","1014","space","17884","17884","(80, 80, 80)","(0, 122, 0)","(179, 0, 0)","(155, 155, 155)","2","legacy","experiment","[6, 7, 0, 1, 2, 3, 4, 5]","\","2500","3000","0","8","252.758751519","1024","2","48000","-16","main","[(0, -252), (178, -178), (252, 0), (178, 178), (0, 252), (-178, 178), (-252, 0), (-178, -178)]","[]","23","odd","3","224872","259161","259161","132088","131080","1793","158508","158508","1793","1793","149973","272492","1791","259161","271474","270760","270760","NA","708","study_X","0","17884","1","yes","1680"
"undefined","undefined","17884","17884","black","no","legacy","legacy","legacy","0","red","(179, 0, 0)","shape","present","highProb","circular","swap","swap","same","same","red","(179, 0, 0)","lowProb","lowProb2","rectangular","uniform","1","undefined","0.0260416666667","1","1","24.3229166667","1","5","4670","0","0","0","0","0","0","0","0","29","0","1","0.0260416666667","24.3229166667","5","4670","29","29","29","08/25/17 14:25:42","Default description","yes","<openexp._canvas.legacy.legacy object at 0x0487F7F0>","<openexp._canvas.legacy.legacy object at 0x0488B7B0>","<openexp._canvas.legacy.legacy object at 0x04873410>","<openexp._canvas.legacy.legacy object at 0x0496B9D0>","<openexp._canvas.legacy.legacy object at 0x0493D4B0>","<openexp._canvas.legacy.legacy object at 0x0487DF50>","<openexp._canvas.legacy.legacy object at 0x0493FA50>","75","IndividualPriorityWithDis_v1.osexp","C:/Userdata/Michel/SpatialProb/IndividualPriorityMaps/Experiment2","no","mono","no","18","no","white","no","yes","0.09","98","1050","legacy","45","4","4","1","C:/Userdata/Michel/SpatialProb/IndividualPriorityMaps/Experiment2/data/subject-23v2.csv","legacy","9","192","25","Jazzy James","3.1.3","yes","598477b2b83f69022949e7e9","47","red","circular","red","rectangular","0","\","935","space","17884","17884","(80, 80, 80)","(0, 122, 0)","(179, 0, 0)","(155, 155, 155)","2","legacy","experiment","[6, 7, 0, 1, 2, 3, 4, 5]","\","2500","3000","0","8","252.758751519","1024","2","48000","-16","main","[(0, -252), (178, -178), (252, 0), (178, 178), (0, 252), (-178, 178), (-252, 0), (-178, -178)]","[]","23","odd","0","224872","259161","259161","132088","131080","1793","158508","158508","1793","1793","149973","274557","1791","259161","273618","272904","272904","NA","708","study_X","0","17884","1","yes","1680"
"undefined","undefined","17884","17884","black","no","legacy","legacy","legacy","0","red","(179, 0, 0)","shape","absent","lowProb6","circular","same","same","same","swap","red","(179, 0, 0)","highProbShape","highProbShape","circular","uniform","1","undefined","0.03125","1","1","27.9635416667","1","6","5369","0","0","0","0","0","0","0","0","30","0","1","0.03125","27.9635416667","6","5369","30","30","30","08/25/17 14:25:42","Default description","yes","<openexp._canvas.legacy.legacy object at 0x0487F7F0>","<openexp._canvas.legacy.legacy object at 0x0488B7B0>","<openexp._canvas.legacy.legacy object at 0x04873410>","<openexp._canvas.legacy.legacy object at 0x0496B9D0>","<openexp._canvas.legacy.legacy object at 0x0493D4B0>","<openexp._canvas.legacy.legacy object at 0x0496B2B0>","<openexp._canvas.legacy.legacy object at 0x0493FA50>","75","IndividualPriorityWithDis_v1.osexp","C:/Userdata/Michel/SpatialProb/IndividualPriorityMaps/Experiment2","no","mono","no","18","no","white","no","yes","0.09","98","1050","legacy","45","5","5","1","C:/Userdata/Michel/SpatialProb/IndividualPriorityMaps/Experiment2/data/subject-23v2.csv","legacy","9","192","25","Jazzy James","3.1.3","yes","598477b2b83f69022949e7e9","47","red","circular","red","circular","0","\","699","space","17884","17884","(80, 80, 80)","(0, 122, 0)","(179, 0, 0)","(155, 155, 155)","2","legacy","experiment","[6, 7, 0, 1, 2, 3, 4, 5]","\","2500","3000","0","8","252.758751519","1024","2","48000","-16","main","[(0, -252), (178, -178), (252, 0), (178, 178), (0, 252), (-178, 178), (-252, 0), (-178, -178)]","[]","23","odd","2","224872","259161","259161","132088","131080","1793","158508","158508","1793","1793","149973","276389","1791","259161","275686","274972","274972","NA","708","study_X","0","17884","1","yes","1680"
"undefined","undefined","17884","17884","black","no","legacy","legacy","legacy","0","red","(179, 0, 0)","color","present","lowProb1","rectangular","same","swap","swap","swap","green","(0, 122, 0)","highProbShape","highProbShape","rectangular","uniform","1","undefined","0.0364583333333","1","1","31.75","1","7","6096","0","0","0","0","0","0","0","0","31","0","1","0.0364583333333","31.75","7","6096","31","31","31","08/25/17 14:25:42","Default description","yes","<openexp._canvas.legacy.legacy object at 0x0487F7F0>","<openexp._canvas.legacy.legacy object at 0x0488B7B0>","<openexp._canvas.legacy.legacy object at 0x04873410>","<openexp._canvas.legacy.legacy object at 0x0496B9D0>","<openexp._canvas.legacy.legacy object at 0x0493D4B0>","<openexp._canvas.legacy.legacy object at 0x04873ED0>","<openexp._canvas.legacy.legacy object at 0x0493FA50>","75","IndividualPriorityWithDis_v1.osexp","C:/Userdata/Michel/SpatialProb/IndividualPriorityMaps/Experiment2","no","mono","no","18","no","white","no","yes","0.09","98","1050","legacy","315","6","6","1","C:/Userdata/Michel/SpatialProb/IndividualPriorityMaps/Experiment2/data/subject-23v2.csv","legacy","9","192","25","Jazzy James","3.1.3","yes","598477b2b83f69022949e7e9","47","red","rectangular","green","rectangular","0","/","727","space","17884","17884","(80, 80, 80)","(0, 122, 0)","(179, 0, 0)","(155, 155, 155)","2","legacy","experiment","[6, 7, 0, 1, 2, 3, 4, 5]","/","2500","3000","0","8","252.758751519","1024","2","48000","-16","main","[(0, -252), (178, -178), (252, 0), (178, 178), (0, 252), (-178, 178), (-252, 0), (-178, -178)]","[]","23","odd","2","224872","259161","259161","132088","131080","1793","158508","158508","1793","1793","149973","278244","1791","259161","277514","276801","276801","NA","708","study_X","0","17884","1","yes","1680"
"undefined","undefined","17884","17884","black","no","legacy","legacy","legacy","0","red","(179, 0, 0)","color","present","highProb","rectangular","same","same","same","same","green","(0, 122, 0)","lowProb","lowProb2","rectangular","uniform","1","undefined","0.0416666666667","1","1","37.1822916667","1","8","7139","0","0","0","0","0","0","0","0","32","0","1","0.0416666666667","37.1822916667","8","7139","32","32","32","08/25/17 14:25:42","Default description","yes","<openexp._canvas.legacy.legacy object at 0x0487F7F0>","<openexp._canvas.legacy.legacy object at 0x0488B7B0>","<openexp._canvas.legacy.legacy object at 0x04873410>","<openexp._canvas.legacy.legacy object at 0x0496B9D0>","<openexp._canvas.legacy.legacy object at 0x0493D4B0>","<openexp._canvas.legacy.legacy object at 0x0487B550>","<openexp._canvas.legacy.legacy object at 0x0493FA50>","75","IndividualPriorityWithDis_v1.osexp","C:/Userdata/Michel/SpatialProb/IndividualPriorityMaps/Experiment2","no","mono","no","18","no","white","no","yes","0.09","98","1050","legacy","45","7","7","1","C:/Userdata/Michel/SpatialProb/IndividualPriorityMaps/Experiment2/data/subject-23v2.csv","legacy","9","192","25","Jazzy James","3.1.3","yes","598477b2b83f69022949e7e9","47","red","rectangular","green","rectangular","0","\","1043","space","17884","17884","(80, 80, 80)","(0, 122, 0)","(179, 0, 0)","(155, 155, 155)","2","legacy","experiment","[6, 7, 0, 1, 2, 3, 4, 5]","\","2500","3000","0","8","252.758751519","1024","2","48000","-16","main","[(0, -252), (178, -178), (252, 0), (178, 178), (0, 252), (-178, 178), (-252, 0), (-178, -178)]","[]","23","odd","0","224872","259161","259161","132088","131080","1793","158508","158508","1793","1793","149973","280412","1791","259161","279366","278652","278652","NA","708","study_X","0","17884","1","yes","1680"
"undefined","undefined","17884","17884","black","no","legacy","legacy","legacy","0","green","(0, 122, 0)","color","absent","highProb","rectangular","swap","same","same","same","green","(0, 122, 0)","highProbColor","highProbColor","rectangular","uniform","1","undefined","0.046875","1","1","43.3177083333","1","9","8317","0","0","0","0","0","0","0","0","33","0","1","0.046875","43.3177083333","9","8317","33","33","33","08/25/17 14:25:42","Default description","yes","<openexp._canvas.legacy.legacy object at 0x0487F7F0>","<openexp._canvas.legacy.legacy object at 0x0488B7B0>","<openexp._canvas.legacy.legacy object at 0x04873410>","<openexp._canvas.legacy.legacy object at 0x0496B9D0>","<openexp._canvas.legacy.legacy object at 0x0493D4B0>","<openexp._canvas.legacy.legacy object at 0x0496BAB0>","<openexp._canvas.legacy.legacy object at 0x0493FA50>","75","IndividualPriorityWithDis_v1.osexp","C:/Userdata/Michel/SpatialProb/IndividualPriorityMaps/Experiment2","no","mono","no","18","no","white","no","yes","0.09","98","1050","legacy","45","8","8","1","C:/Userdata/Michel/SpatialProb/IndividualPriorityMaps/Experiment2/data/subject-23v2.csv","legacy","9","192","25","Jazzy James","3.1.3","yes","598477b2b83f69022949e7e9","47","green","rectangular","green","rectangular","0","\","1178","space","17884","17884","(80, 80, 80)","(0, 122, 0)","(179, 0, 0)","(155, 155, 155)","2","legacy","experiment","[6, 7, 0, 1, 2, 3, 4, 5]","\","2500","3000","0","8","252.758751519","1024","2","48000","-16","main","[(0, -252), (178, -178), (252, 0), (178, 178), (0, 252), (-178, 178), (-252, 0), (-178, -178)]","[]","23","odd","6","224872","259161","259161","132088","131080","1793","158508","158508","1793","1793","149973","282716","1791","259161","281535","280821","280821","NA","708","study_X","0","17884","1","yes","1680"
"undefined","undefined","17884","17884","black","no","legacy","legacy","legacy","0","red","(179, 0, 0)","shape","present","highProb","circular","swap","swap","swap","same","red","(179, 0, 0)","lowProb","lowProb4","rectangular","uniform","1","undefined","0.0520833333333","1","1","46.515625","1","10","8931","0","0","0","0","0","0","0","0","34","0","1","0.0520833333333","46.515625","10","8931","34","34","34","08/25/17 14:25:42","Default description","yes","<openexp._canvas.legacy.legacy object at 0x0487F7F0>","<openexp._canvas.legacy.legacy object at 0x0488B7B0>","<openexp._canvas.legacy.legacy object at 0x04873410>","<openexp._canvas.legacy.legacy object at 0x0496B9D0>","<openexp._canvas.legacy.legacy object at 0x0493D4B0>","<openexp._canvas.legacy.legacy object at 0x048846D0>","<openexp._canvas.legacy.legacy object at 0x0493FA50>","75","IndividualPriorityWithDis_v1.osexp","C:/Userdata/Michel/SpatialProb/IndividualPriorityMaps/Experiment2","no","mono","no","18","no","white","no","yes","0.09","98","1050","legacy","45","9","9","1","C:/Userdata/Michel/SpatialProb/IndividualPriorityMaps/Experiment2/data/subject-23v2.csv","legacy","9","192","25","Jazzy James","3.1.3","yes","598477b2b83f69022949e7e9","47","red","circular","red","rectangular","0","\","614","space","17884","17884","(80, 80, 80)","(0, 122, 0)","(179, 0, 0)","(155, 155, 155)","2","legacy","experiment","[6, 7, 0, 1, 2, 3, 4, 5]","\","2500","3000","0","8","252.758751519","1024","2","48000","-16","main","[(0, -252), (178, -178), (252, 0), (178, 178), (0, 252), (-178, 178), (-252, 0), (-178, -178)]","[]","23","odd","3","224872","259161","259161","132088","131080","1793","158508","158508","1793","1793","149973","284460","1791","259161","283843","283129","283129","NA","708","study_X","0","17884","1","yes","1680"
"undefined","undefined","17884","17884","black","no","legacy","legacy","legacy","0","red","(179, 0, 0)","color","absent","lowProb1","circular","same","same","same","swap","red","(179, 0, 0)","lowProb","lowProb3","circular","uniform","1","undefined","0.0572916666667","1","1","51.5520833333","1","11","9898","0","0","0","0","0","0","0","0","35","0","1","0.0572916666667","51.5520833333","11","9898","35","35","35","08/25/17 14:25:42","Default description","yes","<openexp._canvas.legacy.legacy object at 0x0487F7F0>","<openexp._canvas.legacy.legacy object at 0x0488B7B0>","<openexp._canvas.legacy.legacy object at 0x04873410>","<openexp._canvas.legacy.legacy object at 0x0496B9D0>","<openexp._canvas.legacy.legacy object at 0x0493D4B0>","<openexp._canvas.legacy.legacy object at 0x04873790>","<openexp._canvas.legacy.legacy object at 0x0493FA50>","75","IndividualPriorityWithDis_v1.osexp","C:/Userdata/Michel/SpatialProb/IndividualPriorityMaps/Experiment2","no","mono","no","18","no","white","no","yes","0.09","98","1050","legacy","315","10","10","1","C:/Userdata/Michel/SpatialProb/IndividualPriorityMaps/Experiment2/data/subject-23v2.csv","legacy","9","192","25","Jazzy James","3.1.3","yes","598477b2b83f69022949e7e9","47","red","circular","red","circular","0","/","967","space","17884","17884","(80, 80, 80)","(0, 122, 0)","(179, 0, 0)","(155, 155, 155)","2","legacy","experiment","[6, 7, 0, 1, 2, 3, 4, 5]","/","2500","3000","0","8","252.758751519","1024","2","48000","-16","main","[(0, -252), (178, -178), (252, 0), (178, 178), (0, 252), (-178, 178), (-252, 0), (-178, -178)]","[]","23","odd","1","224872","259161","259161","132088","131080","1793","158508","158508","1793","1793","149973","286548","1791","259161","285577","284863","284863","NA","708","study_X","0","17884","1","yes","1680"
"undefined","undefined","17884","17884","black","no","legacy","legacy","legacy","0","green","(0, 122, 0)","shape","present","lowProb4","rectangular","swap","swap","swap","same","green","(0, 122, 0)","lowProb","lowProb6","circular","uniform","1","undefined","0.0625","1","1","55.8802083333","1","12","10729","0","0","0","0","0","0","0","0","36","0","1","0.0625","55.8802083333","12","10729","36","36","36","08/25/17 14:25:42","Default description","yes","<openexp._canvas.legacy.legacy object at 0x0487F7F0>","<openexp._canvas.legacy.legacy object at 0x0488B7B0>","<openexp._canvas.legacy.legacy object at 0x04873410>","<openexp._canvas.legacy.legacy object at 0x0496B9D0>","<openexp._canvas.legacy.legacy object at 0x0493D4B0>","<openexp._canvas.legacy.legacy object at 0x0487BBF0>","<openexp._canvas.legacy.legacy object at 0x0493FA50>","75","IndividualPriorityWithDis_v1.osexp","C:/Userdata/Michel/SpatialProb/IndividualPriorityMaps/Experiment2","no","mono","no","18","no","white","no","yes","0.09","98","1050","legacy","315","11","11","1","C:/Userdata/Michel/SpatialProb/IndividualPriorityMaps/Experiment2/data/subject-23v2.csv","legacy","9","192","25","Jazzy James","3.1.3","yes","598477b2b83f69022949e7e9","47","green","rectangular","green","circular","0","/","831","space","17884","17884","(80, 80, 80)","(0, 122, 0)","(179, 0, 0)","(155, 155, 155)","2","legacy","experiment","[6, 7, 0, 1, 2, 3, 4, 5]","/","2500","3000","0","8","252.758751519","1024","2","48000","-16","main","[(0, -252), (178, -178), (252, 0), (178, 178), (0, 252), (-178, 178), (-252, 0), (-178, -178)]","[]","23","odd","5","224872","259161","259161","132088","131080","1793","158508","158508","1793","1793","149973","288508","1791","259161","287673","286959","286959","NA","708","study_X","0","17884","1","yes","1680"
"undefined","undefined","17884","17884","black","no","legacy","legacy","legacy","0","green","(0, 122, 0)","shape","present","highProb","rectangular","same","same","same","same","green","(0, 122, 0)","lowProb","lowProb2","circular","uniform","1","undefined","0.0677083333333","1","1","60.5104166667","1","13","11618","0","0","0","0","0","0","0","0","37","0","1","0.0677083333333","60.5104166667","13","11618","37","37","37","08/25/17 14:25:42","Default description","yes","<openexp._canvas.legacy.legacy object at 0x0487F7F0>","<openexp._canvas.legacy.legacy object at 0x0488B7B0>","<openexp._canvas.legacy.legacy object at 0x04873410>","<openexp._canvas.legacy.legacy object at 0x0496B9D0>","<openexp._canvas.legacy.legacy object at 0x0493D4B0>","<openexp._canvas.legacy.legacy object at 0x0496BE30>","<openexp._canvas.legacy.legacy object at 0x0493FA50>","75","IndividualPriorityWithDis_v1.osexp","C:/Userdata/Michel/SpatialProb/IndividualPriorityMaps/Experiment2","no","mono","no","18","no","white","no","yes","0.09","98","1050","legacy","45","12","12","1","C:/Userdata/Michel/SpatialProb/IndividualPriorityMaps/Experiment2/data/subject-23v2.csv","legacy","9","192","25","Jazzy James","3.1.3","yes","598477b2b83f69022949e7e9","47","green","rectangular","green","circular","0","\","889","space","17884","17884","(80, 80, 80)","(0, 122, 0)","(179, 0, 0)","(155, 155, 155)","2","legacy","experiment","[6, 7, 0, 1, 2, 3, 4, 5]","\","2500","3000","0","8","252.758751519","1024","2","48000","-16","main","[(0, -252), (178, -178), (252, 0), (178, 178), (0, 252), (-178, 178), (-252, 0), (-178, -178)]","[]","23","odd","0","224872","259161","259161","132088","131080","1793","158508","158508","1793","1793","149973","290533","1791","259161","289640","288926","288926","NA","708","study_X","0","17884","1","yes","1680"
"undefined","undefined","17884","17884","black","no","legacy","legacy","legacy","0","red","(179, 0, 0)","color","present","lowProb2","rectangular","swap","same","same","swap","green","(0, 122, 0)","highProbShape","highProbShape","rectangular","uniform","1","undefined","0.0729166666667","1","1","66.2395833333","1","14","12718","0","0","0","0","0","0","0","0","38","0","1","0.0729166666667","66.2395833333","14","12718","38","38","38","08/25/17 14:25:42","Default description","yes","<openexp._canvas.legacy.legacy object at 0x0487F7F0>","<openexp._canvas.legacy.legacy object at 0x0488B7B0>","<openexp._canvas.legacy.legacy object at 0x04873410>","<openexp._canvas.legacy.legacy object at 0x0496B9D0>","<openexp._canvas.legacy.legacy object at 0x0493D4B0>","<openexp._canvas.legacy.legacy object at 0x0487F2B0>","<openexp._canvas.legacy.legacy object at 0x0493FA50>","75","IndividualPriorityWithDis_v1.osexp","C:/Userdata/Michel/SpatialProb/IndividualPriorityMaps/Experiment2","no","mono","no","18","no","white","no","yes","0.09","98","1050","legacy","315","13","13","1","C:/Userdata/Michel/SpatialProb/IndividualPriorityMaps/Experiment2/data/subject-23v2.csv","legacy","9","192","25","Jazzy James","3.1.3","yes","598477b2b83f69022949e7e9","47","red","rectangular","green","rectangular","0","/","1100","space","17884","17884","(80, 80, 80)","(0, 122, 0)","(179, 0, 0)","(155, 155, 155)","2","legacy","experiment","[6, 7, 0, 1, 2, 3, 4, 5]","/","2500","3000","0","8","252.758751519","1024","2","48000","-16","main","[(0, -252), (178, -178), (252, 0), (178, 178), (0, 252), (-178, 178), (-252, 0), (-178, -178)]","[]","23","odd","2","224872","259161","259161","132088","131080","1793","158508","158508","1793","1793","149973","292756","1791","259161","291653","290939","290939","NA","708","study_X","0","17884","1","yes","1680"
"undefined","undefined","17884","17884","black","no","legacy","legacy","legacy","0","red","(179, 0, 0)","shape","present","highProb","circular","same","swap","swap","same","red","(179, 0, 0)","lowProb","lowProb5","rectangular","uniform","1","undefined","0.078125","1","1","71.7447916667","1","15","13775","0","0","0","0","0","0","0","0","39","0","1","0.078125","71.7447916667","15","13775","39","39","39","08/25/17 14:25:42","Default description","yes","<openexp._canvas.legacy.legacy object at 0x0487F7F0>","<openexp._canvas.legacy.legacy object at 0x0488B7B0>","<openexp._canvas.legacy.legacy object at 0x04873410>","<openexp._canvas.legacy.legacy object at 0x0496B9D0>","<openexp._canvas.legacy.legacy object at 0x0493D4B0>","<openexp._canvas.legacy.legacy object at 0x04884F30>","<openexp._canvas.legacy.legacy object at 0x0493FA50>","75","IndividualPriorityWithDis_v1.osexp","C:/Userdata/Michel/SpatialProb/IndividualPriorityMaps/Experiment2","no","mono","no","18","no","white","no","yes","0.09","98","1050","legacy","315","14","14","1","C:/Userdata/Michel/SpatialProb/IndividualPriorityMaps/Experiment2/data/subject-23v2.csv","legacy","9","192","25","Jazzy James","3.1.3","yes","598477b2b83f69022949e7e9","47","red","circular","red","rectangular","0","/","1057","space","17884","17884","(80, 80, 80)","(0, 122, 0)","(179, 0, 0)","(155, 155, 155)","2","legacy","experiment","[6, 7, 0, 1, 2, 3, 4, 5]","/","2500","3000","0","8","252.758751519","1024","2","48000","-16","main","[(0, -252), (178, -178), (252, 0), (178, 178), (0, 252), (-178, 178), (-252, 0), (-178, -178)]","[]","23","odd","4","224872","259161","259161","132088","131080","1793","158508","158508","1793","1793","149973","294948","1791","259161","293888","293174","293174","NA","708","study_X","0","17884","1","yes","1680"
"undefined","undefined","17884","17884","black","no","legacy","legacy","legacy","0","green","(0, 122, 0)","color","present","highProb","circular","swap","same","same","swap","red","(179, 0, 0)","lowProb","lowProb2","circular","uniform","1","undefined","0.0833333333333","1","1","75.0885416667","1","16","14417","0","0","0","0","0","0","0","0","40","0","1","0.0833333333333","75.0885416667","16","14417","40","40","40","08/25/17 14:25:42","Default description","yes","<openexp._canvas.legacy.legacy object at 0x0487F7F0>","<openexp._canvas.legacy.legacy object at 0x0488B7B0>","<openexp._canvas.legacy.legacy object at 0x04873410>","<openexp._canvas.legacy.legacy object at 0x0496B9D0>","<openexp._canvas.legacy.legacy object at 0x0493D4B0>","<openexp._canvas.legacy.legacy object at 0x0487B7D0>","<openexp._canvas.legacy.legacy object at 0x0493FA50>","75","IndividualPriorityWithDis_v1.osexp","C:/Userdata/Michel/SpatialProb/IndividualPriorityMaps/Experiment2","no","mono","no","18","no","white","no","yes","0.09","98","1050","legacy","315","15","15","1","C:/Userdata/Michel/SpatialProb/IndividualPriorityMaps/Experiment2/data/subject-23v2.csv","legacy","9","192","25","Jazzy James","3.1.3","yes","598477b2b83f69022949e7e9","47","green","circular","red","circular","0","/","642","space","17884","17884","(80, 80, 80)","(0, 122, 0)","(179, 0, 0)","(155, 155, 155)","2","legacy","experiment","[6, 7, 0, 1, 2, 3, 4, 5]","/","2500","3000","0","8","252.758751519","1024","2","48000","-16","main","[(0, -252), (178, -178), (252, 0), (178, 178), (0, 252), (-178, 178), (-252, 0), (-178, -178)]","[]","23","odd","0","224872","259161","259161","132088","131080","1793","158508","158508","1793","1793","149973","296732","1791","259161","296087","295373","295373","NA","708","study_X","0","17884","1","yes","1680"
"undefined","undefined","17884","17884","black","no","legacy","legacy","legacy","0","green","(0, 122, 0)","color","present","lowProb1","circular","same","same","same","same","red","(179, 0, 0)","highProbColor","highProbColor","circular","uniform","1","undefined","0.0885416666667","1","1","85.2552083333","1","17","16369","0","0","0","0","0","0","0","0","41","0","1","0.0885416666667","85.2552083333","17","16369","41","41","41","08/25/17 14:25:42","Default description","yes","<openexp._canvas.legacy.legacy object at 0x0487F7F0>","<openexp._canvas.legacy.legacy object at 0x0488B7B0>","<openexp._canvas.legacy.legacy object at 0x04873410>","<openexp._canvas.legacy.legacy object at 0x0496B9D0>","<openexp._canvas.legacy.legacy object at 0x0493D4B0>","<openexp._canvas.legacy.legacy object at 0x04873F90>","<openexp._canvas.legacy.legacy object at 0x0493FA50>","75","IndividualPriorityWithDis_v1.osexp","C:/Userdata/Michel/SpatialProb/IndividualPriorityMaps/Experiment2","no","mono","no","18","no","white","no","yes","0.09","98","1050","legacy","315","16","16","1","C:/Userdata/Michel/SpatialProb/IndividualPriorityMaps/Experiment2/data/subject-23v2.csv","legacy","9","192","25","Jazzy James","3.1.3","yes","598477b2b83f69022949e7e9","47","green","circular","red","circular","0","/","1952","space","17884","17884","(80, 80, 80)","(0, 122, 0)","(179, 0, 0)","(155, 155, 155)","2","legacy","experiment","[6, 7, 0, 1, 2, 3, 4, 5]","/","2500","3000","0","8","252.758751519","1024","2","48000","-16","main","[(0, -252), (178, -178), (252, 0), (178, 178), (0, 252), (-178, 178), (-252, 0), (-178, -178)]","[]","23","odd","6","224872","259161","259161","132088","131080","1793","158508","158508","1793","1793","149973","299820","1791","259161","297865","297151","297151","NA","708","study_X","0","17884","1","yes","1680"
"undefined","undefined","17884","17884","black","no","legacy","legacy","legacy","0","green","(0, 122, 0)","color","present","highProb","rectangular","same","swap","same","swap","red","(179, 0, 0)","lowProb","lowProb3","rectangular","uniform","1","undefined","0.09375","1","1","90.0729166667","1","18","17294","0","0","0","0","0","0","0","0","42","0","1","0.09375","90.0729166667","18","17294","42","42","42","08/25/17 14:25:42","Default description","yes","<openexp._canvas.legacy.legacy object at 0x0487F7F0>","<openexp._canvas.legacy.legacy object at 0x0488B7B0>","<openexp._canvas.legacy.legacy object at 0x04873410>","<openexp._canvas.legacy.legacy object at 0x0496B9D0>","<openexp._canvas.legacy.legacy object at 0x0493D4B0>","<openexp._canvas.legacy.legacy object at 0x0496B8D0>","<openexp._canvas.legacy.legacy object at 0x0493FA50>","75","IndividualPriorityWithDis_v1.osexp","C:/Userdata/Michel/SpatialProb/IndividualPriorityMaps/Experiment2","no","mono","no","18","no","white","no","yes","0.09","98","1050","legacy","315","17","17","1","C:/Userdata/Michel/SpatialProb/IndividualPriorityMaps/Experiment2/data/subject-23v2.csv","legacy","9","192","25","Jazzy James","3.1.3","yes","598477b2b83f69022949e7e9","47","green","rectangular","red","rectangular","0","/","925","space","17884","17884","(80, 80, 80)","(0, 122, 0)","(179, 0, 0)","(155, 155, 155)","2","legacy","experiment","[6, 7, 0, 1, 2, 3, 4, 5]","/","2500","3000","0","8","252.758751519","1024","2","48000","-16","main","[(0, -252), (178, -178), (252, 0), (178, 178), (0, 252), (-178, 178), (-252, 0), (-178, -178)]","[]","23","odd","1","224872","259161","259161","132088","131080","1793","158508","158508","1793","1793","149973","301860","1791","259161","300933","300219","300219","NA","708","study_X","0","17884","1","yes","1680"
"undefined","undefined","17884","17884","black","no","legacy","legacy","legacy","0","red","(179, 0, 0)","color","present","lowProb6","rectangular","swap","same","swap","same","green","(0, 122, 0)","lowProb","lowProb2","rectangular","uniform","1","undefined","0.0989583333333","1","1","92.9479166667","1","19","17846","0","0","0","0","0","0","0","0","43","0","1","0.0989583333333","92.9479166667","19","17846","43","43","43","08/25/17 14:25:42","Default description","yes","<openexp._canvas.legacy.legacy object at 0x0487F7F0>","<openexp._canvas.legacy.legacy object at 0x0488B7B0>","<openexp._canvas.legacy.legacy object at 0x04873410>","<openexp._canvas.legacy.legacy object at 0x0496B9D0>","<openexp._canvas.legacy.legacy object at 0x0493D4B0>","<openexp._canvas.legacy.legacy object at 0x0487DF50>","<openexp._canvas.legacy.legacy object at 0x0493FA50>","75","IndividualPriorityWithDis_v1.osexp","C:/Userdata/Michel/SpatialProb/IndividualPriorityMaps/Experiment2","no","mono","no","18","no","white","no","yes","0.09","98","1050","legacy","45","18","18","1","C:/Userdata/Michel/SpatialProb/IndividualPriorityMaps/Experiment2/data/subject-23v2.csv","legacy","9","192","25","Jazzy James","3.1.3","yes","598477b2b83f69022949e7e9","47","red","rectangular","green","rectangular","0","\","552","space","17884","17884","(80, 80, 80)","(0, 122, 0)","(179, 0, 0)","(155, 155, 155)","2","legacy","experiment","[6, 7, 0, 1, 2, 3, 4, 5]","\","2500","3000","0","8","252.758751519","1024","2","48000","-16","main","[(0, -252), (178, -178), (252, 0), (178, 178), (0, 252), (-178, 178), (-252, 0), (-178, -178)]","[]","23","odd","0","224872","259161","259161","132088","131080","1793","158508","158508","1793","1793","149973","303540","1791","259161","302984","302271","302271","NA","708","study_X","0","17884","1","yes","1680"
"undefined","undefined","17884","17884","black","no","legacy","legacy","legacy","0","green","(0, 122, 0)","color","absent","lowProb2","rectangular","swap","same","same","same","green","(0, 122, 0)","lowProb","lowProb1","rectangular","uniform","1","undefined","0.104166666667","1","1","98.3333333333","1","20","18880","0","0","0","0","0","0","0","0","44","0","1","0.104166666667","98.3333333333","20","18880","44","44","44","08/25/17 14:25:42","Default description","yes","<openexp._canvas.legacy.legacy object at 0x0487F7F0>","<openexp._canvas.legacy.legacy object at 0x0488B7B0>","<openexp._canvas.legacy.legacy object at 0x04873410>","<openexp._canvas.legacy.legacy object at 0x0496B9D0>","<openexp._canvas.legacy.legacy object at 0x0493D4B0>","<openexp._canvas.legacy.legacy object at 0x0487D230>","<openexp._canvas.legacy.legacy object at 0x0493FA50>","75","IndividualPriorityWithDis_v1.osexp","C:/Userdata/Michel/SpatialProb/IndividualPriorityMaps/Experiment2","no","mono","no","18","no","white","no","yes","0.09","98","1050","legacy","315","19","19","1","C:/Userdata/Michel/SpatialProb/IndividualPriorityMaps/Experiment2/data/subject-23v2.csv","legacy","9","192","25","Jazzy James","3.1.3","yes","598477b2b83f69022949e7e9","47","green","rectangular","green","rectangular","0","/","1034","space","17884","17884","(80, 80, 80)","(0, 122, 0)","(179, 0, 0)","(155, 155, 155)","2","legacy","experiment","[6, 7, 0, 1, 2, 3, 4, 5]","/","2500","3000","0","8","252.758751519","1024","2","48000","-16","main","[(0, -252), (178, -178), (252, 0), (178, 178), (0, 252), (-178, 178), (-252, 0), (-178, -178)]","[]","23","odd","7","224872","259161","259161","132088","131080","1793","158508","158508","1793","1793","149973","305700","1791","259161","304662","303948","303948","NA","708","study_X","0","17884","1","yes","1680"
"undefined","undefined","17884","17884","black","no","legacy","legacy","legacy","0","green","(0, 122, 0)","color","absent","lowProb3","rectangular","same","same","same","same","green","(0, 122, 0)","lowProb","lowProb5","rectangular","uniform","1","undefined","0.109375","1","1","102.598958333","1","21","19699","0","0","0","0","0","0","0","0","45","0","1","0.109375","102.598958333","21","19699","45","45","45","08/25/17 14:25:42","Default description","yes","<openexp._canvas.legacy.legacy object at 0x0487F7F0>","<openexp._canvas.legacy.legacy object at 0x0488B7B0>","<openexp._canvas.legacy.legacy object at 0x04873410>","<openexp._canvas.legacy.legacy object at 0x0496B9D0>","<openexp._canvas.legacy.legacy object at 0x0493D4B0>","<openexp._canvas.legacy.legacy object at 0x0487BBF0>","<openexp._canvas.legacy.legacy object at 0x0493FA50>","75","IndividualPriorityWithDis_v1.osexp","C:/Userdata/Michel/SpatialProb/IndividualPriorityMaps/Experiment2","no","mono","no","18","no","white","no","yes","0.09","98","1050","legacy","315","20","20","1","C:/Userdata/Michel/SpatialProb/IndividualPriorityMaps/Experiment2/data/subject-23v2.csv","legacy","9","192","25","Jazzy James","3.1.3","yes","598477b2b83f69022949e7e9","47","green","rectangular","green","rectangular","0","/","819","space","17884","17884","(80, 80, 80)","(0, 122, 0)","(179, 0, 0)","(155, 155, 155)","2","legacy","experiment","[6, 7, 0, 1, 2, 3, 4, 5]","/","2500","3000","0","8","252.758751519","1024","2","48000","-16","main","[(0, -252), (178, -178), (252, 0), (178, 178), (0, 252), (-178, 178), (-252, 0), (-178, -178)]","[]","23","odd","4","224872","259161","259161","132088","131080","1793","158508","158508","1793","1793","149973","307635","1791","259161","306813","306099","306099","NA","708","study_X","0","17884","1","yes","1680"
"undefined","undefined","17884","17884","black","no","legacy","legacy","legacy","0","green","(0, 122, 0)","shape","absent","lowProb4","rectangular","same","same","same","same","green","(0, 122, 0)","lowProb","lowProb3","rectangular","uniform","1","undefined","0.114583333333","1","1","110.953125","1","22","21303","0","0","0","0","0","0","0","0","46","0","1","0.114583333333","110.953125","22","21303","46","46","46","08/25/17 14:25:42","Default description","yes","<openexp._canvas.legacy.legacy object at 0x0487F7F0>","<openexp._canvas.legacy.legacy object at 0x0488B7B0>","<openexp._canvas.legacy.legacy object at 0x04873410>","<openexp._canvas.legacy.legacy object at 0x0496B9D0>","<openexp._canvas.legacy.legacy object at 0x0493D4B0>","<openexp._canvas.legacy.legacy object at 0x04882B90>","<openexp._canvas.legacy.legacy object at 0x0493FA50>","75","IndividualPriorityWithDis_v1.osexp","C:/Userdata/Michel/SpatialProb/IndividualPriorityMaps/Experiment2","no","mono","no","18","no","white","no","yes","0.09","98","1050","legacy","315","21","21","1","C:/Userdata/Michel/SpatialProb/IndividualPriorityMaps/Experiment2/data/subject-23v2.csv","legacy","9","192","25","Jazzy James","3.1.3","yes","598477b2b83f69022949e7e9","47","green","rectangular","green","rectangular","0","/","1604","space","17884","17884","(80, 80, 80)","(0, 122, 0)","(179, 0, 0)","(155, 155, 155)","2","legacy","experiment","[6, 7, 0, 1, 2, 3, 4, 5]","/","2500","3000","0","8","252.758751519","1024","2","48000","-16","main","[(0, -252), (178, -178), (252, 0), (178, 178), (0, 252), (-178, 178), (-252, 0), (-178, -178)]","[]","23","odd","1","224872","259161","259161","132088","131080","1793","158508","158508","1793","1793","149973","310364","1791","259161","308757","308043","308043","NA","708","study_X","0","17884","1","yes","1680"
"undefined","undefined","17884","17884","black","no","legacy","legacy","legacy","0","green","(0, 122, 0)","color","present","highProb","circular","same","swap","swap","swap","red","(179, 0, 0)","lowProb","lowProb5","circular","uniform","1","undefined","0.119791666667","1","1","115.098958333","1","23","22099","0","0","0","0","0","0","0","0","47","0","1","0.119791666667","115.098958333","23","22099","47","47","47","08/25/17 14:25:42","Default description","yes","<openexp._canvas.legacy.legacy object at 0x0487F7F0>","<openexp._canvas.legacy.legacy object at 0x0488B7B0>","<openexp._canvas.legacy.legacy object at 0x04873410>","<openexp._canvas.legacy.legacy object at 0x0496B9D0>","<openexp._canvas.legacy.legacy object at 0x0493D4B0>","<openexp._canvas.legacy.legacy object at 0x0487D230>","<openexp._canvas.legacy.legacy object at 0x0493FA50>","75","IndividualPriorityWithDis_v1.osexp","C:/Userdata/Michel/SpatialProb/IndividualPriorityMaps/Experiment2","no","mono","no","18","no","white","no","yes","0.09","98","1050","legacy","45","22","22","1","C:/Userdata/Michel/SpatialProb/IndividualPriorityMaps/Experiment2/data/subject-23v2.csv","legacy","9","192","25","Jazzy James","3.1.3","yes","598477b2b83f69022949e7e9","47","green","circular","red","circular","0","\","796","space","17884","17884","(80, 80, 80)","(0, 122, 0)","(179, 0, 0)","(155, 155, 155)","2","legacy","experiment","[6, 7, 0, 1, 2, 3, 4, 5]","\","2500","3000","0","8","252.758751519","1024","2","48000","-16","main","[(0, -252), (178, -178), (252, 0), (178, 178), (0, 252), (-178, 178), (-252, 0), (-178, -178)]","[]","23","odd","4","224872","259161","259161","132088","131080","1793","158508","158508","1793","1793","149973","312300","1791","259161","311501","310788","310788","NA","708","study_X","0","17884","1","yes","1680"
"undefined","undefined","17884","17884","black","no","legacy","legacy","legacy","0","green","(0, 122, 0)","color","present","highProb","rectangular","same","swap","same","swap","red","(179, 0, 0)","lowProb","lowProb4","rectangular","uniform","1","undefined","0.125","1","1","119.09375","1","24","22866","0","0","0","0","0","0","0","0","48","0","1","0.125","119.09375","24","22866","48","48","48","08/25/17 14:25:42","Default description","yes","<openexp._canvas.legacy.legacy object at 0x0487F7F0>","<openexp._canvas.legacy.legacy object at 0x0488B7B0>","<openexp._canvas.legacy.legacy object at 0x04873410>","<openexp._canvas.legacy.legacy object at 0x0496B9D0>","<openexp._canvas.legacy.legacy object at 0x0493D4B0>","<openexp._canvas.legacy.legacy object at 0x04884070>","<openexp._canvas.legacy.legacy object at 0x0493FA50>","75","IndividualPriorityWithDis_v1.osexp","C:/Userdata/Michel/SpatialProb/IndividualPriorityMaps/Experiment2","no","mono","no","18","no","white","no","yes","0.09","98","1050","legacy","315","23","23","1","C:/Userdata/Michel/SpatialProb/IndividualPriorityMaps/Experiment2/data/subject-23v2.csv","legacy","9","192","25","Jazzy James","3.1.3","yes","598477b2b83f69022949e7e9","47","green","rectangular","red","rectangular","0","/","767","space","17884","17884","(80, 80, 80)","(0, 122, 0)","(179, 0, 0)","(155, 155, 155)","2","legacy","experiment","[6, 7, 0, 1, 2, 3, 4, 5]","/","2500","3000","0","8","252.758751519","1024","2","48000","-16","main","[(0, -252), (178, -178), (252, 0), (178, 178), (0, 252), (-178, 178), (-252, 0), (-178, -178)]","[]","23","odd","3","224872","259161","259161","132088","131080","1793","158508","158508","1793","1793","149973","314188","1791","259161","313418","312704","312704","NA","708","study_X","0","17884","1","yes","1680"
"undefined","undefined","17884","17884","black","no","legacy","legacy","legacy","0","red","(179, 0, 0)","color","present","highProb","rectangular","swap","same","swap","same","green","(0, 122, 0)","lowProb","lowProb4","rectangular","uniform","1","undefined","0.130208333333","1","1","124.213541667","1","25","23849","0","0","0","0","0","0","0","0","49","0","1","0.130208333333","124.213541667","25","23849","49","49","49","08/25/17 14:25:42","Default description","yes","<openexp._canvas.legacy.legacy object at 0x0487F7F0>","<openexp._canvas.legacy.legacy object at 0x0488B7B0>","<openexp._canvas.legacy.legacy object at 0x04873410>","<openexp._canvas.legacy.legacy object at 0x0496B9D0>","<openexp._canvas.legacy.legacy object at 0x0493D4B0>","<openexp._canvas.legacy.legacy object at 0x0496BEB0>","<openexp._canvas.legacy.legacy object at 0x0493FA50>","75","IndividualPriorityWithDis_v1.osexp","C:/Userdata/Michel/SpatialProb/IndividualPriorityMaps/Experiment2","no","mono","no","18","no","white","no","yes","0.09","98","1050","legacy","45","24","24","1","C:/Userdata/Michel/SpatialProb/IndividualPriorityMaps/Experiment2/data/subject-23v2.csv","legacy","9","192","25","Jazzy James","3.1.3","yes","598477b2b83f69022949e7e9","47","red","rectangular","green","rectangular","0","\","983","space","17884","17884","(80, 80, 80)","(0, 122, 0)","(179, 0, 0)","(155, 155, 155)","2","legacy","experiment","[6, 7, 0, 1, 2, 3, 4, 5]","\","2500","3000","0","8","252.758751519","1024","2","48000","-16","main","[(0, -252), (178, -178), (252, 0), (178, 178), (0, 252), (-178, 178), (-252, 0), (-178, -178)]","[]","23","odd","3","224872","259161","259161","132088","131080","1793","158508","158508","1793","1793","149973","316300","1791","259161","315314","314600","314601","NA","708","study_X","0","17884","1","yes","1680"
"undefined","undefined","17884","17884","black","no","legacy","legacy","legacy","0","green","(0, 122, 0)","shape","present","highProb","circular","swap","swap","same","same","green","(0, 122, 0)","lowProb","lowProb3","rectangular","uniform","1","undefined","0.135416666667","1","1","127.671875","1","26","24513","0","0","0","0","0","0","0","0","50","0","1","0.135416666667","127.671875","26","24513","50","50","50","08/25/17 14:25:42","Default description","yes","<openexp._canvas.legacy.legacy object at 0x0487F7F0>","<openexp._canvas.legacy.legacy object at 0x0488B7B0>","<openexp._canvas.legacy.legacy object at 0x04873410>","<openexp._canvas.legacy.legacy object at 0x0496B9D0>","<openexp._canvas.legacy.legacy object at 0x0493D4B0>","<openexp._canvas.legacy.legacy object at 0x0487D530>","<openexp._canvas.legacy.legacy object at 0x0493FA50>","75","IndividualPriorityWithDis_v1.osexp","C:/Userdata/Michel/SpatialProb/IndividualPriorityMaps/Experiment2","no","mono","no","18","no","white","no","yes","0.09","98","1050","legacy","315","25","25","1","C:/Userdata/Michel/SpatialProb/IndividualPriorityMaps/Experiment2/data/subject-23v2.csv","legacy","9","192","25","Jazzy James","3.1.3","yes","598477b2b83f69022949e7e9","47","green","circular","green","rectangular","0","/","664","space","17884","17884","(80, 80, 80)","(0, 122, 0)","(179, 0, 0)","(155, 155, 155)","2","legacy","experiment","[6, 7, 0, 1, 2, 3, 4, 5]","/","2500","3000","0","8","252.758751519","1024","2","48000","-16","main","[(0, -252), (178, -178), (252, 0), (178, 178), (0, 252), (-178, 178), (-252, 0), (-178, -178)]","[]","23","odd","1","224872","259161","259161","132088","131080","1793","158508","158508","1793","1793","149973","318092","1791","259161","317424","316710","316710","NA","708","study_X","0","17884","1","yes","1680"
"undefined","undefined","17884","17884","black","no","legacy","legacy","legacy","0","red","(179, 0, 0)","color","present","highProb","rectangular","swap","swap","same","same","green","(0, 122, 0)","lowProb","lowProb4","rectangular","uniform","1","undefined","0.140625","1","1","131.630208333","1","27","25273","0","0","0","0","0","0","0","0","51","0","1","0.140625","131.630208333","27","25273","51","51","51","08/25/17 14:25:42","Default description","yes","<openexp._canvas.legacy.legacy object at 0x0487F7F0>","<openexp._canvas.legacy.legacy object at 0x0488B7B0>","<openexp._canvas.legacy.legacy object at 0x04873410>","<openexp._canvas.legacy.legacy object at 0x0496B9D0>","<openexp._canvas.legacy.legacy object at 0x0493D4B0>","<openexp._canvas.legacy.legacy object at 0x0487B4D0>","<openexp._canvas.legacy.legacy object at 0x0493FA50>","75","IndividualPriorityWithDis_v1.osexp","C:/Userdata/Michel/SpatialProb/IndividualPriorityMaps/Experiment2","no","mono","no","18","no","white","no","yes","0.09","98","1050","legacy","45","26","26","1","C:/Userdata/Michel/SpatialProb/IndividualPriorityMaps/Experiment2/data/subject-23v2.csv","legacy","9","192","25","Jazzy James","3.1.3","yes","598477b2b83f69022949e7e9","47","red","rectangular","green","rectangular","0","\","760","space","17884","17884","(80, 80, 80)","(0, 122, 0)","(179, 0, 0)","(155, 155, 155)","2","legacy","experiment","[6, 7, 0, 1, 2, 3, 4, 5]","\","2500","3000","0","8","252.758751519","1024","2","48000","-16","main","[(0, -252), (178, -178), (252, 0), (178, 178), (0, 252), (-178, 178), (-252, 0), (-178, -178)]","[]","23","odd","3","224872","259161","259161","132088","131080","1793","158508","158508","1793","1793","149973","319996","1791","259161","319232","318518","318518","NA","708","study_X","0","17884","1","yes","1680"
"undefined","undefined","17884","17884","black","no","legacy","legacy","legacy","0","red","(179, 0, 0)","shape","present","lowProb1","circular","same","swap","swap","same","red","(179, 0, 0)","lowProb","lowProb3","rectangular","uniform","1","undefined","0.145833333333","1","1","135.619791667","1","28","26039","0","0","0","0","0","0","0","0","52","0","1","0.145833333333","135.619791667","28","26039","52","52","52","08/25/17 14:25:42","Default description","yes","<openexp._canvas.legacy.legacy object at 0x0487F7F0>","<openexp._canvas.legacy.legacy object at 0x0488B7B0>","<openexp._canvas.legacy.legacy object at 0x04873410>","<openexp._canvas.legacy.legacy object at 0x0496B9D0>","<openexp._canvas.legacy.legacy object at 0x0493D4B0>","<openexp._canvas.legacy.legacy object at 0x0488E4D0>","<openexp._canvas.legacy.legacy object at 0x0493FA50>","75","IndividualPriorityWithDis_v1.osexp","C:/Userdata/Michel/SpatialProb/IndividualPriorityMaps/Experiment2","no","mono","no","18","no","white","no","yes","0.09","98","1050","legacy","45","27","27","1","C:/Userdata/Michel/SpatialProb/IndividualPriorityMaps/Experiment2/data/subject-23v2.csv","legacy","9","192","25","Jazzy James","3.1.3","yes","598477b2b83f69022949e7e9","47","red","circular","red","rectangular","0","\","766","space","17884","17884","(80, 80, 80)","(0, 122, 0)","(179, 0, 0)","(155, 155, 155)","2","legacy","experiment","[6, 7, 0, 1, 2, 3, 4, 5]","\","2500","3000","0","8","252.758751519","1024","2","48000","-16","main","[(0, -252), (178, -178), (252, 0), (178, 178), (0, 252), (-178, 178), (-252, 0), (-178, -178)]","[]","23","odd","1","224872","259161","259161","132088","131080","1793","158508","158508","1793","1793","149973","321908","1791","259161","321138","320424","320424","NA","708","study_X","0","17884","1","yes","1680"
"undefined","undefined","17884","17884","black","no","legacy","legacy","legacy","0","green","(0, 122, 0)","color","present","highProb","rectangular","swap","swap","same","same","red","(179, 0, 0)","lowProb","lowProb2","rectangular","uniform","1","undefined","0.151041666667","1","1","140.729166667","1","29","27020","0","0","0","0","0","0","0","0","53","0","1","0.151041666667","140.729166667","29","27020","53","53","53","08/25/17 14:25:42","Default description","yes","<openexp._canvas.legacy.legacy object at 0x0487F7F0>","<openexp._canvas.legacy.legacy object at 0x0488B7B0>","<openexp._canvas.legacy.legacy object at 0x04873410>","<openexp._canvas.legacy.legacy object at 0x0496B9D0>","<openexp._canvas.legacy.legacy object at 0x0493D4B0>","<openexp._canvas.legacy.legacy object at 0x0488B930>","<openexp._canvas.legacy.legacy object at 0x0493FA50>","75","IndividualPriorityWithDis_v1.osexp","C:/Userdata/Michel/SpatialProb/IndividualPriorityMaps/Experiment2","no","mono","no","18","no","white","no","yes","0.09","98","1050","legacy","315","28","28","1","C:/Userdata/Michel/SpatialProb/IndividualPriorityMaps/Experiment2/data/subject-23v2.csv","legacy","9","192","25","Jazzy James","3.1.3","yes","598477b2b83f69022949e7e9","47","green","rectangular","red","rectangular","0","/","981","space","17884","17884","(80, 80, 80)","(0, 122, 0)","(179, 0, 0)","(155, 155, 155)","2","legacy","experiment","[6, 7, 0, 1, 2, 3, 4, 5]","/","2500","3000","0","8","252.758751519","1024","2","48000","-16","main","[(0, -252), (178, -178), (252, 0), (178, 178), (0, 252), (-178, 178), (-252, 0), (-178, -178)]","[]","23","odd","0","224872","259161","259161","132088","131080","1793","158508","158508","1793","1793","149973","324027","1791","259161","323043","322329","322329","NA","708","study_X","0","17884","1","yes","1680"
"undefined","undefined","17884","17884","black","no","legacy","legacy","legacy","0","red","(179, 0, 0)","color","present","lowProb1","rectangular","swap","same","swap","same","green","(0, 122, 0)","lowProb","lowProb6","rectangular","uniform","1","undefined","0.15625","1","1","144.84375","1","30","27810","0","0","0","0","0","0","0","0","54","0","1","0.15625","144.84375","30","27810","54","54","54","08/25/17 14:25:42","Default description","yes","<openexp._canvas.legacy.legacy object at 0x0487F7F0>","<openexp._canvas.legacy.legacy object at 0x0488B7B0>","<openexp._canvas.legacy.legacy object at 0x04873410>","<openexp._canvas.legacy.legacy object at 0x0496B9D0>","<openexp._canvas.legacy.legacy object at 0x0493D4B0>","<openexp._canvas.legacy.legacy object at 0x0487D670>","<openexp._canvas.legacy.legacy object at 0x0493FA50>","75","IndividualPriorityWithDis_v1.osexp","C:/Userdata/Michel/SpatialProb/IndividualPriorityMaps/Experiment2","no","mono","no","18","no","white","no","yes","0.09","98","1050","legacy","315","29","29","1","C:/Userdata/Michel/SpatialProb/IndividualPriorityMaps/Experiment2/data/subject-23v2.csv","legacy","9","192","25","Jazzy James","3.1.3","yes","598477b2b83f69022949e7e9","47","red","rectangular","green","rectangular","0","/","790","space","17884","17884","(80, 80, 80)","(0, 122, 0)","(179, 0, 0)","(155, 155, 155)","2","legacy","experiment","[6, 7, 0, 1, 2, 3, 4, 5]","/","2500","3000","0","8","252.758751519","1024","2","48000","-16","main","[(0, -252), (178, -178), (252, 0), (178, 178), (0, 252), (-178, 178), (-252, 0), (-178, -178)]","[]","23","odd","5","224872","259161","259161","132088","131080","1793","158508","158508","1793","1793","149973","325964","1791","259161","325172","324458","324459","NA","708","study_X","0","17884","1","yes","1680"
"undefined","undefined","17884","17884","black","no","legacy","legacy","legacy","0","red","(179, 0, 0)","color","present","highProb","circular","same","swap","same","swap","green","(0, 122, 0)","lowProb","lowProb1","circular","uniform","1","undefined","0.161458333333","1","1","150.447916667","1","31","28886","0","0","0","0","0","0","0","0","55","0","1","0.161458333333","150.447916667","31","28886","55","55","55","08/25/17 14:25:42","Default description","yes","<openexp._canvas.legacy.legacy object at 0x0487F7F0>","<openexp._canvas.legacy.legacy object at 0x0488B7B0>","<openexp._canvas.legacy.legacy object at 0x04873410>","<openexp._canvas.legacy.legacy object at 0x0496B9D0>","<openexp._canvas.legacy.legacy object at 0x0493D4B0>","<openexp._canvas.legacy.legacy object at 0x0487BD70>","<openexp._canvas.legacy.legacy object at 0x0493FA50>","75","IndividualPriorityWithDis_v1.osexp","C:/Userdata/Michel/SpatialProb/IndividualPriorityMaps/Experiment2","no","mono","no","18","no","white","no","yes","0.09","98","1050","legacy","45","30","30","1","C:/Userdata/Michel/SpatialProb/IndividualPriorityMaps/Experiment2/data/subject-23v2.csv","legacy","9","192","25","Jazzy James","3.1.3","yes","598477b2b83f69022949e7e9","47","red","circular","green","circular","0","\","1076","space","17884","17884","(80, 80, 80)","(0, 122, 0)","(179, 0, 0)","(155, 155, 155)","2","legacy","experiment","[6, 7, 0, 1, 2, 3, 4, 5]","\","2500","3000","0","8","252.758751519","1024","2","48000","-16","main","[(0, -252), (178, -178), (252, 0), (178, 178), (0, 252), (-178, 178), (-252, 0), (-178, -178)]","[]","23","odd","7","224872","259161","259161","132088","131080","1793","158508","158508","1793","1793","149973","328180","1791","259161","327101","326387","326387","NA","708","study_X","0","17884","1","yes","1680"
"undefined","undefined","17884","17884","black","no","legacy","legacy","legacy","0","green","(0, 122, 0)","shape","present","lowProb4","circular","swap","same","same","swap","green","(0, 122, 0)","highProbShape","highProbShape","rectangular","uniform","1","undefined","0.166666666667","1","1","154.895833333","1","32","29740","0","0","0","0","0","0","0","0","56","0","1","0.166666666667","154.895833333","32","29740","56","56","56","08/25/17 14:25:42","Default description","yes","<openexp._canvas.legacy.legacy object at 0x0487F7F0>","<openexp._canvas.legacy.legacy object at 0x0488B7B0>","<openexp._canvas.legacy.legacy object at 0x04873410>","<openexp._canvas.legacy.legacy object at 0x0496B9D0>","<openexp._canvas.legacy.legacy object at 0x0493D4B0>","<openexp._canvas.legacy.legacy object at 0x0488EF90>","<openexp._canvas.legacy.legacy object at 0x0493FA50>","75","IndividualPriorityWithDis_v1.osexp","C:/Userdata/Michel/SpatialProb/IndividualPriorityMaps/Experiment2","no","mono","no","18","no","white","no","yes","0.09","98","1050","legacy","45","31","31","1","C:/Userdata/Michel/SpatialProb/IndividualPriorityMaps/Experiment2/data/subject-23v2.csv","legacy","9","192","25","Jazzy James","3.1.3","yes","598477b2b83f69022949e7e9","47","green","circular","green","rectangular","0","\","854","space","17884","17884","(80, 80, 80)","(0, 122, 0)","(179, 0, 0)","(155, 155, 155)","2","legacy","experiment","[6, 7, 0, 1, 2, 3, 4, 5]","\","2500","3000","0","8","252.758751519","1024","2","48000","-16","main","[(0, -252), (178, -178), (252, 0), (178, 178), (0, 252), (-178, 178), (-252, 0), (-178, -178)]","[]","23","odd","2","224872","259161","259161","132088","131080","1793","158508","158508","1793","1793","149973","330172","1791","259161","329315","328601","328601","NA","708","study_X","0","17884","1","yes","1680"
"undefined","undefined","17884","17884","black","no","legacy","legacy","legacy","0","red","(179, 0, 0)","shape","present","lowProb4","rectangular","swap","swap","swap","swap","red","(179, 0, 0)","highProbColor","highProbColor","circular","uniform","1","undefined","0.171875","1","1","160.067708333","1","33","30733","0","0","0","0","0","0","0","0","57","0","1","0.171875","160.067708333","33","30733","57","57","57","08/25/17 14:25:42","Default description","yes","<openexp._canvas.legacy.legacy object at 0x0487F7F0>","<openexp._canvas.legacy.legacy object at 0x0488B7B0>","<openexp._canvas.legacy.legacy object at 0x04873410>","<openexp._canvas.legacy.legacy object at 0x0496B9D0>","<openexp._canvas.legacy.legacy object at 0x0493D4B0>","<openexp._canvas.legacy.legacy object at 0x04873D90>","<openexp._canvas.legacy.legacy object at 0x0493FA50>","75","IndividualPriorityWithDis_v1.osexp","C:/Userdata/Michel/SpatialProb/IndividualPriorityMaps/Experiment2","no","mono","no","18","no","white","no","yes","0.09","98","1050","legacy","315","32","32","1","C:/Userdata/Michel/SpatialProb/IndividualPriorityMaps/Experiment2/data/subject-23v2.csv","legacy","9","192","25","Jazzy James","3.1.3","yes","598477b2b83f69022949e7e9","47","red","rectangular","red","circular","0","/","993","space","17884","17884","(80, 80, 80)","(0, 122, 0)","(179, 0, 0)","(155, 155, 155)","2","legacy","experiment","[6, 7, 0, 1, 2, 3, 4, 5]","/","2500","3000","0","8","252.758751519","1024","2","48000","-16","main","[(0, -252), (178, -178), (252, 0), (178, 178), (0, 252), (-178, 178), (-252, 0), (-178, -178)]","[]","23","odd","6","224872","259161","259161","132088","131080","1793","158508","158508","1793","1793","149973","332300","1791","259161","331304","330590","330590","NA","708","study_X","0","17884","1","yes","1680"
"undefined","undefined","17884","17884","black","no","legacy","legacy","legacy","0","green","(0, 122, 0)","shape","present","highProb","circular","swap","swap","swap","swap","green","(0, 122, 0)","lowProb","lowProb5","rectangular","uniform","1","undefined","0.177083333333","1","1","166.671875","1","34","32001","0","0","0","0","0","0","0","0","58","0","1","0.177083333333","166.671875","34","32001","58","58","58","08/25/17 14:25:42","Default description","yes","<openexp._canvas.legacy.legacy object at 0x0487F7F0>","<openexp._canvas.legacy.legacy object at 0x0488B7B0>","<openexp._canvas.legacy.legacy object at 0x04873410>","<openexp._canvas.legacy.legacy object at 0x0496B9D0>","<openexp._canvas.legacy.legacy object at 0x0493D4B0>","<openexp._canvas.legacy.legacy object at 0x04895DB0>","<openexp._canvas.legacy.legacy object at 0x0493FA50>","75","IndividualPriorityWithDis_v1.osexp","C:/Userdata/Michel/SpatialProb/IndividualPriorityMaps/Experiment2","no","mono","no","18","no","white","no","yes","0.09","98","1050","legacy","45","33","33","1","C:/Userdata/Michel/SpatialProb/IndividualPriorityMaps/Experiment2/data/subject-23v2.csv","legacy","9","192","25","Jazzy James","3.1.3","yes","598477b2b83f69022949e7e9","47","green","circular","green","rectangular","0","\","1268","space","17884","17884","(80, 80, 80)","(0, 122, 0)","(179, 0, 0)","(155, 155, 155)","2","legacy","experiment","[6, 7, 0, 1, 2, 3, 4, 5]","\","2500","3000","0","8","252.758751519","1024","2","48000","-16","main","[(0, -252), (178, -178), (252, 0), (178, 178), (0, 252), (-178, 178), (-252, 0), (-178, -178)]","[]","23","odd","4","224872","259161","259161","132088","131080","1793","158508","158508","1793","1793","149973","334700","1791","259161","333428","332714","332714","NA","708","study_X","0","17884","1","yes","1680"
"undefined","undefined","17884","17884","black","no","legacy","legacy","legacy","0","red","(179, 0, 0)","color","present","lowProb5","circular","swap","same","same","swap","green","(0, 122, 0)","lowProb","lowProb6","circular","uniform","1","undefined","0.182291666667","1","1","172.90625","1","35","33198","0","0","0","0","0","0","0","0","59","0","1","0.182291666667","172.90625","35","33198","59","59","59","08/25/17 14:25:42","Default description","yes","<openexp._canvas.legacy.legacy object at 0x0487F7F0>","<openexp._canvas.legacy.legacy object at 0x0488B7B0>","<openexp._canvas.legacy.legacy object at 0x04873410>","<openexp._canvas.legacy.legacy object at 0x0496B9D0>","<openexp._canvas.legacy.legacy object at 0x0493D4B0>","<openexp._canvas.legacy.legacy object at 0x0488B9F0>","<openexp._canvas.legacy.legacy object at 0x0493FA50>","75","IndividualPriorityWithDis_v1.osexp","C:/Userdata/Michel/SpatialProb/IndividualPriorityMaps/Experiment2","no","mono","no","18","no","white","no","yes","0.09","98","1050","legacy","45","34","34","1","C:/Userdata/Michel/SpatialProb/IndividualPriorityMaps/Experiment2/data/subject-23v2.csv","legacy","9","192","25","Jazzy James","3.1.3","yes","598477b2b83f69022949e7e9","47","red","circular","green","circular","0","\","1197","space","17884","17884","(80, 80, 80)","(0, 122, 0)","(179, 0, 0)","(155, 155, 155)","2","legacy","experiment","[6, 7, 0, 1, 2, 3, 4, 5]","\","2500","3000","0","8","252.758751519","1024","2","48000","-16","main","[(0, -252), (178, -178), (252, 0), (178, 178), (0, 252), (-178, 178), (-252, 0), (-178, -178)]","[]","23","odd","5","224872","259161","259161","132088","131080","1793","158508","158508","1793","1793","149973","337036","1791","259161","335835","335121","335121","NA","708","study_X","0","17884","1","yes","1680"
"undefined","undefined","17884","17884","black","no","legacy","legacy","legacy","0","green","(0, 122, 0)","shape","present","highProb","rectangular","swap","swap","same","same","green","(0, 122, 0)","lowProb","lowProb6","circular","uniform","1","undefined","0.1875","1","1","179.401041667","1","36","34445","0","0","0","0","0","0","0","0","60","0","1","0.1875","179.401041667","36","34445","60","60","60","08/25/17 14:25:42","Default description","yes","<openexp._canvas.legacy.legacy object at 0x0487F7F0>","<openexp._canvas.legacy.legacy object at 0x0488B7B0>","<openexp._canvas.legacy.legacy object at 0x04873410>","<openexp._canvas.legacy.legacy object at 0x0496B9D0>","<openexp._canvas.legacy.legacy object at 0x0493D4B0>","<openexp._canvas.legacy.legacy object at 0x048846D0>","<openexp._canvas.legacy.legacy object at 0x0493FA50>","75","IndividualPriorityWithDis_v1.osexp","C:/Userdata/Michel/SpatialProb/IndividualPriorityMaps/Experiment2","no","mono","no","18","no","white","no","yes","0.09","98","1050","legacy","315","35","35","1","C:/Userdata/Michel/SpatialProb/IndividualPriorityMaps/Experiment2/data/subject-23v2.csv","legacy","9","192","25","Jazzy James","3.1.3","yes","598477b2b83f69022949e7e9","47","green","rectangular","green","circular","0","/","1247","space","17884","17884","(80, 80, 80)","(0, 122, 0)","(179, 0, 0)","(155, 155, 155)","2","legacy","experiment","[6, 7, 0, 1, 2, 3, 4, 5]","/","2500","3000","0","8","252.758751519","1024","2","48000","-16","main","[(0, -252), (178, -178), (252, 0), (178, 178), (0, 252), (-178, 178), (-252, 0), (-178, -178)]","[]","23","odd","5","224872","259161","259161","132088","131080","1793","158508","158508","1793","1793","149973","339419","1791","259161","338169","337456","337456","NA","708","study_X","0","17884","1","yes","1680"
"undefined","undefined","17884","17884","black","no","legacy","legacy","legacy","0","red","(179, 0, 0)","shape","present","highProb","rectangular","swap","same","swap","same","red","(179, 0, 0)","lowProb","lowProb6","circular","uniform","1","undefined","0.192708333333","1","1","183.807291667","1","37","35291","0","0","0","0","0","0","0","0","61","0","1","0.192708333333","183.807291667","37","35291","61","61","61","08/25/17 14:25:42","Default description","yes","<openexp._canvas.legacy.legacy object at 0x0487F7F0>","<openexp._canvas.legacy.legacy object at 0x0488B7B0>","<openexp._canvas.legacy.legacy object at 0x04873410>","<openexp._canvas.legacy.legacy object at 0x0496B9D0>","<openexp._canvas.legacy.legacy object at 0x0493D4B0>","<openexp._canvas.legacy.legacy object at 0x0488BD10>","<openexp._canvas.legacy.legacy object at 0x0493FA50>","75","IndividualPriorityWithDis_v1.osexp","C:/Userdata/Michel/SpatialProb/IndividualPriorityMaps/Experiment2","no","mono","no","18","no","white","no","yes","0.09","98","1050","legacy","45","36","36","1","C:/Userdata/Michel/SpatialProb/IndividualPriorityMaps/Experiment2/data/subject-23v2.csv","legacy","9","192","25","Jazzy James","3.1.3","yes","598477b2b83f69022949e7e9","47","red","rectangular","red","circular","0","\","846","space","17884","17884","(80, 80, 80)","(0, 122, 0)","(179, 0, 0)","(155, 155, 155)","2","legacy","experiment","[6, 7, 0, 1, 2, 3, 4, 5]","\","2500","3000","0","8","252.758751519","1024","2","48000","-16","main","[(0, -252), (178, -178), (252, 0), (178, 178), (0, 252), (-178, 178), (-252, 0), (-178, -178)]","[]","23","odd","5","224872","259161","259161","132088","131080","1793","158508","158508","1793","1793","149973","341395","1791","259161","340546","339832","339832","NA","708","study_X","0","17884","1","yes","1680"
"undefined","undefined","17884","17884","black","no","legacy","legacy","legacy","0","green","(0, 122, 0)","shape","present","lowProb5","circular","swap","swap","swap","swap","green","(0, 122, 0)","lowProb","lowProb4","rectangular","uniform","0","undefined","0.192708333333","1","1","190.994791667","1","37","36671","0","0","0","0","0","0","0","0","62","0","1","0.192708333333","190.994791667","37","36671","62","62","62","08/25/17 14:25:42","Default description","yes","<openexp._canvas.legacy.legacy object at 0x0487F7F0>","<openexp._canvas.legacy.legacy object at 0x0488B7B0>","<openexp._canvas.legacy.legacy object at 0x04873410>","<openexp._canvas.legacy.legacy object at 0x0496B9D0>","<openexp._canvas.legacy.legacy object at 0x0493D4B0>","<openexp._canvas.legacy.legacy object at 0x0496B8F0>","<openexp._canvas.legacy.legacy object at 0x0493FA50>","75","IndividualPriorityWithDis_v1.osexp","C:/Userdata/Michel/SpatialProb/IndividualPriorityMaps/Experiment2","no","mono","no","18","no","white","no","yes","0.09","98","1050","legacy","45","37","37","1","C:/Userdata/Michel/SpatialProb/IndividualPriorityMaps/Experiment2/data/subject-23v2.csv","legacy","9","192","25","Jazzy James","3.1.3","yes","598477b2b83f69022949e7e9","47","green","circular","green","rectangular","0","/","1380","space","17884","17884","(80, 80, 80)","(0, 122, 0)","(179, 0, 0)","(155, 155, 155)","2","legacy","experiment","[6, 7, 0, 1, 2, 3, 4, 5]","\","2500","3000","0","8","252.758751519","1024","2","48000","-16","main","[(0, -252), (178, -178), (252, 0), (178, 178), (0, 252), (-178, 178), (-252, 0), (-178, -178)]","[]","23","odd","3","224872","259161","259161","132088","131080","1793","158508","158508","1793","1793","149973","343900","1791","259161","342517","341803","341803","NA","708","study_X","0","17884","1","yes","1680"
"undefined","undefined","17884","17884","black","no","legacy","legacy","legacy","0","red","(179, 0, 0)","shape","present","highProb","circular","swap","same","swap","same","red","(179, 0, 0)","lowProb","lowProb3","rectangular","uniform","1","undefined","0.197916666667","1","1","197.026041667","1","38","37829","0","0","0","0","0","0","0","0","63","0","1","0.197916666667","197.026041667","38","37829","63","63","63","08/25/17 14:25:42","Default description","yes","<openexp._canvas.legacy.legacy object at 0x0487F7F0>","<openexp._canvas.legacy.legacy object at 0x0488B7B0>","<openexp._canvas.legacy.legacy object at 0x04873410>","<openexp._canvas.legacy.legacy object at 0x0496B9D0>","<openexp._canvas.legacy.legacy object at 0x0493D4B0>","<openexp._canvas.legacy.legacy object at 0x0487D8F0>","<openexp._canvas.legacy.legacy object at 0x0493FA50>","75","IndividualPriorityWithDis_v1.osexp","C:/Userdata/Michel/SpatialProb/IndividualPriorityMaps/Experiment2","no","mono","no","18","no","white","no","yes","0.09","98","1050","legacy","45","38","38","1","C:/Userdata/Michel/SpatialProb/IndividualPriorityMaps/Experiment2/data/subject-23v2.csv","legacy","9","192","25","Jazzy James","3.1.3","yes","598477b2b83f69022949e7e9","47","red","circular","red","rectangular","0","\","1158","space","17884","17884","(80, 80, 80)","(0, 122, 0)","(179, 0, 0)","(155, 155, 155)","2","legacy","experiment","[6, 7, 0, 1, 2, 3, 4, 5]","\","2500","3000","0","8","252.758751519","1024","2","48000","-16","main","[(0, -252), (178, -178), (252, 0), (178, 178), (0, 252), (-178, 178), (-252, 0), (-178, -178)]","[]","23","odd","1","224872","259161","259161","132088","131080","1793","158508","158508","1793","1793","149973","346188","1791","259161","345027","344314","344314","NA","708","study_X","0","17884","1","yes","1680"
"undefined","undefined","17884","17884","black","no","legacy","legacy","legacy","0","green","(0, 122, 0)","color","absent","lowProb6","rectangular","swap","swap","swap","same","green","(0, 122, 0)","highProbColor","highProbColor","rectangular","uniform","1","undefined","0.203125","1","1","203.697916667","1","39","39110","0","0","0","0","0","0","0","0","64","0","1","0.203125","203.697916667","39","39110","64","64","64","08/25/17 14:25:42","Default description","yes","<openexp._canvas.legacy.legacy object at 0x0487F7F0>","<openexp._canvas.legacy.legacy object at 0x0488B7B0>","<openexp._canvas.legacy.legacy object at 0x04873410>","<openexp._canvas.legacy.legacy object at 0x0496B9D0>","<openexp._canvas.legacy.legacy object at 0x0493D4B0>","<openexp._canvas.legacy.legacy object at 0x04971CB0>","<openexp._canvas.legacy.legacy object at 0x0493FA50>","75","IndividualPriorityWithDis_v1.osexp","C:/Userdata/Michel/SpatialProb/IndividualPriorityMaps/Experiment2","no","mono","no","18","no","white","no","yes","0.09","98","1050","legacy","45","39","39","1","C:/Userdata/Michel/SpatialProb/IndividualPriorityMaps/Experiment2/data/subject-23v2.csv","legacy","9","192","25","Jazzy James","3.1.3","yes","598477b2b83f69022949e7e9","47","green","rectangular","green","rectangular","0","\","1281","space","17884","17884","(80, 80, 80)","(0, 122, 0)","(179, 0, 0)","(155, 155, 155)","2","legacy","experiment","[6, 7, 0, 1, 2, 3, 4, 5]","\","2500","3000","0","8","252.758751519","1024","2","48000","-16","main","[(0, -252), (178, -178), (252, 0), (178, 178), (0, 252), (-178, 178), (-252, 0), (-178, -178)]","[]","23","odd","6","224872","259161","259161","132088","131080","1793","158508","158508","1793","1793","149973","348588","1791","259161","347304","346590","346590","NA","708","study_X","0","17884","1","yes","1680"
"undefined","undefined","17884","17884","black","no","legacy","legacy","legacy","0","green","(0, 122, 0)","shape","present","highProb","rectangular","same","same","same","swap","green","(0, 122, 0)","lowProb","lowProb6","circular","uniform","1","undefined","0.208333333333","1","1","210.442708333","1","40","40405","0","0","0","0","0","0","0","0","65","0","1","0.208333333333","210.442708333","40","40405","65","65","65","08/25/17 14:25:42","Default description","yes","<openexp._canvas.legacy.legacy object at 0x0487F7F0>","<openexp._canvas.legacy.legacy object at 0x0488B7B0>","<openexp._canvas.legacy.legacy object at 0x04873410>","<openexp._canvas.legacy.legacy object at 0x0496B9D0>","<openexp._canvas.legacy.legacy object at 0x0493D4B0>","<openexp._canvas.legacy.legacy object at 0x0488B750>","<openexp._canvas.legacy.legacy object at 0x0493FA50>","75","IndividualPriorityWithDis_v1.osexp","C:/Userdata/Michel/SpatialProb/IndividualPriorityMaps/Experiment2","no","mono","no","18","no","white","no","yes","0.09","98","1050","legacy","45","40","40","1","C:/Userdata/Michel/SpatialProb/IndividualPriorityMaps/Experiment2/data/subject-23v2.csv","legacy","9","192","25","Jazzy James","3.1.3","yes","598477b2b83f69022949e7e9","47","green","rectangular","green","circular","0","\","1295","space","17884","17884","(80, 80, 80)","(0, 122, 0)","(179, 0, 0)","(155, 155, 155)","2","legacy","experiment","[6, 7, 0, 1, 2, 3, 4, 5]","\","2500","3000","0","8","252.758751519","1024","2","48000","-16","main","[(0, -252), (178, -178), (252, 0), (178, 178), (0, 252), (-178, 178), (-252, 0), (-178, -178)]","[]","23","odd","5","224872","259161","259161","132088","131080","1793","158508","158508","1793","1793","149973","351028","1791","259161","349729","349015","349016","NA","708","study_X","0","17884","1","yes","1680"
"undefined","undefined","17884","17884","black","no","legacy","legacy","legacy","0","green","(0, 122, 0)","shape","present","highProb","rectangular","same","same","same","same","green","(0, 122, 0)","lowProb","lowProb4","circular","uniform","1","undefined","0.213541666667","1","1","216.338541667","1","41","41537","0","0","0","0","0","0","0","0","66","0","1","0.213541666667","216.338541667","41","41537","66","66","66","08/25/17 14:25:42","Default description","yes","<openexp._canvas.legacy.legacy object at 0x0487F7F0>","<openexp._canvas.legacy.legacy object at 0x0488B7B0>","<openexp._canvas.legacy.legacy object at 0x04873410>","<openexp._canvas.legacy.legacy object at 0x0496B9D0>","<openexp._canvas.legacy.legacy object at 0x0493D4B0>","<openexp._canvas.legacy.legacy object at 0x0496BB50>","<openexp._canvas.legacy.legacy object at 0x0493FA50>","75","IndividualPriorityWithDis_v1.osexp","C:/Userdata/Michel/SpatialProb/IndividualPriorityMaps/Experiment2","no","mono","no","18","no","white","no","yes","0.09","98","1050","legacy","45","41","41","1","C:/Userdata/Michel/SpatialProb/IndividualPriorityMaps/Experiment2/data/subject-23v2.csv","legacy","9","192","25","Jazzy James","3.1.3","yes","598477b2b83f69022949e7e9","47","green","rectangular","green","circular","0","\","1132","space","17884","17884","(80, 80, 80)","(0, 122, 0)","(179, 0, 0)","(155, 155, 155)","2","legacy","experiment","[6, 7, 0, 1, 2, 3, 4, 5]","\","2500","3000","0","8","252.758751519","1024","2","48000","-16","main","[(0, -252), (178, -178), (252, 0), (178, 178), (0, 252), (-178, 178), (-252, 0), (-178, -178)]","[]","23","odd","3","224872","259161","259161","132088","131080","1793","158508","158508","1793","1793","149973","353284","1791","259161","352148","351434","351435","NA","708","study_X","0","17884","1","yes","1680"
"undefined","undefined","17884","17884","black","no","legacy","legacy","legacy","0","red","(179, 0, 0)","shape","present","lowProb5","rectangular","swap","same","swap","same","red","(179, 0, 0)","lowProb","lowProb4","circular","uniform","1","undefined","0.21875","1","1","222.052083333","1","42","42634","0","0","0","0","0","0","0","0","67","0","1","0.21875","222.052083333","42","42634","67","67","67","08/25/17 14:25:42","Default description","yes","<openexp._canvas.legacy.legacy object at 0x0487F7F0>","<openexp._canvas.legacy.legacy object at 0x0488B7B0>","<openexp._canvas.legacy.legacy object at 0x04873410>","<openexp._canvas.legacy.legacy object at 0x0496B9D0>","<openexp._canvas.legacy.legacy object at 0x0493D4B0>","<openexp._canvas.legacy.legacy object at 0x048736B0>","<openexp._canvas.legacy.legacy object at 0x0493FA50>","75","IndividualPriorityWithDis_v1.osexp","C:/Userdata/Michel/SpatialProb/IndividualPriorityMaps/Experiment2","no","mono","no","18","no","white","no","yes","0.09","98","1050","legacy","315","42","42","1","C:/Userdata/Michel/SpatialProb/IndividualPriorityMaps/Experiment2/data/subject-23v2.csv","legacy","9","192","25","Jazzy James","3.1.3","yes","598477b2b83f69022949e7e9","47","red","rectangular","red","circular","0","/","1097","space","17884","17884","(80, 80, 80)","(0, 122, 0)","(179, 0, 0)","(155, 155, 155)","2","legacy","experiment","[6, 7, 0, 1, 2, 3, 4, 5]","/","2500","3000","0","8","252.758751519","1024","2","48000","-16","main","[(0, -252), (178, -178), (252, 0), (178, 178), (0, 252), (-178, 178), (-252, 0), (-178, -178)]","[]","23","odd","3","224872","259161","259161","132088","131080","1793","158508","158508","1793","1793","149973","355515","1791","259161","354415","353702","353702","NA","708","study_X","0","17884","1","yes","1680"
"undefined","undefined","17884","17884","black","no","legacy","legacy","legacy","0","green","(0, 122, 0)","shape","present","lowProb5","rectangular","swap","same","swap","same","green","(0, 122, 0)","lowProb","lowProb6","circular","uniform","1","undefined","0.223958333333","1","1","227.244791667","1","43","43631","0","0","0","0","0","0","0","0","68","0","1","0.223958333333","227.244791667","43","43631","68","68","68","08/25/17 14:25:42","Default description","yes","<openexp._canvas.legacy.legacy object at 0x0487F7F0>","<openexp._canvas.legacy.legacy object at 0x0488B7B0>","<openexp._canvas.legacy.legacy object at 0x04873410>","<openexp._canvas.legacy.legacy object at 0x0496B9D0>","<openexp._canvas.legacy.legacy object at 0x0493D4B0>","<openexp._canvas.legacy.legacy object at 0x0496B5F0>","<openexp._canvas.legacy.legacy object at 0x0493FA50>","75","IndividualPriorityWithDis_v1.osexp","C:/Userdata/Michel/SpatialProb/IndividualPriorityMaps/Experiment2","no","mono","no","18","no","white","no","yes","0.09","98","1050","legacy","315","43","43","1","C:/Userdata/Michel/SpatialProb/IndividualPriorityMaps/Experiment2/data/subject-23v2.csv","legacy","9","192","25","Jazzy James","3.1.3","yes","598477b2b83f69022949e7e9","47","green","rectangular","green","circular","0","/","997","space","17884","17884","(80, 80, 80)","(0, 122, 0)","(179, 0, 0)","(155, 155, 155)","2","legacy","experiment","[6, 7, 0, 1, 2, 3, 4, 5]","/","2500","3000","0","8","252.758751519","1024","2","48000","-16","main","[(0, -252), (178, -178), (252, 0), (178, 178), (0, 252), (-178, 178), (-252, 0), (-178, -178)]","[]","23","odd","5","224872","259161","259161","132088","131080","1793","158508","158508","1793","1793","149973","357643","1791","259161","356643","355929","355929","NA","708","study_X","0","17884","1","yes","1680"
"undefined","undefined","17884","17884","black","no","legacy","legacy","legacy","0","red","(179, 0, 0)","shape","present","highProb","circular","swap","swap","swap","swap","red","(179, 0, 0)","lowProb","lowProb6","rectangular","uniform","1","undefined","0.229166666667","1","1","230.854166667","1","44","44324","0","0","0","0","0","0","0","0","69","0","1","0.229166666667","230.854166667","44","44324","69","69","69","08/25/17 14:25:42","Default description","yes","<openexp._canvas.legacy.legacy object at 0x0487F7F0>","<openexp._canvas.legacy.legacy object at 0x0488B7B0>","<openexp._canvas.legacy.legacy object at 0x04873410>","<openexp._canvas.legacy.legacy object at 0x0496B9D0>","<openexp._canvas.legacy.legacy object at 0x0493D4B0>","<openexp._canvas.legacy.legacy object at 0x0487D8B0>","<openexp._canvas.legacy.legacy object at 0x0493FA50>","75","IndividualPriorityWithDis_v1.osexp","C:/Userdata/Michel/SpatialProb/IndividualPriorityMaps/Experiment2","no","mono","no","18","no","white","no","yes","0.09","98","1050","legacy","45","44","44","1","C:/Userdata/Michel/SpatialProb/IndividualPriorityMaps/Experiment2/data/subject-23v2.csv","legacy","9","192","25","Jazzy James","3.1.3","yes","598477b2b83f69022949e7e9","47","red","circular","red","rectangular","0","\","693","space","17884","17884","(80, 80, 80)","(0, 122, 0)","(179, 0, 0)","(155, 155, 155)","2","legacy","experiment","[6, 7, 0, 1, 2, 3, 4, 5]","\","2500","3000","0","8","252.758751519","1024","2","48000","-16","main","[(0, -252), (178, -178), (252, 0), (178, 178), (0, 252), (-178, 178), (-252, 0), (-178, -178)]","[]","23","odd","5","224872","259161","259161","132088","131080","1793","158508","158508","1793","1793","149973","359459","1791","259161","358763","358049","358049","NA","708","study_X","0","17884","1","yes","1680"
"undefined","undefined","17884","17884","black","no","legacy","legacy","legacy","0","red","(179, 0, 0)","shape","present","highProb","circular","same","same","same","same","red","(179, 0, 0)","lowProb","lowProb4","rectangular","uniform","1","undefined","0.234375","1","1","235.791666667","1","45","45272","0","0","0","0","0","0","0","0","70","0","1","0.234375","235.791666667","45","45272","70","70","70","08/25/17 14:25:42","Default description","yes","<openexp._canvas.legacy.legacy object at 0x0487F7F0>","<openexp._canvas.legacy.legacy object at 0x0488B7B0>","<openexp._canvas.legacy.legacy object at 0x04873410>","<openexp._canvas.legacy.legacy object at 0x0496B9D0>","<openexp._canvas.legacy.legacy object at 0x0493D4B0>","<openexp._canvas.legacy.legacy object at 0x04968FB0>","<openexp._canvas.legacy.legacy object at 0x0493FA50>","75","IndividualPriorityWithDis_v1.osexp","C:/Userdata/Michel/SpatialProb/IndividualPriorityMaps/Experiment2","no","mono","no","18","no","white","no","yes","0.09","98","1050","legacy","315","45","45","1","C:/Userdata/Michel/SpatialProb/IndividualPriorityMaps/Experiment2/data/subject-23v2.csv","legacy","9","192","25","Jazzy James","3.1.3","yes","598477b2b83f69022949e7e9","47","red","circular","red","rectangular","0","/","948","space","17884","17884","(80, 80, 80)","(0, 122, 0)","(179, 0, 0)","(155, 155, 155)","2","legacy","experiment","[6, 7, 0, 1, 2, 3, 4, 5]","/","2500","3000","0","8","252.758751519","1024","2","48000","-16","main","[(0, -252), (178, -178), (252, 0), (178, 178), (0, 252), (-178, 178), (-252, 0), (-178, -178)]","[]","23","odd","3","224872","259161","259161","132088","131080","1793","158508","158508","1793","1793","149973","361532","1791","259161","360581","359867","359867","NA","708","study_X","0","17884","1","yes","1680"
"undefined","undefined","17884","17884","black","no","legacy","legacy","legacy","0","red","(179, 0, 0)","color","present","lowProb4","rectangular","same","swap","swap","same","green","(0, 122, 0)","lowProb","lowProb2","rectangular","uniform","1","undefined","0.239583333333","1","1","240.411458333","1","46","46159","0","0","0","0","0","0","0","0","71","0","1","0.239583333333","240.411458333","46","46159","71","71","71","08/25/17 14:25:42","Default description","yes","<openexp._canvas.legacy.legacy object at 0x0487F7F0>","<openexp._canvas.legacy.legacy object at 0x0488B7B0>","<openexp._canvas.legacy.legacy object at 0x04873410>","<openexp._canvas.legacy.legacy object at 0x0496B9D0>","<openexp._canvas.legacy.legacy object at 0x0493D4B0>","<openexp._canvas.legacy.legacy object at 0x04971990>","<openexp._canvas.legacy.legacy object at 0x0493FA50>","75","IndividualPriorityWithDis_v1.osexp","C:/Userdata/Michel/SpatialProb/IndividualPriorityMaps/Experiment2","no","mono","no","18","no","white","no","yes","0.09","98","1050","legacy","45","46","46","1","C:/Userdata/Michel/SpatialProb/IndividualPriorityMaps/Experiment2/data/subject-23v2.csv","legacy","9","192","25","Jazzy James","3.1.3","yes","598477b2b83f69022949e7e9","47","red","rectangular","green","rectangular","0","\","887","space","17884","17884","(80, 80, 80)","(0, 122, 0)","(179, 0, 0)","(155, 155, 155)","2","legacy","experiment","[6, 7, 0, 1, 2, 3, 4, 5]","\","2500","3000","0","8","252.758751519","1024","2","48000","-16","main","[(0, -252), (178, -178), (252, 0), (178, 178), (0, 252), (-178, 178), (-252, 0), (-178, -178)]","[]","23","odd","0","224872","259161","259161","132088","131080","1793","158508","158508","1793","1793","149973","363540","1791","259161","362650","361936","361937","NA","708","study_X","0","17884","1","yes","1680"
"undefined","undefined","17884","17884","black","no","legacy","legacy","legacy","0","green","(0, 122, 0)","shape","present","lowProb2","circular","swap","swap","same","same","green","(0, 122, 0)","highProbShape","highProbShape","rectangular","uniform","1","undefined","0.244791666667","1","1","249.505208333","1","47","47905","0","0","0","0","0","0","0","0","72","0","1","0.244791666667","249.505208333","47","47905","72","72","72","08/25/17 14:25:42","Default description","yes","<openexp._canvas.legacy.legacy object at 0x0487F7F0>","<openexp._canvas.legacy.legacy object at 0x0488B7B0>","<openexp._canvas.legacy.legacy object at 0x04873410>","<openexp._canvas.legacy.legacy object at 0x0496B9D0>","<openexp._canvas.legacy.legacy object at 0x0493D4B0>","<openexp._canvas.legacy.legacy object at 0x04895FF0>","<openexp._canvas.legacy.legacy object at 0x0493FA50>","75","IndividualPriorityWithDis_v1.osexp","C:/Userdata/Michel/SpatialProb/IndividualPriorityMaps/Experiment2","no","mono","no","18","no","white","no","yes","0.09","98","1050","legacy","45","47","47","1","C:/Userdata/Michel/SpatialProb/IndividualPriorityMaps/Experiment2/data/subject-23v2.csv","legacy","9","192","25","Jazzy James","3.1.3","yes","598477b2b83f69022949e7e9","47","green","circular","green","rectangular","0","\","1746","space","17884","17884","(80, 80, 80)","(0, 122, 0)","(179, 0, 0)","(155, 155, 155)","2","legacy","experiment","[6, 7, 0, 1, 2, 3, 4, 5]","\","2500","3000","0","8","252.758751519","1024","2","48000","-16","main","[(0, -252), (178, -178), (252, 0), (178, 178), (0, 252), (-178, 178), (-252, 0), (-178, -178)]","[]","23","odd","2","224872","259161","259161","132088","131080","1793","158508","158508","1793","1793","149973","366404","1791","259161","364654","363940","363940","NA","708","study_X","0","17884","1","yes","1680"
"undefined","undefined","17884","17884","black","no","legacy","legacy","legacy","0","green","(0, 122, 0)","shape","present","highProb","circular","same","same","same","same","green","(0, 122, 0)","lowProb","lowProb5","rectangular","uniform","1","undefined","0.25","1","1","254.666666667","1","48","48896","0","0","0","0","0","0","0","0","73","0","1","0.25","254.666666667","48","48896","73","73","73","08/25/17 14:25:42","Default description","yes","<openexp._canvas.legacy.legacy object at 0x0487F7F0>","<openexp._canvas.legacy.legacy object at 0x0488B7B0>","<openexp._canvas.legacy.legacy object at 0x04873410>","<openexp._canvas.legacy.legacy object at 0x0496B9D0>","<openexp._canvas.legacy.legacy object at 0x0493D4B0>","<openexp._canvas.legacy.legacy object at 0x04968FD0>","<openexp._canvas.legacy.legacy object at 0x0493FA50>","75","IndividualPriorityWithDis_v1.osexp","C:/Userdata/Michel/SpatialProb/IndividualPriorityMaps/Experiment2","no","mono","no","18","no","white","no","yes","0.09","98","1050","legacy","315","48","48","1","C:/Userdata/Michel/SpatialProb/IndividualPriorityMaps/Experiment2/data/subject-23v2.csv","legacy","9","192","25","Jazzy James","3.1.3","yes","598477b2b83f69022949e7e9","47","green","circular","green","rectangular","0","/","991","space","17884","17884","(80, 80, 80)","(0, 122, 0)","(179, 0, 0)","(155, 155, 155)","2","legacy","experiment","[6, 7, 0, 1, 2, 3, 4, 5]","/","2500","3000","0","8","252.758751519","1024","2","48000","-16","main","[(0, -252), (178, -178), (252, 0), (178, 178), (0, 252), (-178, 178), (-252, 0), (-178, -178)]","[]","23","odd","4","224872","259161","259161","132088","131080","1793","158508","158508","1793","1793","149973","368516","1791","259161","367521","366807","366807","NA","708","study_X","0","17884","1","yes","1680"
"undefined","undefined","17884","17884","black","no","legacy","legacy","legacy","0","red","(179, 0, 0)","color","absent","lowProb5","rectangular","swap","swap","swap","same","red","(179, 0, 0)","highProbColor","highProbColor","rectangular","uniform","1","undefined","0.255208333333","1","1","259.932291667","1","49","49907","0","0","0","0","0","0","0","0","74","0","1","0.255208333333","259.932291667","49","49907","74","74","74","08/25/17 14:25:42","Default description","yes","<openexp._canvas.legacy.legacy object at 0x0487F7F0>","<openexp._canvas.legacy.legacy object at 0x0488B7B0>","<openexp._canvas.legacy.legacy object at 0x04873410>","<openexp._canvas.legacy.legacy object at 0x0496B9D0>","<openexp._canvas.legacy.legacy object at 0x0493D4B0>","<openexp._canvas.legacy.legacy object at 0x0488E530>","<openexp._canvas.legacy.legacy object at 0x0493FA50>","75","IndividualPriorityWithDis_v1.osexp","C:/Userdata/Michel/SpatialProb/IndividualPriorityMaps/Experiment2","no","mono","no","18","no","white","no","yes","0.09","98","1050","legacy","315","49","49","1","C:/Userdata/Michel/SpatialProb/IndividualPriorityMaps/Experiment2/data/subject-23v2.csv","legacy","9","192","25","Jazzy James","3.1.3","yes","598477b2b83f69022949e7e9","47","red","rectangular","red","rectangular","0","/","1011","space","17884","17884","(80, 80, 80)","(0, 122, 0)","(179, 0, 0)","(155, 155, 155)","2","legacy","experiment","[6, 7, 0, 1, 2, 3, 4, 5]","/","2500","3000","0","8","252.758751519","1024","2","48000","-16","main","[(0, -252), (178, -178), (252, 0), (178, 178), (0, 252), (-178, 178), (-252, 0), (-178, -178)]","[]","23","odd","6","224872","259161","259161","132088","131080","1793","158508","158508","1793","1793","149973","370675","1791","259161","369661","368947","368947","NA","708","study_X","0","17884","1","yes","1680"
"undefined","undefined","17884","17884","black","no","legacy","legacy","legacy","0","green","(0, 122, 0)","shape","present","lowProb6","circular","swap","swap","swap","same","green","(0, 122, 0)","lowProb","lowProb5","rectangular","uniform","1","undefined","0.260416666667","1","1","264.010416667","1","50","50690","0","0","0","0","0","0","0","0","75","0","1","0.260416666667","264.010416667","50","50690","75","75","75","08/25/17 14:25:42","Default description","yes","<openexp._canvas.legacy.legacy object at 0x0487F7F0>","<openexp._canvas.legacy.legacy object at 0x0488B7B0>","<openexp._canvas.legacy.legacy object at 0x04873410>","<openexp._canvas.legacy.legacy object at 0x0496B9D0>","<openexp._canvas.legacy.legacy object at 0x0493D4B0>","<openexp._canvas.legacy.legacy object at 0x0496B7F0>","<openexp._canvas.legacy.legacy object at 0x0493FA50>","75","IndividualPriorityWithDis_v1.osexp","C:/Userdata/Michel/SpatialProb/IndividualPriorityMaps/Experiment2","no","mono","no","18","no","white","no","yes","0.09","98","1050","legacy","315","50","50","1","C:/Userdata/Michel/SpatialProb/IndividualPriorityMaps/Experiment2/data/subject-23v2.csv","legacy","9","192","25","Jazzy James","3.1.3","yes","598477b2b83f69022949e7e9","47","green","circular","green","rectangular","0","/","783","space","17884","17884","(80, 80, 80)","(0, 122, 0)","(179, 0, 0)","(155, 155, 155)","2","legacy","experiment","[6, 7, 0, 1, 2, 3, 4, 5]","/","2500","3000","0","8","252.758751519","1024","2","48000","-16","main","[(0, -252), (178, -178), (252, 0), (178, 178), (0, 252), (-178, 178), (-252, 0), (-178, -178)]","[]","23","odd","4","224872","259161","259161","132088","131080","1793","158508","158508","1793","1793","149973","372587","1791","259161","371801","371087","371087","NA","708","study_X","0","17884","1","yes","1680"
"undefined","undefined","17884","17884","black","no","legacy","legacy","legacy","0","green","(0, 122, 0)","color","present","lowProb6","rectangular","same","swap","swap","same","red","(179, 0, 0)","lowProb","lowProb4","rectangular","uniform","1","undefined","0.265625","1","1","270.572916667","1","51","51950","0","0","0","0","0","0","0","0","76","0","1","0.265625","270.572916667","51","51950","76","76","76","08/25/17 14:25:42","Default description","yes","<openexp._canvas.legacy.legacy object at 0x0487F7F0>","<openexp._canvas.legacy.legacy object at 0x0488B7B0>","<openexp._canvas.legacy.legacy object at 0x04873410>","<openexp._canvas.legacy.legacy object at 0x0496B9D0>","<openexp._canvas.legacy.legacy object at 0x0493D4B0>","<openexp._canvas.legacy.legacy object at 0x0488B990>","<openexp._canvas.legacy.legacy object at 0x0493FA50>","75","IndividualPriorityWithDis_v1.osexp","C:/Userdata/Michel/SpatialProb/IndividualPriorityMaps/Experiment2","no","mono","no","18","no","white","no","yes","0.09","98","1050","legacy","315","51","51","1","C:/Userdata/Michel/SpatialProb/IndividualPriorityMaps/Experiment2/data/subject-23v2.csv","legacy","9","192","25","Jazzy James","3.1.3","yes","598477b2b83f69022949e7e9","47","green","rectangular","red","rectangular","0","/","1260","space","17884","17884","(80, 80, 80)","(0, 122, 0)","(179, 0, 0)","(155, 155, 155)","2","legacy","experiment","[6, 7, 0, 1, 2, 3, 4, 5]","/","2500","3000","0","8","252.758751519","1024","2","48000","-16","main","[(0, -252), (178, -178), (252, 0), (178, 178), (0, 252), (-178, 178), (-252, 0), (-178, -178)]","[]","23","odd","3","224872","259161","259161","132088","131080","1793","158508","158508","1793","1793","149973","374971","1791","259161","373708","372994","372994","NA","708","study_X","0","17884","1","yes","1680"
"undefined","undefined","17884","17884","black","no","legacy","legacy","legacy","0","red","(179, 0, 0)","shape","present","highProbOther","circular","swap","swap","same","same","red","(179, 0, 0)","lowProb","lowProb6","rectangular","uniform","1","undefined","0.270833333333","1","1","274.171875","1","52","52641","0","0","0","0","0","0","0","0","77","0","1","0.270833333333","274.171875","52","52641","77","77","77","08/25/17 14:25:42","Default description","yes","<openexp._canvas.legacy.legacy object at 0x0487F7F0>","<openexp._canvas.legacy.legacy object at 0x0488B7B0>","<openexp._canvas.legacy.legacy object at 0x04873410>","<openexp._canvas.legacy.legacy object at 0x0496B9D0>","<openexp._canvas.legacy.legacy object at 0x0493D4B0>","<openexp._canvas.legacy.legacy object at 0x0493FB70>","<openexp._canvas.legacy.legacy object at 0x0493FA50>","75","IndividualPriorityWithDis_v1.osexp","C:/Userdata/Michel/SpatialProb/IndividualPriorityMaps/Experiment2","no","mono","no","18","no","white","no","yes","0.09","98","1050","legacy","45","52","52","1","C:/Userdata/Michel/SpatialProb/IndividualPriorityMaps/Experiment2/data/subject-23v2.csv","legacy","9","192","25","Jazzy James","3.1.3","yes","598477b2b83f69022949e7e9","47","red","circular","red","rectangular","0","\","691","space","17884","17884","(80, 80, 80)","(0, 122, 0)","(179, 0, 0)","(155, 155, 155)","2","legacy","experiment","[6, 7, 0, 1, 2, 3, 4, 5]","\","2500","3000","0","8","252.758751519","1024","2","48000","-16","main","[(0, -252), (178, -178), (252, 0), (178, 178), (0, 252), (-178, 178), (-252, 0), (-178, -178)]","[]","23","odd","5","224872","259161","259161","132088","131080","1793","158508","158508","1793","1793","149973","376811","1791","259161","376117","375403","375403","NA","708","study_X","0","17884","1","yes","1680"
"undefined","undefined","17884","17884","black","no","legacy","legacy","legacy","0","green","(0, 122, 0)","color","present","lowProb5","circular","swap","same","same","swap","red","(179, 0, 0)","highProbShape","highProbShape","circular","uniform","1","undefined","0.276041666667","1","1","286.588541667","1","53","55025","0","0","0","0","0","0","0","0","78","0","1","0.276041666667","286.588541667","53","55025","78","78","78","08/25/17 14:25:42","Default description","yes","<openexp._canvas.legacy.legacy object at 0x0487F7F0>","<openexp._canvas.legacy.legacy object at 0x0488B7B0>","<openexp._canvas.legacy.legacy object at 0x04873410>","<openexp._canvas.legacy.legacy object at 0x0496B9D0>","<openexp._canvas.legacy.legacy object at 0x0493D4B0>","<openexp._canvas.legacy.legacy object at 0x048842B0>","<openexp._canvas.legacy.legacy object at 0x0493FA50>","75","IndividualPriorityWithDis_v1.osexp","C:/Userdata/Michel/SpatialProb/IndividualPriorityMaps/Experiment2","no","mono","no","18","no","white","no","yes","0.09","98","1050","legacy","315","53","53","1","C:/Userdata/Michel/SpatialProb/IndividualPriorityMaps/Experiment2/data/subject-23v2.csv","legacy","9","192","25","Jazzy James","3.1.3","yes","598477b2b83f69022949e7e9","47","green","circular","red","circular","0","/","2384","space","17884","17884","(80, 80, 80)","(0, 122, 0)","(179, 0, 0)","(155, 155, 155)","2","legacy","experiment","[6, 7, 0, 1, 2, 3, 4, 5]","/","2500","3000","0","8","252.758751519","1024","2","48000","-16","main","[(0, -252), (178, -178), (252, 0), (178, 178), (0, 252), (-178, 178), (-252, 0), (-178, -178)]","[]","23","odd","2","224872","259161","259161","132088","131080","1793","158508","158508","1793","1793","149973","380324","1791","259161","377936","377223","377223","NA","708","study_X","0","17884","1","yes","1680"
