acc,accuracy,answerQ1,answerQ2,answerQ3,average_response_time,avg_rt,background,bidi,canvas_backend,clock_backend,color_backend,compensation,cond_disColor,cond_disColorRGB,cond_disFeature,cond_disPresent,cond_disProbability,cond_disShape,cond_primingDisColor,cond_primingDisShape,cond_primingTarColor,cond_primingTarShape,cond_tarColor,cond_tarColorRGB,cond_tarLocation,cond_tarLocationLong,cond_tarShape,coordinates,correct,correct_continuePress,count_Questions,count_blockAcc,count_blockFeed,count_blockLoop,count_blockRT,count_blockSeq,count_blockSumCorrect,count_blockSumRT,count_continuePress,count_example,count_expSettings,count_exp_mainLoop,count_experiment,count_instructions,count_instructions1,count_instructions2,count_log,count_main,count_prepCanvas,count_totalAcc,count_totalRT,count_totalSumCorrect,count_totalSumRT,count_trialResp,count_trialSeq,count_trialTask,datetime,description,disable_garbage_collection,dispBlank,dispBlockStart,dispFeedBlock,dispFix,dispInstructions,dispQuestions,dispSearch,dispStartScreen,distance2screen,experiment_file,experiment_path,font_bold,font_family,font_italic,font_size,font_underline,foreground,form_clicks,fullscreen,gaborFreq,gaborSize,height,keyboard_backend,lineOriTar,live_row,live_row_blockLoop,live_row_exp_mainLoop,logfile,mouse_backend,noExpBlocks,noExpTrials,noPracTrials,opensesame_codename,opensesame_version,osf_always_upload_experiment,osf_id,physical_screensize,previousDisColor,previousDisShape,previousTarColor,previousTarShape,repeat_cycle,response,responseTime,response_continuePress,response_time,response_time_continuePress,rgb_gray,rgb_green,rgb_red,rgb_white,round_decimals,sampler_backend,set_blockType,set_counterPositions,set_respCorrect,set_respTimeoutExp,set_respTimeoutPrac,set_rotation,set_setSize,sizeImaginary,sound_buf_size,sound_channels,sound_freq,sound_sample_size,start,stimPositions,stimuli,subject_nr,subject_parity,tarIdx,time_Questions,time_blockFeed,time_blockLoop,time_blockSeq,time_continuePress,time_example,time_expSettings,time_exp_mainLoop,time_experiment,time_instructions,time_instructions1,time_instructions2,time_log,time_main,time_prepCanvas,time_trialResp,time_trialSeq,time_trialTask,timing_EEGwait,timing_fix,title,total_correct,total_response_time,total_responses,uniform_coordinates,width
undefined,undefined,NA,NA,NA,23746,23746,black,no,legacy,legacy,legacy,0,red,"(177, 0, 0)",shape,present,highProb,rectangular,same,swap,same,swap,red,"(177, 0, 0)",lowProb,lowProb3,circular,uniform,1,undefined,0,0.005208333,1,1,6.739583333,1,1,1294,0,0,0,0,0,0,0,0,26,0,1,0.005208333,6.739583333,1,1294,25,25,25,11/27/2018 10:14,Default description,yes,<openexp._canvas.legacy.legacy object at 0x30E36450>,<openexp._canvas.legacy.legacy object at 0x13DBCB10>,<openexp._canvas.legacy.legacy object at 0x13DD0C50>,<openexp._canvas.legacy.legacy object at 0x30E36A50>,<openexp._canvas.legacy.legacy object at 0x312ABE70>,<openexp._canvas.legacy.legacy object at 0x314BD8B0>,<openexp._canvas.legacy.legacy object at 0x31444EB0>,<openexp._canvas.legacy.legacy object at 0x134171F0>,75,SpatProbMultiple3.osexp,C:/Userdata/Michel/SpatProbMultiple3,no,mono,no,18,no,white,no,yes,0.09,98,1050,legacy,45,0,0,1,C:/Userdata/Michel/SpatProbMultiple3/subject-11.csv,legacy,9,192,25,Jazzy James,3.1.3,yes,598477b2b83f69022949e7e9,47,red,rectangular,red,circular,0,\,1294,space,23746,23746,"(80, 80, 80)","(0, 123, 0)","(177, 0, 0)","(155, 155, 155)",2,legacy,experiment,"[2, 3, 4, 5, 6, 7, 0, 1]",\,2500,3000,0,8,252.7587515,1024,2,48000,-16,main,"[(0, -252), (178, -178), (252, 0), (178, 178), (0, 252), (-178, 178), (-252, 0), (-178, -178)]",[],35,odd,5,NA,72614006,72676764,72676764,72493588,72492583,72339630,72527913,72527912,72339631,72339631,72517335,72684518,72339628,72676764,72683219,72677171,72677171,NA,993,study_X,0,23746,1,yes,1680
undefined,undefined,NA,NA,NA,23746,23746,black,no,legacy,legacy,legacy,0,green,"(0, 123, 0)",color,present,lowProb3,rectangular,swap,same,same,swap,red,"(177, 0, 0)",lowProb,lowProb6,rectangular,uniform,1,undefined,0,0.010416667,1,1,12.296875,1,2,2361,0,0,0,0,0,0,0,0,27,0,1,0.010416667,12.296875,2,2361,26,26,26,11/27/2018 10:14,Default description,yes,<openexp._canvas.legacy.legacy object at 0x30E36450>,<openexp._canvas.legacy.legacy object at 0x13DBCB10>,<openexp._canvas.legacy.legacy object at 0x13DD0C50>,<openexp._canvas.legacy.legacy object at 0x30E36A50>,<openexp._canvas.legacy.legacy object at 0x312ABE70>,<openexp._canvas.legacy.legacy object at 0x314BD8B0>,<openexp._canvas.legacy.legacy object at 0x13DD0970>,<openexp._canvas.legacy.legacy object at 0x134171F0>,75,SpatProbMultiple3.osexp,C:/Userdata/Michel/SpatProbMultiple3,no,mono,no,18,no,white,no,yes,0.09,98,1050,legacy,45,1,1,1,C:/Userdata/Michel/SpatProbMultiple3/subject-11.csv,legacy,9,192,25,Jazzy James,3.1.3,yes,598477b2b83f69022949e7e9,47,green,rectangular,red,rectangular,0,\,1067,space,23746,23746,"(80, 80, 80)","(0, 123, 0)","(177, 0, 0)","(155, 155, 155)",2,legacy,experiment,"[2, 3, 4, 5, 6, 7, 0, 1]",\,2500,3000,0,8,252.7587515,1024,2,48000,-16,main,"[(0, -252), (178, -178), (252, 0), (178, 178), (0, 252), (-178, 178), (-252, 0), (-178, -178)]",[],35,odd,1,NA,72614006,72676764,72676764,72493588,72492583,72339630,72527913,72527912,72339631,72339631,72517335,72687030,72339628,72676764,72685958,72684962,72684963,NA,993,study_X,0,23746,1,yes,1680
undefined,undefined,NA,NA,NA,23746,23746,black,no,legacy,legacy,legacy,0,red,"(177, 0, 0)",color,present,highProb,circular,swap,swap,swap,swap,green,"(0, 123, 0)",lowProb,lowProb6,circular,uniform,1,undefined,0,0.015625,1,1,17.07291667,1,3,3278,0,0,0,0,0,0,0,0,28,0,1,0.015625,17.07291667,3,3278,27,27,27,11/27/2018 10:14,Default description,yes,<openexp._canvas.legacy.legacy object at 0x30E36450>,<openexp._canvas.legacy.legacy object at 0x13DBCB10>,<openexp._canvas.legacy.legacy object at 0x13DD0C50>,<openexp._canvas.legacy.legacy object at 0x30E36A50>,<openexp._canvas.legacy.legacy object at 0x312ABE70>,<openexp._canvas.legacy.legacy object at 0x314BD8B0>,<openexp._canvas.legacy.legacy object at 0x13421570>,<openexp._canvas.legacy.legacy object at 0x134171F0>,75,SpatProbMultiple3.osexp,C:/Userdata/Michel/SpatProbMultiple3,no,mono,no,18,no,white,no,yes,0.09,98,1050,legacy,45,2,2,1,C:/Userdata/Michel/SpatProbMultiple3/subject-11.csv,legacy,9,192,25,Jazzy James,3.1.3,yes,598477b2b83f69022949e7e9,47,red,circular,green,circular,0,\,917,space,23746,23746,"(80, 80, 80)","(0, 123, 0)","(177, 0, 0)","(155, 155, 155)",2,legacy,experiment,"[2, 3, 4, 5, 6, 7, 0, 1]",\,2500,3000,0,8,252.7587515,1024,2,48000,-16,main,"[(0, -252), (178, -178), (252, 0), (178, 178), (0, 252), (-178, 178), (-252, 0), (-178, -178)]",[],35,odd,1,NA,72614006,72676764,72676764,72493588,72492583,72339630,72527913,72527912,72339631,72339631,72517335,72689381,72339628,72676764,72688460,72687464,72687465,NA,993,study_X,0,23746,1,yes,1680
undefined,undefined,NA,NA,NA,23746,23746,black,no,legacy,legacy,legacy,0,green,"(0, 123, 0)",color,present,highProb,rectangular,swap,swap,swap,swap,red,"(177, 0, 0)",lowProb,lowProb6,rectangular,uniform,1,undefined,0,0.020833333,1,1,21.91666667,1,4,4208,0,0,0,0,0,0,0,0,29,0,1,0.020833333,21.91666667,4,4208,28,28,28,11/27/2018 10:14,Default description,yes,<openexp._canvas.legacy.legacy object at 0x30E36450>,<openexp._canvas.legacy.legacy object at 0x13DBCB10>,<openexp._canvas.legacy.legacy object at 0x13DD0C50>,<openexp._canvas.legacy.legacy object at 0x30E36A50>,<openexp._canvas.legacy.legacy object at 0x312ABE70>,<openexp._canvas.legacy.legacy object at 0x314BD8B0>,<openexp._canvas.legacy.legacy object at 0x13418D30>,<openexp._canvas.legacy.legacy object at 0x134171F0>,75,SpatProbMultiple3.osexp,C:/Userdata/Michel/SpatProbMultiple3,no,mono,no,18,no,white,no,yes,0.09,98,1050,legacy,45,3,3,1,C:/Userdata/Michel/SpatProbMultiple3/subject-11.csv,legacy,9,192,25,Jazzy James,3.1.3,yes,598477b2b83f69022949e7e9,47,green,rectangular,red,rectangular,0,\,930,space,23746,23746,"(80, 80, 80)","(0, 123, 0)","(177, 0, 0)","(155, 155, 155)",2,legacy,experiment,"[2, 3, 4, 5, 6, 7, 0, 1]",\,2500,3000,0,8,252.7587515,1024,2,48000,-16,main,"[(0, -252), (178, -178), (252, 0), (178, 178), (0, 252), (-178, 178), (-252, 0), (-178, -178)]",[],35,odd,1,NA,72614006,72676764,72676764,72493588,72492583,72339630,72527913,72527912,72339631,72339631,72517335,72691741,72339628,72676764,72690807,72689811,72689811,NA,993,study_X,0,23746,1,yes,1680
undefined,undefined,NA,NA,NA,23746,23746,black,no,legacy,legacy,legacy,0,red,"(177, 0, 0)",shape,present,lowProb3,circular,swap,swap,same,same,red,"(177, 0, 0)",lowProb,lowProb6,rectangular,uniform,1,undefined,0,0.026041667,1,1,26.63020833,1,5,5113,0,0,0,0,0,0,0,0,30,0,1,0.026041667,26.63020833,5,5113,29,29,29,11/27/2018 10:14,Default description,yes,<openexp._canvas.legacy.legacy object at 0x30E36450>,<openexp._canvas.legacy.legacy object at 0x13DBCB10>,<openexp._canvas.legacy.legacy object at 0x13DD0C50>,<openexp._canvas.legacy.legacy object at 0x30E36A50>,<openexp._canvas.legacy.legacy object at 0x312ABE70>,<openexp._canvas.legacy.legacy object at 0x314BD8B0>,<openexp._canvas.legacy.legacy object at 0x13DBC730>,<openexp._canvas.legacy.legacy object at 0x134171F0>,75,SpatProbMultiple3.osexp,C:/Userdata/Michel/SpatProbMultiple3,no,mono,no,18,no,white,no,yes,0.09,98,1050,legacy,45,4,4,1,C:/Userdata/Michel/SpatProbMultiple3/subject-11.csv,legacy,9,192,25,Jazzy James,3.1.3,yes,598477b2b83f69022949e7e9,47,red,circular,red,rectangular,0,\,905,space,23746,23746,"(80, 80, 80)","(0, 123, 0)","(177, 0, 0)","(155, 155, 155)",2,legacy,experiment,"[2, 3, 4, 5, 6, 7, 0, 1]",\,2500,3000,0,8,252.7587515,1024,2,48000,-16,main,"[(0, -252), (178, -178), (252, 0), (178, 178), (0, 252), (-178, 178), (-252, 0), (-178, -178)]",[],35,odd,1,NA,72614006,72676764,72676764,72493588,72492583,72339630,72527913,72527912,72339631,72339631,72517335,72694101,72339628,72676764,72693192,72692196,72692197,NA,993,study_X,0,23746,1,yes,1680
undefined,undefined,NA,NA,NA,23746,23746,black,no,legacy,legacy,legacy,0,red,"(177, 0, 0)",shape,present,lowProb6,circular,same,same,same,same,red,"(177, 0, 0)",lowProb,lowProb1,rectangular,uniform,1,undefined,0,0.03125,1,1,35.13020833,1,6,6745,0,0,0,0,0,0,0,0,31,0,1,0.03125,35.13020833,6,6745,30,30,30,11/27/2018 10:14,Default description,yes,<openexp._canvas.legacy.legacy object at 0x30E36450>,<openexp._canvas.legacy.legacy object at 0x13DBCB10>,<openexp._canvas.legacy.legacy object at 0x13DD0C50>,<openexp._canvas.legacy.legacy object at 0x30E36A50>,<openexp._canvas.legacy.legacy object at 0x312ABE70>,<openexp._canvas.legacy.legacy object at 0x314BD8B0>,<openexp._canvas.legacy.legacy object at 0x309FBEB0>,<openexp._canvas.legacy.legacy object at 0x134171F0>,75,SpatProbMultiple3.osexp,C:/Userdata/Michel/SpatProbMultiple3,no,mono,no,18,no,white,no,yes,0.09,98,1050,legacy,315,5,5,1,C:/Userdata/Michel/SpatProbMultiple3/subject-11.csv,legacy,9,192,25,Jazzy James,3.1.3,yes,598477b2b83f69022949e7e9,47,red,circular,red,rectangular,0,/,1632,space,23746,23746,"(80, 80, 80)","(0, 123, 0)","(177, 0, 0)","(155, 155, 155)",2,legacy,experiment,"[2, 3, 4, 5, 6, 7, 0, 1]",/,2500,3000,0,8,252.7587515,1024,2,48000,-16,main,"[(0, -252), (178, -178), (252, 0), (178, 178), (0, 252), (-178, 178), (-252, 0), (-178, -178)]",[],35,odd,3,NA,72614006,72676764,72676764,72493588,72492583,72339630,72527913,72527912,72339631,72339631,72517335,72697149,72339628,72676764,72695514,72694517,72694517,NA,993,study_X,0,23746,1,yes,1680
undefined,undefined,NA,NA,NA,23746,23746,black,no,legacy,legacy,legacy,0,green,"(0, 123, 0)",color,present,highProb,rectangular,swap,swap,same,same,red,"(177, 0, 0)",highProbShape,highProbShape,rectangular,uniform,1,undefined,0,0.036458333,1,1,39.94270833,1,7,7669,0,0,0,0,0,0,0,0,32,0,1,0.036458333,39.94270833,7,7669,31,31,31,11/27/2018 10:14,Default description,yes,<openexp._canvas.legacy.legacy object at 0x30E36450>,<openexp._canvas.legacy.legacy object at 0x13DBCB10>,<openexp._canvas.legacy.legacy object at 0x13DD0C50>,<openexp._canvas.legacy.legacy object at 0x30E36A50>,<openexp._canvas.legacy.legacy object at 0x312ABE70>,<openexp._canvas.legacy.legacy object at 0x314BD8B0>,<openexp._canvas.legacy.legacy object at 0x13421730>,<openexp._canvas.legacy.legacy object at 0x134171F0>,75,SpatProbMultiple3.osexp,C:/Userdata/Michel/SpatProbMultiple3,no,mono,no,18,no,white,no,yes,0.09,98,1050,legacy,315,6,6,1,C:/Userdata/Michel/SpatProbMultiple3/subject-11.csv,legacy,9,192,25,Jazzy James,3.1.3,yes,598477b2b83f69022949e7e9,47,green,rectangular,red,rectangular,0,/,924,space,23746,23746,"(80, 80, 80)","(0, 123, 0)","(177, 0, 0)","(155, 155, 155)",2,legacy,experiment,"[2, 3, 4, 5, 6, 7, 0, 1]",/,2500,3000,0,8,252.7587515,1024,2,48000,-16,main,"[(0, -252), (178, -178), (252, 0), (178, 178), (0, 252), (-178, 178), (-252, 0), (-178, -178)]",[],35,odd,6,NA,72614006,72676764,72676764,72493588,72492583,72339630,72527913,72527912,72339631,72339631,72517335,72699501,72339628,72676764,72698572,72697576,72697577,NA,993,study_X,0,23746,1,yes,1680
undefined,undefined,NA,NA,NA,23746,23746,black,no,legacy,legacy,legacy,0,red,"(177, 0, 0)",color,present,highProb,circular,swap,swap,swap,swap,green,"(0, 123, 0)",lowProb,lowProb3,circular,uniform,1,undefined,0,0.041666667,1,1,50.96875,1,8,9786,0,0,0,0,0,0,0,0,33,0,1,0.041666667,50.96875,8,9786,32,32,32,11/27/2018 10:14,Default description,yes,<openexp._canvas.legacy.legacy object at 0x30E36450>,<openexp._canvas.legacy.legacy object at 0x13DBCB10>,<openexp._canvas.legacy.legacy object at 0x13DD0C50>,<openexp._canvas.legacy.legacy object at 0x30E36A50>,<openexp._canvas.legacy.legacy object at 0x312ABE70>,<openexp._canvas.legacy.legacy object at 0x314BD8B0>,<openexp._canvas.legacy.legacy object at 0x13550070>,<openexp._canvas.legacy.legacy object at 0x134171F0>,75,SpatProbMultiple3.osexp,C:/Userdata/Michel/SpatProbMultiple3,no,mono,no,18,no,white,no,yes,0.09,98,1050,legacy,315,7,7,1,C:/Userdata/Michel/SpatProbMultiple3/subject-11.csv,legacy,9,192,25,Jazzy James,3.1.3,yes,598477b2b83f69022949e7e9,47,red,circular,green,circular,0,/,2117,space,23746,23746,"(80, 80, 80)","(0, 123, 0)","(177, 0, 0)","(155, 155, 155)",2,legacy,experiment,"[2, 3, 4, 5, 6, 7, 0, 1]",/,2500,3000,0,8,252.7587515,1024,2,48000,-16,main,"[(0, -252), (178, -178), (252, 0), (178, 178), (0, 252), (-178, 178), (-252, 0), (-178, -178)]",[],35,odd,5,NA,72614006,72676764,72676764,72493588,72492583,72339630,72527913,72527912,72339631,72339631,72517335,72703053,72339628,72676764,72700932,72699936,72699936,NA,993,study_X,0,23746,1,yes,1680
undefined,undefined,NA,NA,NA,23746,23746,black,no,legacy,legacy,legacy,0,red,"(177, 0, 0)",color,present,highProb,circular,same,same,same,same,green,"(0, 123, 0)",lowProb,lowProb2,circular,uniform,1,undefined,0,0.046875,1,1,57.08854167,1,9,10961,0,0,0,0,0,0,0,0,34,0,1,0.046875,57.08854167,9,10961,33,33,33,11/27/2018 10:14,Default description,yes,<openexp._canvas.legacy.legacy object at 0x30E36450>,<openexp._canvas.legacy.legacy object at 0x13DBCB10>,<openexp._canvas.legacy.legacy object at 0x13DD0C50>,<openexp._canvas.legacy.legacy object at 0x30E36A50>,<openexp._canvas.legacy.legacy object at 0x312ABE70>,<openexp._canvas.legacy.legacy object at 0x314BD8B0>,<openexp._canvas.legacy.legacy object at 0x13DBCC90>,<openexp._canvas.legacy.legacy object at 0x134171F0>,75,SpatProbMultiple3.osexp,C:/Userdata/Michel/SpatProbMultiple3,no,mono,no,18,no,white,no,yes,0.09,98,1050,legacy,45,8,8,1,C:/Userdata/Michel/SpatProbMultiple3/subject-11.csv,legacy,9,192,25,Jazzy James,3.1.3,yes,598477b2b83f69022949e7e9,47,red,circular,green,circular,0,\,1175,space,23746,23746,"(80, 80, 80)","(0, 123, 0)","(177, 0, 0)","(155, 155, 155)",2,legacy,experiment,"[2, 3, 4, 5, 6, 7, 0, 1]",\,2500,3000,0,8,252.7587515,1024,2,48000,-16,main,"[(0, -252), (178, -178), (252, 0), (178, 178), (0, 252), (-178, 178), (-252, 0), (-178, -178)]",[],35,odd,4,NA,72614006,72676764,72676764,72493588,72492583,72339630,72527913,72527912,72339631,72339631,72517335,72705653,72339628,72676764,72704474,72703478,72703479,NA,993,study_X,0,23746,1,yes,1680
undefined,undefined,NA,NA,NA,23746,23746,black,no,legacy,legacy,legacy,0,red,"(177, 0, 0)",shape,present,lowProb1,circular,same,same,swap,swap,red,"(177, 0, 0)",lowProb,lowProb5,rectangular,uniform,1,undefined,0,0.052083333,1,1,67.140625,1,10,12891,0,0,0,0,0,0,0,0,35,0,1,0.052083333,67.140625,10,12891,34,34,34,11/27/2018 10:14,Default description,yes,<openexp._canvas.legacy.legacy object at 0x30E36450>,<openexp._canvas.legacy.legacy object at 0x13DBCB10>,<openexp._canvas.legacy.legacy object at 0x13DD0C50>,<openexp._canvas.legacy.legacy object at 0x30E36A50>,<openexp._canvas.legacy.legacy object at 0x312ABE70>,<openexp._canvas.legacy.legacy object at 0x314BD8B0>,<openexp._canvas.legacy.legacy object at 0x309FB730>,<openexp._canvas.legacy.legacy object at 0x134171F0>,75,SpatProbMultiple3.osexp,C:/Userdata/Michel/SpatProbMultiple3,no,mono,no,18,no,white,no,yes,0.09,98,1050,legacy,315,9,9,1,C:/Userdata/Michel/SpatProbMultiple3/subject-11.csv,legacy,9,192,25,Jazzy James,3.1.3,yes,598477b2b83f69022949e7e9,47,red,circular,red,rectangular,0,/,1930,space,23746,23746,"(80, 80, 80)","(0, 123, 0)","(177, 0, 0)","(155, 155, 155)",2,legacy,experiment,"[2, 3, 4, 5, 6, 7, 0, 1]",/,2500,3000,0,8,252.7587515,1024,2,48000,-16,main,"[(0, -252), (178, -178), (252, 0), (178, 178), (0, 252), (-178, 178), (-252, 0), (-178, -178)]",[],35,odd,0,NA,72614006,72676764,72676764,72493588,72492583,72339630,72527913,72527912,72339631,72339631,72517335,72709013,72339628,72676764,72707079,72706083,72706083,NA,993,study_X,0,23746,1,yes,1680
undefined,undefined,NA,NA,NA,23746,23746,black,no,legacy,legacy,legacy,0,red,"(177, 0, 0)",shape,present,highProb,circular,same,same,same,same,red,"(177, 0, 0)",lowProb,lowProb5,rectangular,uniform,1,undefined,0,0.057291667,1,1,71.22395833,1,11,13675,0,0,0,0,0,0,0,0,36,0,1,0.057291667,71.22395833,11,13675,35,35,35,11/27/2018 10:14,Default description,yes,<openexp._canvas.legacy.legacy object at 0x30E36450>,<openexp._canvas.legacy.legacy object at 0x13DBCB10>,<openexp._canvas.legacy.legacy object at 0x13DD0C50>,<openexp._canvas.legacy.legacy object at 0x30E36A50>,<openexp._canvas.legacy.legacy object at 0x312ABE70>,<openexp._canvas.legacy.legacy object at 0x314BD8B0>,<openexp._canvas.legacy.legacy object at 0x13421110>,<openexp._canvas.legacy.legacy object at 0x134171F0>,75,SpatProbMultiple3.osexp,C:/Userdata/Michel/SpatProbMultiple3,no,mono,no,18,no,white,no,yes,0.09,98,1050,legacy,315,10,10,1,C:/Userdata/Michel/SpatProbMultiple3/subject-11.csv,legacy,9,192,25,Jazzy James,3.1.3,yes,598477b2b83f69022949e7e9,47,red,circular,red,rectangular,0,/,784,space,23746,23746,"(80, 80, 80)","(0, 123, 0)","(177, 0, 0)","(155, 155, 155)",2,legacy,experiment,"[2, 3, 4, 5, 6, 7, 0, 1]",/,2500,3000,0,8,252.7587515,1024,2,48000,-16,main,"[(0, -252), (178, -178), (252, 0), (178, 178), (0, 252), (-178, 178), (-252, 0), (-178, -178)]",[],35,odd,0,NA,72614006,72676764,72676764,72493588,72492583,72339630,72527913,72527912,72339631,72339631,72517335,72711221,72339628,72676764,72710433,72709437,72709438,NA,993,study_X,0,23746,1,yes,1680
undefined,undefined,NA,NA,NA,23746,23746,black,no,legacy,legacy,legacy,0,green,"(0, 123, 0)",shape,present,highProb,circular,swap,same,swap,same,green,"(0, 123, 0)",lowProb,lowProb5,rectangular,uniform,1,undefined,0,0.0625,1,1,75.97916667,1,12,14588,0,0,0,0,0,0,0,0,37,0,1,0.0625,75.97916667,12,14588,36,36,36,11/27/2018 10:14,Default description,yes,<openexp._canvas.legacy.legacy object at 0x30E36450>,<openexp._canvas.legacy.legacy object at 0x13DBCB10>,<openexp._canvas.legacy.legacy object at 0x13DD0C50>,<openexp._canvas.legacy.legacy object at 0x30E36A50>,<openexp._canvas.legacy.legacy object at 0x312ABE70>,<openexp._canvas.legacy.legacy object at 0x314BD8B0>,<openexp._canvas.legacy.legacy object at 0x309FBA50>,<openexp._canvas.legacy.legacy object at 0x134171F0>,75,SpatProbMultiple3.osexp,C:/Userdata/Michel/SpatProbMultiple3,no,mono,no,18,no,white,no,yes,0.09,98,1050,legacy,315,11,11,1,C:/Userdata/Michel/SpatProbMultiple3/subject-11.csv,legacy,9,192,25,Jazzy James,3.1.3,yes,598477b2b83f69022949e7e9,47,green,circular,green,rectangular,0,/,913,space,23746,23746,"(80, 80, 80)","(0, 123, 0)","(177, 0, 0)","(155, 155, 155)",2,legacy,experiment,"[2, 3, 4, 5, 6, 7, 0, 1]",/,2500,3000,0,8,252.7587515,1024,2,48000,-16,main,"[(0, -252), (178, -178), (252, 0), (178, 178), (0, 252), (-178, 178), (-252, 0), (-178, -178)]",[],35,odd,0,NA,72614006,72676764,72676764,72493588,72492583,72339630,72527913,72527912,72339631,72339631,72517335,72713581,72339628,72676764,72712663,72711667,72711668,NA,993,study_X,0,23746,1,yes,1680
undefined,undefined,NA,NA,NA,23746,23746,black,no,legacy,legacy,legacy,0,green,"(0, 123, 0)",color,present,highProb,circular,same,same,swap,swap,red,"(177, 0, 0)",highProbShape,highProbShape,circular,uniform,1,undefined,0,0.067708333,1,1,86.546875,1,13,16617,0,0,0,0,0,0,0,0,38,0,1,0.067708333,86.546875,13,16617,37,37,37,11/27/2018 10:14,Default description,yes,<openexp._canvas.legacy.legacy object at 0x30E36450>,<openexp._canvas.legacy.legacy object at 0x13DBCB10>,<openexp._canvas.legacy.legacy object at 0x13DD0C50>,<openexp._canvas.legacy.legacy object at 0x30E36A50>,<openexp._canvas.legacy.legacy object at 0x312ABE70>,<openexp._canvas.legacy.legacy object at 0x314BD8B0>,<openexp._canvas.legacy.legacy object at 0x314B5150>,<openexp._canvas.legacy.legacy object at 0x134171F0>,75,SpatProbMultiple3.osexp,C:/Userdata/Michel/SpatProbMultiple3,no,mono,no,18,no,white,no,yes,0.09,98,1050,legacy,315,12,12,1,C:/Userdata/Michel/SpatProbMultiple3/subject-11.csv,legacy,9,192,25,Jazzy James,3.1.3,yes,598477b2b83f69022949e7e9,47,green,circular,red,circular,0,/,2029,space,23746,23746,"(80, 80, 80)","(0, 123, 0)","(177, 0, 0)","(155, 155, 155)",2,legacy,experiment,"[2, 3, 4, 5, 6, 7, 0, 1]",/,2500,3000,0,8,252.7587515,1024,2,48000,-16,main,"[(0, -252), (178, -178), (252, 0), (178, 178), (0, 252), (-178, 178), (-252, 0), (-178, -178)]",[],35,odd,6,NA,72614006,72676764,72676764,72493588,72492583,72339630,72527913,72527912,72339631,72339631,72517335,72717053,72339628,72676764,72715019,72714023,72714024,NA,993,study_X,0,23746,1,yes,1680
undefined,undefined,NA,NA,NA,23746,23746,black,no,legacy,legacy,legacy,0,red,"(177, 0, 0)",shape,present,lowProb3,rectangular,swap,swap,same,same,red,"(177, 0, 0)",lowProb,lowProb4,circular,uniform,1,undefined,0,0.072916667,1,1,95.75,1,14,18384,0,0,0,0,0,0,0,0,39,0,1,0.072916667,95.75,14,18384,38,38,38,11/27/2018 10:14,Default description,yes,<openexp._canvas.legacy.legacy object at 0x30E36450>,<openexp._canvas.legacy.legacy object at 0x13DBCB10>,<openexp._canvas.legacy.legacy object at 0x13DD0C50>,<openexp._canvas.legacy.legacy object at 0x30E36A50>,<openexp._canvas.legacy.legacy object at 0x312ABE70>,<openexp._canvas.legacy.legacy object at 0x314BD8B0>,<openexp._canvas.legacy.legacy object at 0x13DBCD70>,<openexp._canvas.legacy.legacy object at 0x134171F0>,75,SpatProbMultiple3.osexp,C:/Userdata/Michel/SpatProbMultiple3,no,mono,no,18,no,white,no,yes,0.09,98,1050,legacy,45,13,13,1,C:/Userdata/Michel/SpatProbMultiple3/subject-11.csv,legacy,9,192,25,Jazzy James,3.1.3,yes,598477b2b83f69022949e7e9,47,red,rectangular,red,circular,0,\,1767,space,23746,23746,"(80, 80, 80)","(0, 123, 0)","(177, 0, 0)","(155, 155, 155)",2,legacy,experiment,"[2, 3, 4, 5, 6, 7, 0, 1]",\,2500,3000,0,8,252.7587515,1024,2,48000,-16,main,"[(0, -252), (178, -178), (252, 0), (178, 178), (0, 252), (-178, 178), (-252, 0), (-178, -178)]",[],35,odd,7,NA,72614006,72676764,72676764,72493588,72492583,72339630,72527913,72527912,72339631,72339631,72517335,72720261,72339628,72676764,72718491,72717494,72717494,NA,993,study_X,0,23746,1,yes,1680
undefined,undefined,NA,NA,NA,23746,23746,black,no,legacy,legacy,legacy,0,green,"(0, 123, 0)",shape,present,highProb,rectangular,swap,same,swap,same,green,"(0, 123, 0)",highProbColor,highProbColor,circular,uniform,0,undefined,0,0.072916667,1,1,108.7708333,1,14,20884,0,0,0,0,0,0,0,0,40,0,1,0.072916667,108.7708333,14,20884,39,39,39,11/27/2018 10:14,Default description,yes,<openexp._canvas.legacy.legacy object at 0x30E36450>,<openexp._canvas.legacy.legacy object at 0x13DBCB10>,<openexp._canvas.legacy.legacy object at 0x13DD0C50>,<openexp._canvas.legacy.legacy object at 0x30E36A50>,<openexp._canvas.legacy.legacy object at 0x312ABE70>,<openexp._canvas.legacy.legacy object at 0x314BD8B0>,<openexp._canvas.legacy.legacy object at 0x13564C30>,<openexp._canvas.legacy.legacy object at 0x134171F0>,75,SpatProbMultiple3.osexp,C:/Userdata/Michel/SpatProbMultiple3,no,mono,no,18,no,white,no,yes,0.09,98,1050,legacy,45,14,14,1,C:/Userdata/Michel/SpatProbMultiple3/subject-11.csv,legacy,9,192,25,Jazzy James,3.1.3,yes,598477b2b83f69022949e7e9,47,green,rectangular,green,circular,0,None,2500,space,23746,23746,"(80, 80, 80)","(0, 123, 0)","(177, 0, 0)","(155, 155, 155)",2,legacy,experiment,"[2, 3, 4, 5, 6, 7, 0, 1]",\,2500,3000,0,8,252.7587515,1024,2,48000,-16,main,"[(0, -252), (178, -178), (252, 0), (178, 178), (0, 252), (-178, 178), (-252, 0), (-178, -178)]",[],35,odd,2,NA,72614006,72676764,72676764,72493588,72492583,72339630,72527913,72527912,72339631,72339631,72517335,72724193,72339628,72676764,72721689,72720693,72720694,NA,993,study_X,0,23746,1,yes,1680
undefined,undefined,NA,NA,NA,23746,23746,black,no,legacy,legacy,legacy,0,green,"(0, 123, 0)",color,present,highProb,rectangular,same,same,swap,swap,red,"(177, 0, 0)",highProbShape,highProbShape,rectangular,uniform,1,undefined,0,0.078125,1,1,114.3072917,1,15,21947,0,0,0,0,0,0,0,0,41,0,1,0.078125,114.3072917,15,21947,40,40,40,11/27/2018 10:14,Default description,yes,<openexp._canvas.legacy.legacy object at 0x30E36450>,<openexp._canvas.legacy.legacy object at 0x13DBCB10>,<openexp._canvas.legacy.legacy object at 0x13DD0C50>,<openexp._canvas.legacy.legacy object at 0x30E36A50>,<openexp._canvas.legacy.legacy object at 0x312ABE70>,<openexp._canvas.legacy.legacy object at 0x314BD8B0>,<openexp._canvas.legacy.legacy object at 0x13549FF0>,<openexp._canvas.legacy.legacy object at 0x134171F0>,75,SpatProbMultiple3.osexp,C:/Userdata/Michel/SpatProbMultiple3,no,mono,no,18,no,white,no,yes,0.09,98,1050,legacy,45,15,15,1,C:/Userdata/Michel/SpatProbMultiple3/subject-11.csv,legacy,9,192,25,Jazzy James,3.1.3,yes,598477b2b83f69022949e7e9,47,green,rectangular,red,rectangular,0,\,1063,space,23746,23746,"(80, 80, 80)","(0, 123, 0)","(177, 0, 0)","(155, 155, 155)",2,legacy,experiment,"[2, 3, 4, 5, 6, 7, 0, 1]",\,2500,3000,0,8,252.7587515,1024,2,48000,-16,main,"[(0, -252), (178, -178), (252, 0), (178, 178), (0, 252), (-178, 178), (-252, 0), (-178, -178)]",[],35,odd,6,NA,72614006,72676764,72676764,72493588,72492583,72339630,72527913,72527912,72339631,72339631,72517335,72726677,72339628,72676764,72725610,72724614,72724615,NA,993,study_X,0,23746,1,yes,1680
undefined,undefined,NA,NA,NA,23746,23746,black,no,legacy,legacy,legacy,0,red,"(177, 0, 0)",shape,absent,lowProb3,circular,swap,swap,same,swap,red,"(177, 0, 0)",lowProb,lowProb5,circular,uniform,1,undefined,0,0.083333333,1,1,119.1770833,1,16,22882,0,0,0,0,0,0,0,0,42,0,1,0.083333333,119.1770833,16,22882,41,41,41,11/27/2018 10:14,Default description,yes,<openexp._canvas.legacy.legacy object at 0x30E36450>,<openexp._canvas.legacy.legacy object at 0x13DBCB10>,<openexp._canvas.legacy.legacy object at 0x13DD0C50>,<openexp._canvas.legacy.legacy object at 0x30E36A50>,<openexp._canvas.legacy.legacy object at 0x312ABE70>,<openexp._canvas.legacy.legacy object at 0x314BD8B0>,<openexp._canvas.legacy.legacy object at 0x13418550>,<openexp._canvas.legacy.legacy object at 0x134171F0>,75,SpatProbMultiple3.osexp,C:/Userdata/Michel/SpatProbMultiple3,no,mono,no,18,no,white,no,yes,0.09,98,1050,legacy,315,16,16,1,C:/Userdata/Michel/SpatProbMultiple3/subject-11.csv,legacy,9,192,25,Jazzy James,3.1.3,yes,598477b2b83f69022949e7e9,47,red,circular,red,circular,0,/,935,space,23746,23746,"(80, 80, 80)","(0, 123, 0)","(177, 0, 0)","(155, 155, 155)",2,legacy,experiment,"[2, 3, 4, 5, 6, 7, 0, 1]",/,2500,3000,0,8,252.7587515,1024,2,48000,-16,main,"[(0, -252), (178, -178), (252, 0), (178, 178), (0, 252), (-178, 178), (-252, 0), (-178, -178)]",[],35,odd,0,NA,72614006,72676764,72676764,72493588,72492583,72339630,72527913,72527912,72339631,72339631,72517335,72729053,72339628,72676764,72728114,72727118,72727119,NA,993,study_X,0,23746,1,yes,1680
undefined,undefined,NA,NA,NA,23746,23746,black,no,legacy,legacy,legacy,0,green,"(0, 123, 0)",color,present,lowProb3,rectangular,swap,swap,same,swap,red,"(177, 0, 0)",lowProb,lowProb5,rectangular,uniform,1,undefined,0,0.088541667,1,1,123.90625,1,17,23790,0,0,0,0,0,0,0,0,43,0,1,0.088541667,123.90625,17,23790,42,42,42,11/27/2018 10:14,Default description,yes,<openexp._canvas.legacy.legacy object at 0x30E36450>,<openexp._canvas.legacy.legacy object at 0x13DBCB10>,<openexp._canvas.legacy.legacy object at 0x13DD0C50>,<openexp._canvas.legacy.legacy object at 0x30E36A50>,<openexp._canvas.legacy.legacy object at 0x312ABE70>,<openexp._canvas.legacy.legacy object at 0x314BD8B0>,<openexp._canvas.legacy.legacy object at 0x314B5D30>,<openexp._canvas.legacy.legacy object at 0x134171F0>,75,SpatProbMultiple3.osexp,C:/Userdata/Michel/SpatProbMultiple3,no,mono,no,18,no,white,no,yes,0.09,98,1050,legacy,45,17,17,1,C:/Userdata/Michel/SpatProbMultiple3/subject-11.csv,legacy,9,192,25,Jazzy James,3.1.3,yes,598477b2b83f69022949e7e9,47,green,rectangular,red,rectangular,0,\,908,space,23746,23746,"(80, 80, 80)","(0, 123, 0)","(177, 0, 0)","(155, 155, 155)",2,legacy,experiment,"[2, 3, 4, 5, 6, 7, 0, 1]",\,2500,3000,0,8,252.7587515,1024,2,48000,-16,main,"[(0, -252), (178, -178), (252, 0), (178, 178), (0, 252), (-178, 178), (-252, 0), (-178, -178)]",[],35,odd,0,NA,72614006,72676764,72676764,72493588,72492583,72339630,72527913,72527912,72339631,72339631,72517335,72731421,72339628,72676764,72730508,72729512,72729513,NA,993,study_X,0,23746,1,yes,1680
undefined,undefined,NA,NA,NA,23746,23746,black,no,legacy,legacy,legacy,0,red,"(177, 0, 0)",color,present,highProb,rectangular,swap,same,swap,same,green,"(0, 123, 0)",lowProb,lowProb6,rectangular,uniform,1,undefined,0,0.09375,1,1,130.40625,1,18,25038,0,0,0,0,0,0,0,0,44,0,1,0.09375,130.40625,18,25038,43,43,43,11/27/2018 10:14,Default description,yes,<openexp._canvas.legacy.legacy object at 0x30E36450>,<openexp._canvas.legacy.legacy object at 0x13DBCB10>,<openexp._canvas.legacy.legacy object at 0x13DD0C50>,<openexp._canvas.legacy.legacy object at 0x30E36A50>,<openexp._canvas.legacy.legacy object at 0x312ABE70>,<openexp._canvas.legacy.legacy object at 0x314BD8B0>,<openexp._canvas.legacy.legacy object at 0x309FF410>,<openexp._canvas.legacy.legacy object at 0x134171F0>,75,SpatProbMultiple3.osexp,C:/Userdata/Michel/SpatProbMultiple3,no,mono,no,18,no,white,no,yes,0.09,98,1050,legacy,45,18,18,1,C:/Userdata/Michel/SpatProbMultiple3/subject-11.csv,legacy,9,192,25,Jazzy James,3.1.3,yes,598477b2b83f69022949e7e9,47,red,rectangular,green,rectangular,0,\,1248,space,23746,23746,"(80, 80, 80)","(0, 123, 0)","(177, 0, 0)","(155, 155, 155)",2,legacy,experiment,"[2, 3, 4, 5, 6, 7, 0, 1]",\,2500,3000,0,8,252.7587515,1024,2,48000,-16,main,"[(0, -252), (178, -178), (252, 0), (178, 178), (0, 252), (-178, 178), (-252, 0), (-178, -178)]",[],35,odd,1,NA,72614006,72676764,72676764,72493588,72492583,72339630,72527913,72527912,72339631,72339631,72517335,72734093,72339628,72676764,72732840,72731844,72731844,NA,993,study_X,0,23746,1,yes,1680
undefined,undefined,NA,NA,NA,23746,23746,black,no,legacy,legacy,legacy,0,green,"(0, 123, 0)",shape,present,lowProb4,rectangular,swap,same,same,swap,green,"(0, 123, 0)",lowProb,lowProb3,circular,uniform,1,undefined,0,0.098958333,1,1,141.9322917,1,19,27251,0,0,0,0,0,0,0,0,45,0,1,0.098958333,141.9322917,19,27251,44,44,44,11/27/2018 10:14,Default description,yes,<openexp._canvas.legacy.legacy object at 0x30E36450>,<openexp._canvas.legacy.legacy object at 0x13DBCB10>,<openexp._canvas.legacy.legacy object at 0x13DD0C50>,<openexp._canvas.legacy.legacy object at 0x30E36A50>,<openexp._canvas.legacy.legacy object at 0x312ABE70>,<openexp._canvas.legacy.legacy object at 0x314BD8B0>,<openexp._canvas.legacy.legacy object at 0x30E369D0>,<openexp._canvas.legacy.legacy object at 0x134171F0>,75,SpatProbMultiple3.osexp,C:/Userdata/Michel/SpatProbMultiple3,no,mono,no,18,no,white,no,yes,0.09,98,1050,legacy,45,19,19,1,C:/Userdata/Michel/SpatProbMultiple3/subject-11.csv,legacy,9,192,25,Jazzy James,3.1.3,yes,598477b2b83f69022949e7e9,47,green,rectangular,green,circular,0,\,2213,space,23746,23746,"(80, 80, 80)","(0, 123, 0)","(177, 0, 0)","(155, 155, 155)",2,legacy,experiment,"[2, 3, 4, 5, 6, 7, 0, 1]",\,2500,3000,0,8,252.7587515,1024,2,48000,-16,main,"[(0, -252), (178, -178), (252, 0), (178, 178), (0, 252), (-178, 178), (-252, 0), (-178, -178)]",[],35,odd,5,NA,72614006,72676764,72676764,72493588,72492583,72339630,72527913,72527912,72339631,72339631,72517335,72737734,72339628,72676764,72735516,72734521,72734521,NA,993,study_X,0,23746,1,yes,1680
undefined,undefined,NA,NA,NA,23746,23746,black,no,legacy,legacy,legacy,0,green,"(0, 123, 0)",color,present,highProb,rectangular,same,same,swap,swap,red,"(177, 0, 0)",lowProb,lowProb5,rectangular,uniform,0,undefined,0,0.098958333,1,1,154.953125,1,19,29751,0,0,0,0,0,0,0,0,46,0,1,0.098958333,154.953125,19,29751,45,45,45,11/27/2018 10:14,Default description,yes,<openexp._canvas.legacy.legacy object at 0x30E36450>,<openexp._canvas.legacy.legacy object at 0x13DBCB10>,<openexp._canvas.legacy.legacy object at 0x13DD0C50>,<openexp._canvas.legacy.legacy object at 0x30E36A50>,<openexp._canvas.legacy.legacy object at 0x312ABE70>,<openexp._canvas.legacy.legacy object at 0x314BD8B0>,<openexp._canvas.legacy.legacy object at 0x13DBCC30>,<openexp._canvas.legacy.legacy object at 0x134171F0>,75,SpatProbMultiple3.osexp,C:/Userdata/Michel/SpatProbMultiple3,no,mono,no,18,no,white,no,yes,0.09,98,1050,legacy,45,20,20,1,C:/Userdata/Michel/SpatProbMultiple3/subject-11.csv,legacy,9,192,25,Jazzy James,3.1.3,yes,598477b2b83f69022949e7e9,47,green,rectangular,red,rectangular,0,None,2500,space,23746,23746,"(80, 80, 80)","(0, 123, 0)","(177, 0, 0)","(155, 155, 155)",2,legacy,experiment,"[2, 3, 4, 5, 6, 7, 0, 1]",\,2500,3000,0,8,252.7587515,1024,2,48000,-16,main,"[(0, -252), (178, -178), (252, 0), (178, 178), (0, 252), (-178, 178), (-252, 0), (-178, -178)]",[],35,odd,0,NA,72614006,72676764,72676764,72493588,72492583,72339630,72527913,72527912,72339631,72339631,72517335,72741664,72339628,72676764,72739160,72738164,72738165,NA,993,study_X,0,23746,1,yes,1680
undefined,undefined,NA,NA,NA,23746,23746,black,no,legacy,legacy,legacy,0,red,"(177, 0, 0)",color,present,highProb,circular,swap,swap,swap,swap,green,"(0, 123, 0)",lowProb,lowProb2,circular,uniform,1,undefined,0,0.104166667,1,1,162.6510417,1,20,31229,0,0,0,0,0,0,0,0,47,0,1,0.104166667,162.6510417,20,31229,46,46,46,11/27/2018 10:14,Default description,yes,<openexp._canvas.legacy.legacy object at 0x30E36450>,<openexp._canvas.legacy.legacy object at 0x13DBCB10>,<openexp._canvas.legacy.legacy object at 0x13DD0C50>,<openexp._canvas.legacy.legacy object at 0x30E36A50>,<openexp._canvas.legacy.legacy object at 0x312ABE70>,<openexp._canvas.legacy.legacy object at 0x314BD8B0>,<openexp._canvas.legacy.legacy object at 0x314B5B30>,<openexp._canvas.legacy.legacy object at 0x134171F0>,75,SpatProbMultiple3.osexp,C:/Userdata/Michel/SpatProbMultiple3,no,mono,no,18,no,white,no,yes,0.09,98,1050,legacy,315,21,21,1,C:/Userdata/Michel/SpatProbMultiple3/subject-11.csv,legacy,9,192,25,Jazzy James,3.1.3,yes,598477b2b83f69022949e7e9,47,red,circular,green,circular,0,/,1478,space,23746,23746,"(80, 80, 80)","(0, 123, 0)","(177, 0, 0)","(155, 155, 155)",2,legacy,experiment,"[2, 3, 4, 5, 6, 7, 0, 1]",/,2500,3000,0,8,252.7587515,1024,2,48000,-16,main,"[(0, -252), (178, -178), (252, 0), (178, 178), (0, 252), (-178, 178), (-252, 0), (-178, -178)]",[],35,odd,4,NA,72614006,72676764,72676764,72493588,72492583,72339630,72527913,72527912,72339631,72339631,72517335,72744573,72339628,72676764,72743090,72742094,72742094,NA,993,study_X,0,23746,1,yes,1680
undefined,undefined,NA,NA,NA,23746,23746,black,no,legacy,legacy,legacy,0,red,"(177, 0, 0)",shape,present,highProbOther,rectangular,same,swap,swap,same,red,"(177, 0, 0)",highProbShape,highProbShape,circular,uniform,1,undefined,0,0.109375,1,1,173.5364583,1,21,33319,0,0,0,0,0,0,0,0,48,0,1,0.109375,173.5364583,21,33319,47,47,47,11/27/2018 10:14,Default description,yes,<openexp._canvas.legacy.legacy object at 0x30E36450>,<openexp._canvas.legacy.legacy object at 0x13DBCB10>,<openexp._canvas.legacy.legacy object at 0x13DD0C50>,<openexp._canvas.legacy.legacy object at 0x30E36A50>,<openexp._canvas.legacy.legacy object at 0x312ABE70>,<openexp._canvas.legacy.legacy object at 0x314BD8B0>,<openexp._canvas.legacy.legacy object at 0x31444CB0>,<openexp._canvas.legacy.legacy object at 0x134171F0>,75,SpatProbMultiple3.osexp,C:/Userdata/Michel/SpatProbMultiple3,no,mono,no,18,no,white,no,yes,0.09,98,1050,legacy,315,22,22,1,C:/Userdata/Michel/SpatProbMultiple3/subject-11.csv,legacy,9,192,25,Jazzy James,3.1.3,yes,598477b2b83f69022949e7e9,47,red,rectangular,red,circular,0,/,2090,space,23746,23746,"(80, 80, 80)","(0, 123, 0)","(177, 0, 0)","(155, 155, 155)",2,legacy,experiment,"[2, 3, 4, 5, 6, 7, 0, 1]",/,2500,3000,0,8,252.7587515,1024,2,48000,-16,main,"[(0, -252), (178, -178), (252, 0), (178, 178), (0, 252), (-178, 178), (-252, 0), (-178, -178)]",[],35,odd,6,NA,72614006,72676764,72676764,72493588,72492583,72339630,72527913,72527912,72339631,72339631,72517335,72748093,72339628,72676764,72745999,72745003,72745003,NA,993,study_X,0,23746,1,yes,1680
undefined,undefined,NA,NA,NA,23746,23746,black,no,legacy,legacy,legacy,0,green,"(0, 123, 0)",shape,present,lowProb3,rectangular,swap,same,swap,same,green,"(0, 123, 0)",lowProb,lowProb2,circular,uniform,1,undefined,0,0.114583333,1,1,185.0677083,1,22,35533,0,0,0,0,0,0,0,0,49,0,1,0.114583333,185.0677083,22,35533,48,48,48,11/27/2018 10:14,Default description,yes,<openexp._canvas.legacy.legacy object at 0x30E36450>,<openexp._canvas.legacy.legacy object at 0x13DBCB10>,<openexp._canvas.legacy.legacy object at 0x13DD0C50>,<openexp._canvas.legacy.legacy object at 0x30E36A50>,<openexp._canvas.legacy.legacy object at 0x312ABE70>,<openexp._canvas.legacy.legacy object at 0x314BD8B0>,<openexp._canvas.legacy.legacy object at 0x30E36410>,<openexp._canvas.legacy.legacy object at 0x134171F0>,75,SpatProbMultiple3.osexp,C:/Userdata/Michel/SpatProbMultiple3,no,mono,no,18,no,white,no,yes,0.09,98,1050,legacy,315,23,23,1,C:/Userdata/Michel/SpatProbMultiple3/subject-11.csv,legacy,9,192,25,Jazzy James,3.1.3,yes,598477b2b83f69022949e7e9,47,green,rectangular,green,circular,0,/,2214,space,23746,23746,"(80, 80, 80)","(0, 123, 0)","(177, 0, 0)","(155, 155, 155)",2,legacy,experiment,"[2, 3, 4, 5, 6, 7, 0, 1]",/,2500,3000,0,8,252.7587515,1024,2,48000,-16,main,"[(0, -252), (178, -178), (252, 0), (178, 178), (0, 252), (-178, 178), (-252, 0), (-178, -178)]",[],35,odd,4,NA,72614006,72676764,72676764,72493588,72492583,72339630,72527913,72527912,72339631,72339631,72517335,72751733,72339628,72676764,72749515,72748518,72748519,NA,993,study_X,0,23746,1,yes,1680
undefined,undefined,NA,NA,NA,23746,23746,black,no,legacy,legacy,legacy,0,green,"(0, 123, 0)",color,absent,lowProb1,rectangular,same,same,same,swap,green,"(0, 123, 0)",lowProb,lowProb5,rectangular,uniform,1,undefined,0,0.119791667,1,1,190.6302083,1,23,36601,0,0,0,0,0,0,0,0,50,0,1,0.119791667,190.6302083,23,36601,49,49,49,11/27/2018 10:14,Default description,yes,<openexp._canvas.legacy.legacy object at 0x30E36450>,<openexp._canvas.legacy.legacy object at 0x13DBCB10>,<openexp._canvas.legacy.legacy object at 0x13DD0C50>,<openexp._canvas.legacy.legacy object at 0x30E36A50>,<openexp._canvas.legacy.legacy object at 0x312ABE70>,<openexp._canvas.legacy.legacy object at 0x314BD8B0>,<openexp._canvas.legacy.legacy object at 0x134372F0>,<openexp._canvas.legacy.legacy object at 0x134171F0>,75,SpatProbMultiple3.osexp,C:/Userdata/Michel/SpatProbMultiple3,no,mono,no,18,no,white,no,yes,0.09,98,1050,legacy,315,24,24,1,C:/Userdata/Michel/SpatProbMultiple3/subject-11.csv,legacy,9,192,25,Jazzy James,3.1.3,yes,598477b2b83f69022949e7e9,47,green,rectangular,green,rectangular,0,/,1068,space,23746,23746,"(80, 80, 80)","(0, 123, 0)","(177, 0, 0)","(155, 155, 155)",2,legacy,experiment,"[2, 3, 4, 5, 6, 7, 0, 1]",/,2500,3000,0,8,252.7587515,1024,2,48000,-16,main,"[(0, -252), (178, -178), (252, 0), (178, 178), (0, 252), (-178, 178), (-252, 0), (-178, -178)]",[],35,odd,0,NA,72614006,72676764,72676764,72493588,72492583,72339630,72527913,72527912,72339631,72339631,72517335,72754221,72339628,72676764,72753149,72752153,72752154,NA,993,study_X,0,23746,1,yes,1680
undefined,undefined,NA,NA,NA,23746,23746,black,no,legacy,legacy,legacy,0,green,"(0, 123, 0)",shape,present,lowProb5,circular,same,swap,same,same,green,"(0, 123, 0)",lowProb,lowProb2,rectangular,uniform,1,undefined,0,0.125,1,1,201.1927083,1,24,38629,0,0,0,0,0,0,0,0,51,0,1,0.125,201.1927083,24,38629,50,50,50,11/27/2018 10:14,Default description,yes,<openexp._canvas.legacy.legacy object at 0x30E36450>,<openexp._canvas.legacy.legacy object at 0x13DBCB10>,<openexp._canvas.legacy.legacy object at 0x13DD0C50>,<openexp._canvas.legacy.legacy object at 0x30E36A50>,<openexp._canvas.legacy.legacy object at 0x312ABE70>,<openexp._canvas.legacy.legacy object at 0x314BD8B0>,<openexp._canvas.legacy.legacy object at 0x309FBB90>,<openexp._canvas.legacy.legacy object at 0x134171F0>,75,SpatProbMultiple3.osexp,C:/Userdata/Michel/SpatProbMultiple3,no,mono,no,18,no,white,no,yes,0.09,98,1050,legacy,45,25,25,1,C:/Userdata/Michel/SpatProbMultiple3/subject-11.csv,legacy,9,192,25,Jazzy James,3.1.3,yes,598477b2b83f69022949e7e9,47,green,circular,green,rectangular,0,\,2028,space,23746,23746,"(80, 80, 80)","(0, 123, 0)","(177, 0, 0)","(155, 155, 155)",2,legacy,experiment,"[2, 3, 4, 5, 6, 7, 0, 1]",\,2500,3000,0,8,252.7587515,1024,2,48000,-16,main,"[(0, -252), (178, -178), (252, 0), (178, 178), (0, 252), (-178, 178), (-252, 0), (-178, -178)]",[],35,odd,4,NA,72614006,72676764,72676764,72493588,72492583,72339630,72527913,72527912,72339631,72339631,72517335,72757669,72339628,72676764,72755637,72754641,72754642,NA,993,study_X,0,23746,1,yes,1680
undefined,undefined,NA,NA,NA,23746,23746,black,no,legacy,legacy,legacy,0,red,"(177, 0, 0)",shape,present,highProb,circular,swap,same,swap,same,red,"(177, 0, 0)",highProbColor,highProbColor,rectangular,uniform,1,undefined,0,0.130208333,1,1,212.375,1,25,40776,0,0,0,0,0,0,0,0,52,0,1,0.130208333,212.375,25,40776,51,51,51,11/27/2018 10:14,Default description,yes,<openexp._canvas.legacy.legacy object at 0x30E36450>,<openexp._canvas.legacy.legacy object at 0x13DBCB10>,<openexp._canvas.legacy.legacy object at 0x13DD0C50>,<openexp._canvas.legacy.legacy object at 0x30E36A50>,<openexp._canvas.legacy.legacy object at 0x312ABE70>,<openexp._canvas.legacy.legacy object at 0x314BD8B0>,<openexp._canvas.legacy.legacy object at 0x13549F30>,<openexp._canvas.legacy.legacy object at 0x134171F0>,75,SpatProbMultiple3.osexp,C:/Userdata/Michel/SpatProbMultiple3,no,mono,no,18,no,white,no,yes,0.09,98,1050,legacy,315,26,26,1,C:/Userdata/Michel/SpatProbMultiple3/subject-11.csv,legacy,9,192,25,Jazzy James,3.1.3,yes,598477b2b83f69022949e7e9,47,red,circular,red,rectangular,0,/,2147,space,23746,23746,"(80, 80, 80)","(0, 123, 0)","(177, 0, 0)","(155, 155, 155)",2,legacy,experiment,"[2, 3, 4, 5, 6, 7, 0, 1]",/,2500,3000,0,8,252.7587515,1024,2,48000,-16,main,"[(0, -252), (178, -178), (252, 0), (178, 178), (0, 252), (-178, 178), (-252, 0), (-178, -178)]",[],35,odd,2,NA,72614006,72676764,72676764,72493588,72492583,72339630,72527913,72527912,72339631,72339631,72517335,72761237,72339628,72676764,72759085,72758089,72758090,NA,993,study_X,0,23746,1,yes,1680
undefined,undefined,NA,NA,NA,23746,23746,black,no,legacy,legacy,legacy,0,green,"(0, 123, 0)",shape,present,highProb,circular,swap,same,swap,same,green,"(0, 123, 0)",lowProb,lowProb2,rectangular,uniform,1,undefined,0,0.135416667,1,1,217.3854167,1,26,41738,0,0,0,0,0,0,0,0,53,0,1,0.135416667,217.3854167,26,41738,52,52,52,11/27/2018 10:14,Default description,yes,<openexp._canvas.legacy.legacy object at 0x30E36450>,<openexp._canvas.legacy.legacy object at 0x13DBCB10>,<openexp._canvas.legacy.legacy object at 0x13DD0C50>,<openexp._canvas.legacy.legacy object at 0x30E36A50>,<openexp._canvas.legacy.legacy object at 0x312ABE70>,<openexp._canvas.legacy.legacy object at 0x314BD8B0>,<openexp._canvas.legacy.legacy object at 0x13DBC150>,<openexp._canvas.legacy.legacy object at 0x134171F0>,75,SpatProbMultiple3.osexp,C:/Userdata/Michel/SpatProbMultiple3,no,mono,no,18,no,white,no,yes,0.09,98,1050,legacy,315,27,27,1,C:/Userdata/Michel/SpatProbMultiple3/subject-11.csv,legacy,9,192,25,Jazzy James,3.1.3,yes,598477b2b83f69022949e7e9,47,green,circular,green,rectangular,0,/,962,space,23746,23746,"(80, 80, 80)","(0, 123, 0)","(177, 0, 0)","(155, 155, 155)",2,legacy,experiment,"[2, 3, 4, 5, 6, 7, 0, 1]",/,2500,3000,0,8,252.7587515,1024,2,48000,-16,main,"[(0, -252), (178, -178), (252, 0), (178, 178), (0, 252), (-178, 178), (-252, 0), (-178, -178)]",[],35,odd,4,NA,72614006,72676764,72676764,72493588,72492583,72339630,72527913,72527912,72339631,72339631,72517335,72763629,72339628,72676764,72762662,72761666,72761666,NA,993,study_X,0,23746,1,yes,1680
undefined,undefined,NA,NA,NA,23746,23746,black,no,legacy,legacy,legacy,0,red,"(177, 0, 0)",color,absent,lowProb1,circular,swap,same,swap,swap,red,"(177, 0, 0)",lowProb,lowProb6,circular,uniform,1,undefined,0,0.140625,1,1,223.6041667,1,27,42932,0,0,0,0,0,0,0,0,54,0,1,0.140625,223.6041667,27,42932,53,53,53,11/27/2018 10:14,Default description,yes,<openexp._canvas.legacy.legacy object at 0x30E36450>,<openexp._canvas.legacy.legacy object at 0x13DBCB10>,<openexp._canvas.legacy.legacy object at 0x13DD0C50>,<openexp._canvas.legacy.legacy object at 0x30E36A50>,<openexp._canvas.legacy.legacy object at 0x312ABE70>,<openexp._canvas.legacy.legacy object at 0x314BD8B0>,<openexp._canvas.legacy.legacy object at 0x13564EF0>,<openexp._canvas.legacy.legacy object at 0x134171F0>,75,SpatProbMultiple3.osexp,C:/Userdata/Michel/SpatProbMultiple3,no,mono,no,18,no,white,no,yes,0.09,98,1050,legacy,45,28,28,1,C:/Userdata/Michel/SpatProbMultiple3/subject-11.csv,legacy,9,192,25,Jazzy James,3.1.3,yes,598477b2b83f69022949e7e9,47,red,circular,red,circular,0,\,1194,space,23746,23746,"(80, 80, 80)","(0, 123, 0)","(177, 0, 0)","(155, 155, 155)",2,legacy,experiment,"[2, 3, 4, 5, 6, 7, 0, 1]",\,2500,3000,0,8,252.7587515,1024,2,48000,-16,main,"[(0, -252), (178, -178), (252, 0), (178, 178), (0, 252), (-178, 178), (-252, 0), (-178, -178)]",[],35,odd,1,NA,72614006,72676764,72676764,72493588,72492583,72339630,72527913,72527912,72339631,72339631,72517335,72766253,72339628,72676764,72765054,72764058,72764059,NA,993,study_X,0,23746,1,yes,1680
undefined,undefined,NA,NA,NA,23746,23746,black,no,legacy,legacy,legacy,0,green,"(0, 123, 0)",color,present,lowProb2,rectangular,swap,swap,same,swap,red,"(177, 0, 0)",lowProb,lowProb5,rectangular,uniform,0,undefined,0,0.140625,1,1,236.625,1,27,45432,0,0,0,0,0,0,0,0,55,0,1,0.140625,236.625,27,45432,54,54,54,11/27/2018 10:14,Default description,yes,<openexp._canvas.legacy.legacy object at 0x30E36450>,<openexp._canvas.legacy.legacy object at 0x13DBCB10>,<openexp._canvas.legacy.legacy object at 0x13DD0C50>,<openexp._canvas.legacy.legacy object at 0x30E36A50>,<openexp._canvas.legacy.legacy object at 0x312ABE70>,<openexp._canvas.legacy.legacy object at 0x314BD8B0>,<openexp._canvas.legacy.legacy object at 0x13549B90>,<openexp._canvas.legacy.legacy object at 0x134171F0>,75,SpatProbMultiple3.osexp,C:/Userdata/Michel/SpatProbMultiple3,no,mono,no,18,no,white,no,yes,0.09,98,1050,legacy,315,29,29,1,C:/Userdata/Michel/SpatProbMultiple3/subject-11.csv,legacy,9,192,25,Jazzy James,3.1.3,yes,598477b2b83f69022949e7e9,47,green,rectangular,red,rectangular,0,None,2500,space,23746,23746,"(80, 80, 80)","(0, 123, 0)","(177, 0, 0)","(155, 155, 155)",2,legacy,experiment,"[2, 3, 4, 5, 6, 7, 0, 1]",/,2500,3000,0,8,252.7587515,1024,2,48000,-16,main,"[(0, -252), (178, -178), (252, 0), (178, 178), (0, 252), (-178, 178), (-252, 0), (-178, -178)]",[],35,odd,0,NA,72614006,72676764,72676764,72493588,72492583,72339630,72527913,72527912,72339631,72339631,72517335,72770176,72339628,72676764,72767672,72766676,72766677,NA,993,study_X,0,23746,1,yes,1680
undefined,undefined,NA,NA,NA,23746,23746,black,no,legacy,legacy,legacy,0,red,"(177, 0, 0)",color,present,highProb,circular,swap,swap,swap,swap,green,"(0, 123, 0)",lowProb,lowProb3,circular,uniform,0,undefined,0,0.140625,1,1,249.6458333,1,27,47932,0,0,0,0,0,0,0,0,56,0,1,0.140625,249.6458333,27,47932,55,55,55,11/27/2018 10:14,Default description,yes,<openexp._canvas.legacy.legacy object at 0x30E36450>,<openexp._canvas.legacy.legacy object at 0x13DBCB10>,<openexp._canvas.legacy.legacy object at 0x13DD0C50>,<openexp._canvas.legacy.legacy object at 0x30E36A50>,<openexp._canvas.legacy.legacy object at 0x312ABE70>,<openexp._canvas.legacy.legacy object at 0x314BD8B0>,<openexp._canvas.legacy.legacy object at 0x314445B0>,<openexp._canvas.legacy.legacy object at 0x134171F0>,75,SpatProbMultiple3.osexp,C:/Userdata/Michel/SpatProbMultiple3,no,mono,no,18,no,white,no,yes,0.09,98,1050,legacy,45,30,30,1,C:/Userdata/Michel/SpatProbMultiple3/subject-11.csv,legacy,9,192,25,Jazzy James,3.1.3,yes,598477b2b83f69022949e7e9,47,red,circular,green,circular,0,None,2500,space,23746,23746,"(80, 80, 80)","(0, 123, 0)","(177, 0, 0)","(155, 155, 155)",2,legacy,experiment,"[2, 3, 4, 5, 6, 7, 0, 1]",\,2500,3000,0,8,252.7587515,1024,2,48000,-16,main,"[(0, -252), (178, -178), (252, 0), (178, 178), (0, 252), (-178, 178), (-252, 0), (-178, -178)]",[],35,odd,5,NA,72614006,72676764,72676764,72493588,72492583,72339630,72527913,72527912,72339631,72339631,72517335,72774110,72339628,72676764,72771606,72770610,72770610,NA,993,study_X,0,23746,1,yes,1680
undefined,undefined,NA,NA,NA,23746,23746,black,no,legacy,legacy,legacy,0,red,"(177, 0, 0)",shape,present,highProb,rectangular,same,swap,swap,same,red,"(177, 0, 0)",lowProb,lowProb2,circular,uniform,1,undefined,0,0.145833333,1,1,255.3489583,1,28,49027,0,0,0,0,0,0,0,0,57,0,1,0.145833333,255.3489583,28,49027,56,56,56,11/27/2018 10:14,Default description,yes,<openexp._canvas.legacy.legacy object at 0x30E36450>,<openexp._canvas.legacy.legacy object at 0x13DBCB10>,<openexp._canvas.legacy.legacy object at 0x13DD0C50>,<openexp._canvas.legacy.legacy object at 0x30E36A50>,<openexp._canvas.legacy.legacy object at 0x312ABE70>,<openexp._canvas.legacy.legacy object at 0x314BD8B0>,<openexp._canvas.legacy.legacy object at 0x13DBCA50>,<openexp._canvas.legacy.legacy object at 0x134171F0>,75,SpatProbMultiple3.osexp,C:/Userdata/Michel/SpatProbMultiple3,no,mono,no,18,no,white,no,yes,0.09,98,1050,legacy,45,31,31,1,C:/Userdata/Michel/SpatProbMultiple3/subject-11.csv,legacy,9,192,25,Jazzy James,3.1.3,yes,598477b2b83f69022949e7e9,47,red,rectangular,red,circular,0,\,1095,space,23746,23746,"(80, 80, 80)","(0, 123, 0)","(177, 0, 0)","(155, 155, 155)",2,legacy,experiment,"[2, 3, 4, 5, 6, 7, 0, 1]",\,2500,3000,0,8,252.7587515,1024,2,48000,-16,main,"[(0, -252), (178, -178), (252, 0), (178, 178), (0, 252), (-178, 178), (-252, 0), (-178, -178)]",[],35,odd,4,NA,72614006,72676764,72676764,72493588,72492583,72339630,72527913,72527912,72339631,72339631,72517335,72776629,72339628,72676764,72775529,72774533,72774533,NA,993,study_X,0,23746,1,yes,1680
undefined,undefined,NA,NA,NA,23746,23746,black,no,legacy,legacy,legacy,0,red,"(177, 0, 0)",shape,present,highProb,rectangular,same,same,same,same,red,"(177, 0, 0)",lowProb,lowProb5,circular,uniform,1,undefined,0,0.151041667,1,1,266.21875,1,29,51114,0,0,0,0,0,0,0,0,58,0,1,0.151041667,266.21875,29,51114,57,57,57,11/27/2018 10:14,Default description,yes,<openexp._canvas.legacy.legacy object at 0x30E36450>,<openexp._canvas.legacy.legacy object at 0x13DBCB10>,<openexp._canvas.legacy.legacy object at 0x13DD0C50>,<openexp._canvas.legacy.legacy object at 0x30E36A50>,<openexp._canvas.legacy.legacy object at 0x312ABE70>,<openexp._canvas.legacy.legacy object at 0x314BD8B0>,<openexp._canvas.legacy.legacy object at 0x309FF310>,<openexp._canvas.legacy.legacy object at 0x134171F0>,75,SpatProbMultiple3.osexp,C:/Userdata/Michel/SpatProbMultiple3,no,mono,no,18,no,white,no,yes,0.09,98,1050,legacy,315,32,32,1,C:/Userdata/Michel/SpatProbMultiple3/subject-11.csv,legacy,9,192,25,Jazzy James,3.1.3,yes,598477b2b83f69022949e7e9,47,red,rectangular,red,circular,0,/,2087,space,23746,23746,"(80, 80, 80)","(0, 123, 0)","(177, 0, 0)","(155, 155, 155)",2,legacy,experiment,"[2, 3, 4, 5, 6, 7, 0, 1]",/,2500,3000,0,8,252.7587515,1024,2,48000,-16,main,"[(0, -252), (178, -178), (252, 0), (178, 178), (0, 252), (-178, 178), (-252, 0), (-178, -178)]",[],35,odd,0,NA,72614006,72676764,72676764,72493588,72492583,72339630,72527913,72527912,72339631,72339631,72517335,72780149,72339628,72676764,72778057,72777061,72777062,NA,993,study_X,0,23746,1,yes,1680
undefined,undefined,NA,NA,NA,23746,23746,black,no,legacy,legacy,legacy,0,green,"(0, 123, 0)",shape,present,lowProb5,circular,swap,swap,swap,swap,green,"(0, 123, 0)",lowProb,lowProb4,rectangular,uniform,1,undefined,0,0.15625,1,1,275.8177083,1,30,52957,0,0,0,0,0,0,0,0,59,0,1,0.15625,275.8177083,30,52957,58,58,58,11/27/2018 10:14,Default description,yes,<openexp._canvas.legacy.legacy object at 0x30E36450>,<openexp._canvas.legacy.legacy object at 0x13DBCB10>,<openexp._canvas.legacy.legacy object at 0x13DD0C50>,<openexp._canvas.legacy.legacy object at 0x30E36A50>,<openexp._canvas.legacy.legacy object at 0x312ABE70>,<openexp._canvas.legacy.legacy object at 0x314BD8B0>,<openexp._canvas.legacy.legacy object at 0x13549D70>,<openexp._canvas.legacy.legacy object at 0x134171F0>,75,SpatProbMultiple3.osexp,C:/Userdata/Michel/SpatProbMultiple3,no,mono,no,18,no,white,no,yes,0.09,98,1050,legacy,45,33,33,1,C:/Userdata/Michel/SpatProbMultiple3/subject-11.csv,legacy,9,192,25,Jazzy James,3.1.3,yes,598477b2b83f69022949e7e9,47,green,circular,green,rectangular,0,\,1843,space,23746,23746,"(80, 80, 80)","(0, 123, 0)","(177, 0, 0)","(155, 155, 155)",2,legacy,experiment,"[2, 3, 4, 5, 6, 7, 0, 1]",\,2500,3000,0,8,252.7587515,1024,2,48000,-16,main,"[(0, -252), (178, -178), (252, 0), (178, 178), (0, 252), (-178, 178), (-252, 0), (-178, -178)]",[],35,odd,7,NA,72614006,72676764,72676764,72493588,72492583,72339630,72527913,72527912,72339631,72339631,72517335,72783412,72339628,72676764,72781565,72780569,72780569,NA,993,study_X,0,23746,1,yes,1680
undefined,undefined,NA,NA,NA,23746,23746,black,no,legacy,legacy,legacy,0,green,"(0, 123, 0)",shape,present,lowProb6,circular,same,same,same,same,green,"(0, 123, 0)",lowProb,lowProb5,rectangular,uniform,1,undefined,0,0.161458333,1,1,287.5208333,1,31,55204,0,0,0,0,0,0,0,0,60,0,1,0.161458333,287.5208333,31,55204,59,59,59,11/27/2018 10:14,Default description,yes,<openexp._canvas.legacy.legacy object at 0x30E36450>,<openexp._canvas.legacy.legacy object at 0x13DBCB10>,<openexp._canvas.legacy.legacy object at 0x13DD0C50>,<openexp._canvas.legacy.legacy object at 0x30E36A50>,<openexp._canvas.legacy.legacy object at 0x312ABE70>,<openexp._canvas.legacy.legacy object at 0x314BD8B0>,<openexp._canvas.legacy.legacy object at 0x31444C70>,<openexp._canvas.legacy.legacy object at 0x134171F0>,75,SpatProbMultiple3.osexp,C:/Userdata/Michel/SpatProbMultiple3,no,mono,no,18,no,white,no,yes,0.09,98,1050,legacy,315,34,34,1,C:/Userdata/Michel/SpatProbMultiple3/subject-11.csv,legacy,9,192,25,Jazzy James,3.1.3,yes,598477b2b83f69022949e7e9,47,green,circular,green,rectangular,0,/,2247,space,23746,23746,"(80, 80, 80)","(0, 123, 0)","(177, 0, 0)","(155, 155, 155)",2,legacy,experiment,"[2, 3, 4, 5, 6, 7, 0, 1]",/,2500,3000,0,8,252.7587515,1024,2,48000,-16,main,"[(0, -252), (178, -178), (252, 0), (178, 178), (0, 252), (-178, 178), (-252, 0), (-178, -178)]",[],35,odd,0,NA,72614006,72676764,72676764,72493588,72492583,72339630,72527913,72527912,72339631,72339631,72517335,72787084,72339628,72676764,72784834,72783837,72783838,NA,993,study_X,0,23746,1,yes,1680
undefined,undefined,NA,NA,NA,23746,23746,black,no,legacy,legacy,legacy,0,green,"(0, 123, 0)",shape,present,lowProb3,rectangular,same,swap,same,swap,green,"(0, 123, 0)",lowProb,lowProb4,circular,uniform,1,undefined,0,0.166666667,1,1,294.3489583,1,32,56515,0,0,0,0,0,0,0,0,61,0,1,0.166666667,294.3489583,32,56515,60,60,60,11/27/2018 10:14,Default description,yes,<openexp._canvas.legacy.legacy object at 0x30E36450>,<openexp._canvas.legacy.legacy object at 0x13DBCB10>,<openexp._canvas.legacy.legacy object at 0x13DD0C50>,<openexp._canvas.legacy.legacy object at 0x30E36A50>,<openexp._canvas.legacy.legacy object at 0x312ABE70>,<openexp._canvas.legacy.legacy object at 0x314BD8B0>,<openexp._canvas.legacy.legacy object at 0x309FBC10>,<openexp._canvas.legacy.legacy object at 0x134171F0>,75,SpatProbMultiple3.osexp,C:/Userdata/Michel/SpatProbMultiple3,no,mono,no,18,no,white,no,yes,0.09,98,1050,legacy,45,35,35,1,C:/Userdata/Michel/SpatProbMultiple3/subject-11.csv,legacy,9,192,25,Jazzy James,3.1.3,yes,598477b2b83f69022949e7e9,47,green,rectangular,green,circular,0,\,1311,space,23746,23746,"(80, 80, 80)","(0, 123, 0)","(177, 0, 0)","(155, 155, 155)",2,legacy,experiment,"[2, 3, 4, 5, 6, 7, 0, 1]",\,2500,3000,0,8,252.7587515,1024,2,48000,-16,main,"[(0, -252), (178, -178), (252, 0), (178, 178), (0, 252), (-178, 178), (-252, 0), (-178, -178)]",[],35,odd,7,NA,72614006,72676764,72676764,72493588,72492583,72339630,72527913,72527912,72339631,72339631,72517335,72789829,72339628,72676764,72788514,72787518,72787519,NA,993,study_X,0,23746,1,yes,1680
undefined,undefined,NA,NA,NA,23746,23746,black,no,legacy,legacy,legacy,0,green,"(0, 123, 0)",color,absent,lowProb4,rectangular,same,same,same,swap,green,"(0, 123, 0)",lowProb,lowProb6,rectangular,uniform,0,undefined,0,0.166666667,1,1,307.3697917,1,32,59015,0,0,0,0,0,0,0,0,62,0,1,0.166666667,307.3697917,32,59015,61,61,61,11/27/2018 10:14,Default description,yes,<openexp._canvas.legacy.legacy object at 0x30E36450>,<openexp._canvas.legacy.legacy object at 0x13DBCB10>,<openexp._canvas.legacy.legacy object at 0x13DD0C50>,<openexp._canvas.legacy.legacy object at 0x30E36A50>,<openexp._canvas.legacy.legacy object at 0x312ABE70>,<openexp._canvas.legacy.legacy object at 0x314BD8B0>,<openexp._canvas.legacy.legacy object at 0x30E36A10>,<openexp._canvas.legacy.legacy object at 0x134171F0>,75,SpatProbMultiple3.osexp,C:/Userdata/Michel/SpatProbMultiple3,no,mono,no,18,no,white,no,yes,0.09,98,1050,legacy,315,36,36,1,C:/Userdata/Michel/SpatProbMultiple3/subject-11.csv,legacy,9,192,25,Jazzy James,3.1.3,yes,598477b2b83f69022949e7e9,47,green,rectangular,green,rectangular,0,None,2500,space,23746,23746,"(80, 80, 80)","(0, 123, 0)","(177, 0, 0)","(155, 155, 155)",2,legacy,experiment,"[2, 3, 4, 5, 6, 7, 0, 1]",/,2500,3000,0,8,252.7587515,1024,2,48000,-16,main,"[(0, -252), (178, -178), (252, 0), (178, 178), (0, 252), (-178, 178), (-252, 0), (-178, -178)]",[],35,odd,1,NA,72614006,72676764,72676764,72493588,72492583,72339630,72527913,72527912,72339631,72339631,72517335,72793755,72339628,72676764,72791251,72790255,72790256,NA,993,study_X,0,23746,1,yes,1680
undefined,undefined,NA,NA,NA,23746,23746,black,no,legacy,legacy,legacy,0,red,"(177, 0, 0)",shape,present,highProbOther,rectangular,swap,same,swap,swap,red,"(177, 0, 0)",lowProb,lowProb6,circular,uniform,1,undefined,0,0.171875,1,1,316.6666667,1,33,60800,0,0,0,0,0,0,0,0,63,0,1,0.171875,316.6666667,33,60800,62,62,62,11/27/2018 10:14,Default description,yes,<openexp._canvas.legacy.legacy object at 0x30E36450>,<openexp._canvas.legacy.legacy object at 0x13DBCB10>,<openexp._canvas.legacy.legacy object at 0x13DD0C50>,<openexp._canvas.legacy.legacy object at 0x30E36A50>,<openexp._canvas.legacy.legacy object at 0x312ABE70>,<openexp._canvas.legacy.legacy object at 0x314BD8B0>,<openexp._canvas.legacy.legacy object at 0x13421810>,<openexp._canvas.legacy.legacy object at 0x134171F0>,75,SpatProbMultiple3.osexp,C:/Userdata/Michel/SpatProbMultiple3,no,mono,no,18,no,white,no,yes,0.09,98,1050,legacy,45,37,37,1,C:/Userdata/Michel/SpatProbMultiple3/subject-11.csv,legacy,9,192,25,Jazzy James,3.1.3,yes,598477b2b83f69022949e7e9,47,red,rectangular,red,circular,0,\,1785,space,23746,23746,"(80, 80, 80)","(0, 123, 0)","(177, 0, 0)","(155, 155, 155)",2,legacy,experiment,"[2, 3, 4, 5, 6, 7, 0, 1]",\,2500,3000,0,8,252.7587515,1024,2,48000,-16,main,"[(0, -252), (178, -178), (252, 0), (178, 178), (0, 252), (-178, 178), (-252, 0), (-178, -178)]",[],35,odd,1,NA,72614006,72676764,72676764,72493588,72492583,72339630,72527913,72527912,72339631,72339631,72517335,72796973,72339628,72676764,72795183,72794187,72794187,NA,993,study_X,0,23746,1,yes,1680
undefined,undefined,NA,NA,NA,23746,23746,black,no,legacy,legacy,legacy,0,green,"(0, 123, 0)",shape,present,highProb,rectangular,swap,same,swap,same,green,"(0, 123, 0)",lowProb,lowProb2,circular,uniform,1,undefined,0,0.177083333,1,1,324.4635417,1,34,62297,0,0,0,0,0,0,0,0,64,0,1,0.177083333,324.4635417,34,62297,63,63,63,11/27/2018 10:14,Default description,yes,<openexp._canvas.legacy.legacy object at 0x30E36450>,<openexp._canvas.legacy.legacy object at 0x13DBCB10>,<openexp._canvas.legacy.legacy object at 0x13DD0C50>,<openexp._canvas.legacy.legacy object at 0x30E36A50>,<openexp._canvas.legacy.legacy object at 0x312ABE70>,<openexp._canvas.legacy.legacy object at 0x314BD8B0>,<openexp._canvas.legacy.legacy object at 0x0ED18DF0>,<openexp._canvas.legacy.legacy object at 0x134171F0>,75,SpatProbMultiple3.osexp,C:/Userdata/Michel/SpatProbMultiple3,no,mono,no,18,no,white,no,yes,0.09,98,1050,legacy,45,38,38,1,C:/Userdata/Michel/SpatProbMultiple3/subject-11.csv,legacy,9,192,25,Jazzy James,3.1.3,yes,598477b2b83f69022949e7e9,47,green,rectangular,green,circular,0,\,1497,space,23746,23746,"(80, 80, 80)","(0, 123, 0)","(177, 0, 0)","(155, 155, 155)",2,legacy,experiment,"[2, 3, 4, 5, 6, 7, 0, 1]",\,2500,3000,0,8,252.7587515,1024,2,48000,-16,main,"[(0, -252), (178, -178), (252, 0), (178, 178), (0, 252), (-178, 178), (-252, 0), (-178, -178)]",[],35,odd,4,NA,72614006,72676764,72676764,72493588,72492583,72339630,72527913,72527912,72339631,72339631,72517335,72799900,72339628,72676764,72798400,72797404,72797404,NA,993,study_X,0,23746,1,yes,1680
undefined,undefined,NA,NA,NA,23746,23746,black,no,legacy,legacy,legacy,0,green,"(0, 123, 0)",color,present,lowProb6,rectangular,same,same,swap,swap,red,"(177, 0, 0)",lowProb,lowProb5,rectangular,uniform,1,undefined,0,0.182291667,1,1,336.6822917,1,35,64643,0,0,0,0,0,0,0,0,65,0,1,0.182291667,336.6822917,35,64643,64,64,64,11/27/2018 10:14,Default description,yes,<openexp._canvas.legacy.legacy object at 0x30E36450>,<openexp._canvas.legacy.legacy object at 0x13DBCB10>,<openexp._canvas.legacy.legacy object at 0x13DD0C50>,<openexp._canvas.legacy.legacy object at 0x30E36A50>,<openexp._canvas.legacy.legacy object at 0x312ABE70>,<openexp._canvas.legacy.legacy object at 0x314BD8B0>,<openexp._canvas.legacy.legacy object at 0x309FB9D0>,<openexp._canvas.legacy.legacy object at 0x134171F0>,75,SpatProbMultiple3.osexp,C:/Userdata/Michel/SpatProbMultiple3,no,mono,no,18,no,white,no,yes,0.09,98,1050,legacy,315,39,39,1,C:/Userdata/Michel/SpatProbMultiple3/subject-11.csv,legacy,9,192,25,Jazzy James,3.1.3,yes,598477b2b83f69022949e7e9,47,green,rectangular,red,rectangular,0,/,2346,space,23746,23746,"(80, 80, 80)","(0, 123, 0)","(177, 0, 0)","(155, 155, 155)",2,legacy,experiment,"[2, 3, 4, 5, 6, 7, 0, 1]",/,2500,3000,0,8,252.7587515,1024,2,48000,-16,main,"[(0, -252), (178, -178), (252, 0), (178, 178), (0, 252), (-178, 178), (-252, 0), (-178, -178)]",[],35,odd,0,NA,72614006,72676764,72676764,72493588,72492583,72339630,72527913,72527912,72339631,72339631,72517335,72803668,72339628,72676764,72801318,72800322,72800322,NA,993,study_X,0,23746,1,yes,1680
undefined,undefined,NA,NA,NA,23746,23746,black,no,legacy,legacy,legacy,0,red,"(177, 0, 0)",shape,absent,highProb,rectangular,swap,same,same,same,red,"(177, 0, 0)",lowProb,lowProb5,rectangular,uniform,1,undefined,0,0.1875,1,1,340.5364583,1,36,65383,0,0,0,0,0,0,0,0,66,0,1,0.1875,340.5364583,36,65383,65,65,65,11/27/2018 10:14,Default description,yes,<openexp._canvas.legacy.legacy object at 0x30E36450>,<openexp._canvas.legacy.legacy object at 0x13DBCB10>,<openexp._canvas.legacy.legacy object at 0x13DD0C50>,<openexp._canvas.legacy.legacy object at 0x30E36A50>,<openexp._canvas.legacy.legacy object at 0x312ABE70>,<openexp._canvas.legacy.legacy object at 0x314BD8B0>,<openexp._canvas.legacy.legacy object at 0x13DBCE10>,<openexp._canvas.legacy.legacy object at 0x134171F0>,75,SpatProbMultiple3.osexp,C:/Userdata/Michel/SpatProbMultiple3,no,mono,no,18,no,white,no,yes,0.09,98,1050,legacy,315,40,40,1,C:/Userdata/Michel/SpatProbMultiple3/subject-11.csv,legacy,9,192,25,Jazzy James,3.1.3,yes,598477b2b83f69022949e7e9,47,red,rectangular,red,rectangular,0,/,740,space,23746,23746,"(80, 80, 80)","(0, 123, 0)","(177, 0, 0)","(155, 155, 155)",2,legacy,experiment,"[2, 3, 4, 5, 6, 7, 0, 1]",/,2500,3000,0,8,252.7587515,1024,2,48000,-16,main,"[(0, -252), (178, -178), (252, 0), (178, 178), (0, 252), (-178, 178), (-252, 0), (-178, -178)]",[],35,odd,0,NA,72614006,72676764,72676764,72493588,72492583,72339630,72527913,72527912,72339631,72339631,72517335,72805829,72339628,72676764,72805085,72804088,72804089,NA,993,study_X,0,23746,1,yes,1680
undefined,undefined,NA,NA,NA,23746,23746,black,no,legacy,legacy,legacy,0,green,"(0, 123, 0)",color,present,highProb,rectangular,swap,same,same,same,red,"(177, 0, 0)",lowProb,lowProb6,rectangular,uniform,0,undefined,0,0.1875,1,1,353.5572917,1,36,67883,0,0,0,0,0,0,0,0,67,0,1,0.1875,353.5572917,36,67883,66,66,66,11/27/2018 10:14,Default description,yes,<openexp._canvas.legacy.legacy object at 0x30E36450>,<openexp._canvas.legacy.legacy object at 0x13DBCB10>,<openexp._canvas.legacy.legacy object at 0x13DD0C50>,<openexp._canvas.legacy.legacy object at 0x30E36A50>,<openexp._canvas.legacy.legacy object at 0x312ABE70>,<openexp._canvas.legacy.legacy object at 0x314BD8B0>,<openexp._canvas.legacy.legacy object at 0x13549EF0>,<openexp._canvas.legacy.legacy object at 0x134171F0>,75,SpatProbMultiple3.osexp,C:/Userdata/Michel/SpatProbMultiple3,no,mono,no,18,no,white,no,yes,0.09,98,1050,legacy,45,41,41,1,C:/Userdata/Michel/SpatProbMultiple3/subject-11.csv,legacy,9,192,25,Jazzy James,3.1.3,yes,598477b2b83f69022949e7e9,47,green,rectangular,red,rectangular,0,None,2500,space,23746,23746,"(80, 80, 80)","(0, 123, 0)","(177, 0, 0)","(155, 155, 155)",2,legacy,experiment,"[2, 3, 4, 5, 6, 7, 0, 1]",\,2500,3000,0,8,252.7587515,1024,2,48000,-16,main,"[(0, -252), (178, -178), (252, 0), (178, 178), (0, 252), (-178, 178), (-252, 0), (-178, -178)]",[],35,odd,1,NA,72614006,72676764,72676764,72493588,72492583,72339630,72527913,72527912,72339631,72339631,72517335,72809750,72339628,72676764,72807246,72806250,72806251,NA,993,study_X,0,23746,1,yes,1680
undefined,undefined,NA,NA,NA,23746,23746,black,no,legacy,legacy,legacy,0,green,"(0, 123, 0)",color,absent,lowProb6,circular,same,swap,swap,swap,green,"(0, 123, 0)",highProbShape,highProbShape,circular,uniform,1,undefined,0,0.192708333,1,1,363.078125,1,37,69711,0,0,0,0,0,0,0,0,68,0,1,0.192708333,363.078125,37,69711,67,67,67,11/27/2018 10:14,Default description,yes,<openexp._canvas.legacy.legacy object at 0x30E36450>,<openexp._canvas.legacy.legacy object at 0x13DBCB10>,<openexp._canvas.legacy.legacy object at 0x13DD0C50>,<openexp._canvas.legacy.legacy object at 0x30E36A50>,<openexp._canvas.legacy.legacy object at 0x312ABE70>,<openexp._canvas.legacy.legacy object at 0x314BD8B0>,<openexp._canvas.legacy.legacy object at 0x30E36410>,<openexp._canvas.legacy.legacy object at 0x134171F0>,75,SpatProbMultiple3.osexp,C:/Userdata/Michel/SpatProbMultiple3,no,mono,no,18,no,white,no,yes,0.09,98,1050,legacy,45,42,42,1,C:/Userdata/Michel/SpatProbMultiple3/subject-11.csv,legacy,9,192,25,Jazzy James,3.1.3,yes,598477b2b83f69022949e7e9,47,green,circular,green,circular,0,\,1828,space,23746,23746,"(80, 80, 80)","(0, 123, 0)","(177, 0, 0)","(155, 155, 155)",2,legacy,experiment,"[2, 3, 4, 5, 6, 7, 0, 1]",\,2500,3000,0,8,252.7587515,1024,2,48000,-16,main,"[(0, -252), (178, -178), (252, 0), (178, 178), (0, 252), (-178, 178), (-252, 0), (-178, -178)]",[],35,odd,6,NA,72614006,72676764,72676764,72493588,72492583,72339630,72527913,72527912,72339631,72339631,72517335,72813012,72339628,72676764,72811180,72810184,72810184,NA,993,study_X,0,23746,1,yes,1680
undefined,undefined,NA,NA,NA,23746,23746,black,no,legacy,legacy,legacy,0,green,"(0, 123, 0)",shape,absent,lowProb2,circular,same,same,same,same,green,"(0, 123, 0)",lowProb,lowProb1,circular,uniform,1,undefined,0,0.197916667,1,1,374.3489583,1,38,71875,0,0,0,0,0,0,0,0,69,0,1,0.197916667,374.3489583,38,71875,68,68,68,11/27/2018 10:14,Default description,yes,<openexp._canvas.legacy.legacy object at 0x30E36450>,<openexp._canvas.legacy.legacy object at 0x13DBCB10>,<openexp._canvas.legacy.legacy object at 0x13DD0C50>,<openexp._canvas.legacy.legacy object at 0x30E36A50>,<openexp._canvas.legacy.legacy object at 0x312ABE70>,<openexp._canvas.legacy.legacy object at 0x314BD8B0>,<openexp._canvas.legacy.legacy object at 0x309FBD30>,<openexp._canvas.legacy.legacy object at 0x134171F0>,75,SpatProbMultiple3.osexp,C:/Userdata/Michel/SpatProbMultiple3,no,mono,no,18,no,white,no,yes,0.09,98,1050,legacy,45,43,43,1,C:/Userdata/Michel/SpatProbMultiple3/subject-11.csv,legacy,9,192,25,Jazzy James,3.1.3,yes,598477b2b83f69022949e7e9,47,green,circular,green,circular,0,\,2164,space,23746,23746,"(80, 80, 80)","(0, 123, 0)","(177, 0, 0)","(155, 155, 155)",2,legacy,experiment,"[2, 3, 4, 5, 6, 7, 0, 1]",\,2500,3000,0,8,252.7587515,1024,2,48000,-16,main,"[(0, -252), (178, -178), (252, 0), (178, 178), (0, 252), (-178, 178), (-252, 0), (-178, -178)]",[],35,odd,3,NA,72614006,72676764,72676764,72493588,72492583,72339630,72527913,72527912,72339631,72339631,72517335,72816604,72339628,72676764,72814436,72813440,72813441,NA,993,study_X,0,23746,1,yes,1680
undefined,undefined,NA,NA,NA,23746,23746,black,no,legacy,legacy,legacy,0,green,"(0, 123, 0)",shape,present,lowProb6,rectangular,same,swap,same,same,green,"(0, 123, 0)",highProbColor,highProbColor,circular,uniform,1,undefined,0,0.203125,1,1,386.078125,1,39,74127,0,0,0,0,0,0,0,0,70,0,1,0.203125,386.078125,39,74127,69,69,69,11/27/2018 10:14,Default description,yes,<openexp._canvas.legacy.legacy object at 0x30E36450>,<openexp._canvas.legacy.legacy object at 0x13DBCB10>,<openexp._canvas.legacy.legacy object at 0x13DD0C50>,<openexp._canvas.legacy.legacy object at 0x30E36A50>,<openexp._canvas.legacy.legacy object at 0x312ABE70>,<openexp._canvas.legacy.legacy object at 0x314BD8B0>,<openexp._canvas.legacy.legacy object at 0x13421F10>,<openexp._canvas.legacy.legacy object at 0x134171F0>,75,SpatProbMultiple3.osexp,C:/Userdata/Michel/SpatProbMultiple3,no,mono,no,18,no,white,no,yes,0.09,98,1050,legacy,45,44,44,1,C:/Userdata/Michel/SpatProbMultiple3/subject-11.csv,legacy,9,192,25,Jazzy James,3.1.3,yes,598477b2b83f69022949e7e9,47,green,rectangular,green,circular,0,\,2252,space,23746,23746,"(80, 80, 80)","(0, 123, 0)","(177, 0, 0)","(155, 155, 155)",2,legacy,experiment,"[2, 3, 4, 5, 6, 7, 0, 1]",\,2500,3000,0,8,252.7587515,1024,2,48000,-16,main,"[(0, -252), (178, -178), (252, 0), (178, 178), (0, 252), (-178, 178), (-252, 0), (-178, -178)]",[],35,odd,2,NA,72614006,72676764,72676764,72493588,72492583,72339630,72527913,72527912,72339631,72339631,72517335,72820284,72339628,72676764,72818028,72817032,72817033,NA,993,study_X,0,23746,1,yes,1680
undefined,undefined,NA,NA,NA,23746,23746,black,no,legacy,legacy,legacy,0,red,"(177, 0, 0)",color,absent,lowProb6,circular,swap,swap,swap,same,red,"(177, 0, 0)",lowProb,lowProb6,circular,uniform,1,undefined,0,0.208333333,1,1,392.453125,1,40,75351,0,0,0,0,0,0,0,0,71,0,1,0.208333333,392.453125,40,75351,70,70,70,11/27/2018 10:14,Default description,yes,<openexp._canvas.legacy.legacy object at 0x30E36450>,<openexp._canvas.legacy.legacy object at 0x13DBCB10>,<openexp._canvas.legacy.legacy object at 0x13DD0C50>,<openexp._canvas.legacy.legacy object at 0x30E36A50>,<openexp._canvas.legacy.legacy object at 0x312ABE70>,<openexp._canvas.legacy.legacy object at 0x314BD8B0>,<openexp._canvas.legacy.legacy object at 0x312AB710>,<openexp._canvas.legacy.legacy object at 0x134171F0>,75,SpatProbMultiple3.osexp,C:/Userdata/Michel/SpatProbMultiple3,no,mono,no,18,no,white,no,yes,0.09,98,1050,legacy,315,45,45,1,C:/Userdata/Michel/SpatProbMultiple3/subject-11.csv,legacy,9,192,25,Jazzy James,3.1.3,yes,598477b2b83f69022949e7e9,47,red,circular,red,circular,0,/,1224,space,23746,23746,"(80, 80, 80)","(0, 123, 0)","(177, 0, 0)","(155, 155, 155)",2,legacy,experiment,"[2, 3, 4, 5, 6, 7, 0, 1]",/,2500,3000,0,8,252.7587515,1024,2,48000,-16,main,"[(0, -252), (178, -178), (252, 0), (178, 178), (0, 252), (-178, 178), (-252, 0), (-178, -178)]",[],35,odd,1,NA,72614006,72676764,72676764,72493588,72492583,72339630,72527913,72527912,72339631,72339631,72517335,72822941,72339628,72676764,72821712,72820716,72820716,NA,993,study_X,0,23746,1,yes,1680
undefined,undefined,NA,NA,NA,23746,23746,black,no,legacy,legacy,legacy,0,red,"(177, 0, 0)",shape,absent,lowProb4,circular,same,same,same,same,red,"(177, 0, 0)",highProbShape,highProbShape,circular,uniform,1,undefined,0,0.213541667,1,1,398.4322917,1,41,76499,0,0,0,0,0,0,0,0,72,0,1,0.213541667,398.4322917,41,76499,71,71,71,11/27/2018 10:14,Default description,yes,<openexp._canvas.legacy.legacy object at 0x30E36450>,<openexp._canvas.legacy.legacy object at 0x13DBCB10>,<openexp._canvas.legacy.legacy object at 0x13DD0C50>,<openexp._canvas.legacy.legacy object at 0x30E36A50>,<openexp._canvas.legacy.legacy object at 0x312ABE70>,<openexp._canvas.legacy.legacy object at 0x314BD8B0>,<openexp._canvas.legacy.legacy object at 0x13DD0970>,<openexp._canvas.legacy.legacy object at 0x134171F0>,75,SpatProbMultiple3.osexp,C:/Userdata/Michel/SpatProbMultiple3,no,mono,no,18,no,white,no,yes,0.09,98,1050,legacy,45,46,46,1,C:/Userdata/Michel/SpatProbMultiple3/subject-11.csv,legacy,9,192,25,Jazzy James,3.1.3,yes,598477b2b83f69022949e7e9,47,red,circular,red,circular,0,\,1148,space,23746,23746,"(80, 80, 80)","(0, 123, 0)","(177, 0, 0)","(155, 155, 155)",2,legacy,experiment,"[2, 3, 4, 5, 6, 7, 0, 1]",\,2500,3000,0,8,252.7587515,1024,2,48000,-16,main,"[(0, -252), (178, -178), (252, 0), (178, 178), (0, 252), (-178, 178), (-252, 0), (-178, -178)]",[],35,odd,6,NA,72614006,72676764,72676764,72493588,72492583,72339630,72527913,72527912,72339631,72339631,72517335,72825525,72339628,72676764,72824372,72823376,72823377,NA,993,study_X,0,23746,1,yes,1680
undefined,undefined,NA,NA,NA,23746,23746,black,no,legacy,legacy,legacy,0,red,"(177, 0, 0)",color,absent,highProbOther,circular,same,same,same,same,red,"(177, 0, 0)",lowProb,lowProb3,circular,uniform,1,undefined,0,0.21875,1,1,407.8645833,1,42,78310,0,0,0,0,0,0,0,0,73,0,1,0.21875,407.8645833,42,78310,72,72,72,11/27/2018 10:14,Default description,yes,<openexp._canvas.legacy.legacy object at 0x30E36450>,<openexp._canvas.legacy.legacy object at 0x13DBCB10>,<openexp._canvas.legacy.legacy object at 0x13DD0C50>,<openexp._canvas.legacy.legacy object at 0x30E36A50>,<openexp._canvas.legacy.legacy object at 0x312ABE70>,<openexp._canvas.legacy.legacy object at 0x314BD8B0>,<openexp._canvas.legacy.legacy object at 0x13DD06D0>,<openexp._canvas.legacy.legacy object at 0x134171F0>,75,SpatProbMultiple3.osexp,C:/Userdata/Michel/SpatProbMultiple3,no,mono,no,18,no,white,no,yes,0.09,98,1050,legacy,315,47,47,1,C:/Userdata/Michel/SpatProbMultiple3/subject-11.csv,legacy,9,192,25,Jazzy James,3.1.3,yes,598477b2b83f69022949e7e9,47,red,circular,red,circular,0,/,1811,space,23746,23746,"(80, 80, 80)","(0, 123, 0)","(177, 0, 0)","(155, 155, 155)",2,legacy,experiment,"[2, 3, 4, 5, 6, 7, 0, 1]",/,2500,3000,0,8,252.7587515,1024,2,48000,-16,main,"[(0, -252), (178, -178), (252, 0), (178, 178), (0, 252), (-178, 178), (-252, 0), (-178, -178)]",[],35,odd,5,NA,72614006,72676764,72676764,72493588,72492583,72339630,72527913,72527912,72339631,72339631,72517335,72828764,72339628,72676764,72826949,72825953,72825953,NA,993,study_X,0,23746,1,yes,1680
undefined,undefined,NA,NA,NA,23746,23746,black,no,legacy,legacy,legacy,0,green,"(0, 123, 0)",color,present,highProb,circular,swap,same,same,same,red,"(177, 0, 0)",lowProb,lowProb4,circular,uniform,1,undefined,0,0.223958333,1,1,413.7135417,1,43,79433,0,0,0,0,0,0,0,0,74,0,1,0.223958333,413.7135417,43,79433,73,73,73,11/27/2018 10:14,Default description,yes,<openexp._canvas.legacy.legacy object at 0x30E36450>,<openexp._canvas.legacy.legacy object at 0x13DBCB10>,<openexp._canvas.legacy.legacy object at 0x13DD0C50>,<openexp._canvas.legacy.legacy object at 0x30E36A50>,<openexp._canvas.legacy.legacy object at 0x312ABE70>,<openexp._canvas.legacy.legacy object at 0x314BD8B0>,<openexp._canvas.legacy.legacy object at 0x314B5D30>,<openexp._canvas.legacy.legacy object at 0x134171F0>,75,SpatProbMultiple3.osexp,C:/Userdata/Michel/SpatProbMultiple3,no,mono,no,18,no,white,no,yes,0.09,98,1050,legacy,45,48,48,1,C:/Userdata/Michel/SpatProbMultiple3/subject-11.csv,legacy,9,192,25,Jazzy James,3.1.3,yes,598477b2b83f69022949e7e9,47,green,circular,red,circular,0,\,1123,space,23746,23746,"(80, 80, 80)","(0, 123, 0)","(177, 0, 0)","(155, 155, 155)",2,legacy,experiment,"[2, 3, 4, 5, 6, 7, 0, 1]",\,2500,3000,0,8,252.7587515,1024,2,48000,-16,main,"[(0, -252), (178, -178), (252, 0), (178, 178), (0, 252), (-178, 178), (-252, 0), (-178, -178)]",[],35,odd,7,NA,72614006,72676764,72676764,72493588,72492583,72339630,72527913,72527912,72339631,72339631,72517335,72831316,72339628,72676764,72830189,72829193,72829194,NA,993,study_X,0,23746,1,yes,1680
undefined,undefined,NA,NA,NA,23746,23746,black,no,legacy,legacy,legacy,0,red,"(177, 0, 0)",shape,present,highProb,rectangular,swap,swap,same,same,red,"(177, 0, 0)",lowProb,lowProb1,circular,uniform,1,undefined,0,0.229166667,1,1,422.7760417,1,44,81173,0,0,0,0,0,0,0,0,75,0,1,0.229166667,422.7760417,44,81173,74,74,74,11/27/2018 10:14,Default description,yes,<openexp._canvas.legacy.legacy object at 0x30E36450>,<openexp._canvas.legacy.legacy object at 0x13DBCB10>,<openexp._canvas.legacy.legacy object at 0x13DD0C50>,<openexp._canvas.legacy.legacy object at 0x30E36A50>,<openexp._canvas.legacy.legacy object at 0x312ABE70>,<openexp._canvas.legacy.legacy object at 0x314BD8B0>,<openexp._canvas.legacy.legacy object at 0x314300B0>,<openexp._canvas.legacy.legacy object at 0x134171F0>,75,SpatProbMultiple3.osexp,C:/Userdata/Michel/SpatProbMultiple3,no,mono,no,18,no,white,no,yes,0.09,98,1050,legacy,315,49,49,1,C:/Userdata/Michel/SpatProbMultiple3/subject-11.csv,legacy,9,192,25,Jazzy James,3.1.3,yes,598477b2b83f69022949e7e9,47,red,rectangular,red,circular,0,/,1740,space,23746,23746,"(80, 80, 80)","(0, 123, 0)","(177, 0, 0)","(155, 155, 155)",2,legacy,experiment,"[2, 3, 4, 5, 6, 7, 0, 1]",/,2500,3000,0,8,252.7587515,1024,2,48000,-16,main,"[(0, -252), (178, -178), (252, 0), (178, 178), (0, 252), (-178, 178), (-252, 0), (-178, -178)]",[],35,odd,3,NA,72614006,72676764,72676764,72493588,72492583,72339630,72527913,72527912,72339631,72339631,72517335,72834484,72339628,72676764,72832741,72831744,72831745,NA,993,study_X,0,23746,1,yes,1680
undefined,undefined,NA,NA,NA,23746,23746,black,no,legacy,legacy,legacy,0,red,"(177, 0, 0)",shape,present,highProb,circular,same,swap,same,swap,red,"(177, 0, 0)",lowProb,lowProb6,rectangular,uniform,1,undefined,0,0.234375,1,1,432.5729167,1,45,83054,0,0,0,0,0,0,0,0,76,0,1,0.234375,432.5729167,45,83054,75,75,75,11/27/2018 10:14,Default description,yes,<openexp._canvas.legacy.legacy object at 0x30E36450>,<openexp._canvas.legacy.legacy object at 0x13DBCB10>,<openexp._canvas.legacy.legacy object at 0x13DD0C50>,<openexp._canvas.legacy.legacy object at 0x30E36A50>,<openexp._canvas.legacy.legacy object at 0x312ABE70>,<openexp._canvas.legacy.legacy object at 0x314BD8B0>,<openexp._canvas.legacy.legacy object at 0x159AE930>,<openexp._canvas.legacy.legacy object at 0x134171F0>,75,SpatProbMultiple3.osexp,C:/Userdata/Michel/SpatProbMultiple3,no,mono,no,18,no,white,no,yes,0.09,98,1050,legacy,45,50,50,1,C:/Userdata/Michel/SpatProbMultiple3/subject-11.csv,legacy,9,192,25,Jazzy James,3.1.3,yes,598477b2b83f69022949e7e9,47,red,circular,red,rectangular,0,\,1881,space,23746,23746,"(80, 80, 80)","(0, 123, 0)","(177, 0, 0)","(155, 155, 155)",2,legacy,experiment,"[2, 3, 4, 5, 6, 7, 0, 1]",\,2500,3000,0,8,252.7587515,1024,2,48000,-16,main,"[(0, -252), (178, -178), (252, 0), (178, 178), (0, 252), (-178, 178), (-252, 0), (-178, -178)]",[],35,odd,1,NA,72614006,72676764,72676764,72493588,72492583,72339630,72527913,72527912,72339631,72339631,72517335,72837788,72339628,72676764,72835902,72834906,72834906,NA,993,study_X,0,23746,1,yes,1680
undefined,undefined,NA,NA,NA,23746,23746,black,no,legacy,legacy,legacy,0,green,"(0, 123, 0)",color,absent,highProb,rectangular,swap,swap,swap,same,green,"(0, 123, 0)",lowProb,lowProb1,rectangular,uniform,1,undefined,0,0.239583333,1,1,437.265625,1,46,83955,0,0,0,0,0,0,0,0,77,0,1,0.239583333,437.265625,46,83955,76,76,76,11/27/2018 10:14,Default description,yes,<openexp._canvas.legacy.legacy object at 0x30E36450>,<openexp._canvas.legacy.legacy object at 0x13DBCB10>,<openexp._canvas.legacy.legacy object at 0x13DD0C50>,<openexp._canvas.legacy.legacy object at 0x30E36A50>,<openexp._canvas.legacy.legacy object at 0x312ABE70>,<openexp._canvas.legacy.legacy object at 0x314BD8B0>,<openexp._canvas.legacy.legacy object at 0x309FB6F0>,<openexp._canvas.legacy.legacy object at 0x134171F0>,75,SpatProbMultiple3.osexp,C:/Userdata/Michel/SpatProbMultiple3,no,mono,no,18,no,white,no,yes,0.09,98,1050,legacy,45,51,51,1,C:/Userdata/Michel/SpatProbMultiple3/subject-11.csv,legacy,9,192,25,Jazzy James,3.1.3,yes,598477b2b83f69022949e7e9,47,green,rectangular,green,rectangular,0,\,901,space,23746,23746,"(80, 80, 80)","(0, 123, 0)","(177, 0, 0)","(155, 155, 155)",2,legacy,experiment,"[2, 3, 4, 5, 6, 7, 0, 1]",\,2500,3000,0,8,252.7587515,1024,2,48000,-16,main,"[(0, -252), (178, -178), (252, 0), (178, 178), (0, 252), (-178, 178), (-252, 0), (-178, -178)]",[],35,odd,3,NA,72614006,72676764,72676764,72493588,72492583,72339630,72527913,72527912,72339631,72339631,72517335,72840117,72339628,72676764,72839212,72838215,72838215,NA,993,study_X,0,23746,1,yes,1680
undefined,undefined,NA,NA,NA,23746,23746,black,no,legacy,legacy,legacy,0,green,"(0, 123, 0)",color,present,highProb,circular,same,swap,swap,swap,red,"(177, 0, 0)",lowProb,lowProb1,circular,uniform,1,undefined,0,0.244791667,1,1,441.6927083,1,47,84805,0,0,0,0,0,0,0,0,78,0,1,0.244791667,441.6927083,47,84805,77,77,77,11/27/2018 10:14,Default description,yes,<openexp._canvas.legacy.legacy object at 0x30E36450>,<openexp._canvas.legacy.legacy object at 0x13DBCB10>,<openexp._canvas.legacy.legacy object at 0x13DD0C50>,<openexp._canvas.legacy.legacy object at 0x30E36A50>,<openexp._canvas.legacy.legacy object at 0x312ABE70>,<openexp._canvas.legacy.legacy object at 0x314BD8B0>,<openexp._canvas.legacy.legacy object at 0x30E360D0>,<openexp._canvas.legacy.legacy object at 0x134171F0>,75,SpatProbMultiple3.osexp,C:/Userdata/Michel/SpatProbMultiple3,no,mono,no,18,no,white,no,yes,0.09,98,1050,legacy,45,52,52,1,C:/Userdata/Michel/SpatProbMultiple3/subject-11.csv,legacy,9,192,25,Jazzy James,3.1.3,yes,598477b2b83f69022949e7e9,47,green,circular,red,circular,0,\,850,space,23746,23746,"(80, 80, 80)","(0, 123, 0)","(177, 0, 0)","(155, 155, 155)",2,legacy,experiment,"[2, 3, 4, 5, 6, 7, 0, 1]",\,2500,3000,0,8,252.7587515,1024,2,48000,-16,main,"[(0, -252), (178, -178), (252, 0), (178, 178), (0, 252), (-178, 178), (-252, 0), (-178, -178)]",[],35,odd,3,NA,72614006,72676764,72676764,72493588,72492583,72339630,72527913,72527912,72339631,72339631,72517335,72842405,72339628,72676764,72841551,72840557,72840557,NA,993,study_X,0,23746,1,yes,1680
undefined,undefined,NA,NA,NA,23746,23746,black,no,legacy,legacy,legacy,0,green,"(0, 123, 0)",color,present,highProb,circular,same,same,same,same,red,"(177, 0, 0)",lowProb,lowProb6,circular,uniform,1,undefined,0,0.25,1,1,448.4479167,1,48,86102,0,0,0,0,0,0,0,0,79,0,1,0.25,448.4479167,48,86102,78,78,78,11/27/2018 10:14,Default description,yes,<openexp._canvas.legacy.legacy object at 0x30E36450>,<openexp._canvas.legacy.legacy object at 0x13DBCB10>,<openexp._canvas.legacy.legacy object at 0x13DD0C50>,<openexp._canvas.legacy.legacy object at 0x30E36A50>,<openexp._canvas.legacy.legacy object at 0x312ABE70>,<openexp._canvas.legacy.legacy object at 0x314BD8B0>,<openexp._canvas.legacy.legacy object at 0x13549EF0>,<openexp._canvas.legacy.legacy object at 0x134171F0>,75,SpatProbMultiple3.osexp,C:/Userdata/Michel/SpatProbMultiple3,no,mono,no,18,no,white,no,yes,0.09,98,1050,legacy,315,53,53,1,C:/Userdata/Michel/SpatProbMultiple3/subject-11.csv,legacy,9,192,25,Jazzy James,3.1.3,yes,598477b2b83f69022949e7e9,47,green,circular,red,circular,0,/,1297,space,23746,23746,"(80, 80, 80)","(0, 123, 0)","(177, 0, 0)","(155, 155, 155)",2,legacy,experiment,"[2, 3, 4, 5, 6, 7, 0, 1]",/,2500,3000,0,8,252.7587515,1024,2,48000,-16,main,"[(0, -252), (178, -178), (252, 0), (178, 178), (0, 252), (-178, 178), (-252, 0), (-178, -178)]",[],35,odd,1,NA,72614006,72676764,72676764,72493588,72492583,72339630,72527913,72527912,72339631,72339631,72517335,72845132,72339628,72676764,72843831,72842835,72842836,NA,993,study_X,0,23746,1,yes,1680
undefined,undefined,NA,NA,NA,23746,23746,black,no,legacy,legacy,legacy,0,green,"(0, 123, 0)",color,present,lowProb1,rectangular,same,swap,same,swap,red,"(177, 0, 0)",lowProb,lowProb2,rectangular,uniform,1,undefined,0,0.255208333,1,1,454.5104167,1,49,87266,0,0,0,0,0,0,0,0,80,0,1,0.255208333,454.5104167,49,87266,79,79,79,11/27/2018 10:14,Default description,yes,<openexp._canvas.legacy.legacy object at 0x30E36450>,<openexp._canvas.legacy.legacy object at 0x13DBCB10>,<openexp._canvas.legacy.legacy object at 0x13DD0C50>,<openexp._canvas.legacy.legacy object at 0x30E36A50>,<openexp._canvas.legacy.legacy object at 0x312ABE70>,<openexp._canvas.legacy.legacy object at 0x314BD8B0>,<openexp._canvas.legacy.legacy object at 0x134378F0>,<openexp._canvas.legacy.legacy object at 0x134171F0>,75,SpatProbMultiple3.osexp,C:/Userdata/Michel/SpatProbMultiple3,no,mono,no,18,no,white,no,yes,0.09,98,1050,legacy,45,54,54,1,C:/Userdata/Michel/SpatProbMultiple3/subject-11.csv,legacy,9,192,25,Jazzy James,3.1.3,yes,598477b2b83f69022949e7e9,47,green,rectangular,red,rectangular,0,\,1164,space,23746,23746,"(80, 80, 80)","(0, 123, 0)","(177, 0, 0)","(155, 155, 155)",2,legacy,experiment,"[2, 3, 4, 5, 6, 7, 0, 1]",\,2500,3000,0,8,252.7587515,1024,2,48000,-16,main,"[(0, -252), (178, -178), (252, 0), (178, 178), (0, 252), (-178, 178), (-252, 0), (-178, -178)]",[],35,odd,4,NA,72614006,72676764,72676764,72493588,72492583,72339630,72527913,72527912,72339631,72339631,72517335,72847716,72339628,72676764,72846549,72845552,72845553,NA,993,study_X,0,23746,1,yes,1680
undefined,undefined,NA,NA,NA,23746,23746,black,no,legacy,legacy,legacy,0,red,"(177, 0, 0)",shape,present,highProb,circular,swap,swap,same,same,red,"(177, 0, 0)",lowProb,lowProb6,rectangular,uniform,1,undefined,0,0.260416667,1,1,463.1875,1,50,88932,0,0,0,0,0,0,0,0,81,0,1,0.260416667,463.1875,50,88932,80,80,80,11/27/2018 10:14,Default description,yes,<openexp._canvas.legacy.legacy object at 0x30E36450>,<openexp._canvas.legacy.legacy object at 0x13DBCB10>,<openexp._canvas.legacy.legacy object at 0x13DD0C50>,<openexp._canvas.legacy.legacy object at 0x30E36A50>,<openexp._canvas.legacy.legacy object at 0x312ABE70>,<openexp._canvas.legacy.legacy object at 0x314BD8B0>,<openexp._canvas.legacy.legacy object at 0x13DBCA70>,<openexp._canvas.legacy.legacy object at 0x134171F0>,75,SpatProbMultiple3.osexp,C:/Userdata/Michel/SpatProbMultiple3,no,mono,no,18,no,white,no,yes,0.09,98,1050,legacy,315,55,55,1,C:/Userdata/Michel/SpatProbMultiple3/subject-11.csv,legacy,9,192,25,Jazzy James,3.1.3,yes,598477b2b83f69022949e7e9,47,red,circular,red,rectangular,0,/,1666,space,23746,23746,"(80, 80, 80)","(0, 123, 0)","(177, 0, 0)","(155, 155, 155)",2,legacy,experiment,"[2, 3, 4, 5, 6, 7, 0, 1]",/,2500,3000,0,8,252.7587515,1024,2,48000,-16,main,"[(0, -252), (178, -178), (252, 0), (178, 178), (0, 252), (-178, 178), (-252, 0), (-178, -178)]",[],35,odd,1,NA,72614006,72676764,72676764,72493588,72492583,72339630,72527913,72527912,72339631,72339631,72517335,72850812,72339628,72676764,72849142,72848146,72848146,NA,993,study_X,0,23746,1,yes,1680
undefined,undefined,NA,NA,NA,23746,23746,black,no,legacy,legacy,legacy,0,red,"(177, 0, 0)",shape,present,highProb,rectangular,same,swap,same,swap,red,"(177, 0, 0)",lowProb,lowProb4,circular,uniform,1,undefined,0,0.265625,1,1,469.6875,1,51,90180,0,0,0,0,0,0,0,0,82,0,1,0.265625,469.6875,51,90180,81,81,81,11/27/2018 10:14,Default description,yes,<openexp._canvas.legacy.legacy object at 0x30E36450>,<openexp._canvas.legacy.legacy object at 0x13DBCB10>,<openexp._canvas.legacy.legacy object at 0x13DD0C50>,<openexp._canvas.legacy.legacy object at 0x30E36A50>,<openexp._canvas.legacy.legacy object at 0x312ABE70>,<openexp._canvas.legacy.legacy object at 0x314BD8B0>,<openexp._canvas.legacy.legacy object at 0x159AF7B0>,<openexp._canvas.legacy.legacy object at 0x134171F0>,75,SpatProbMultiple3.osexp,C:/Userdata/Michel/SpatProbMultiple3,no,mono,no,18,no,white,no,yes,0.09,98,1050,legacy,315,56,56,1,C:/Userdata/Michel/SpatProbMultiple3/subject-11.csv,legacy,9,192,25,Jazzy James,3.1.3,yes,598477b2b83f69022949e7e9,47,red,rectangular,red,circular,0,/,1248,space,23746,23746,"(80, 80, 80)","(0, 123, 0)","(177, 0, 0)","(155, 155, 155)",2,legacy,experiment,"[2, 3, 4, 5, 6, 7, 0, 1]",/,2500,3000,0,8,252.7587515,1024,2,48000,-16,main,"[(0, -252), (178, -178), (252, 0), (178, 178), (0, 252), (-178, 178), (-252, 0), (-178, -178)]",[],35,odd,7,NA,72614006,72676764,72676764,72493588,72492583,72339630,72527913,72527912,72339631,72339631,72517335,72853492,72339628,72676764,72852239,72851243,72851244,NA,993,study_X,0,23746,1,yes,1680
undefined,undefined,NA,NA,NA,23746,23746,black,no,legacy,legacy,legacy,0,red,"(177, 0, 0)",shape,present,highProb,circular,same,swap,same,swap,red,"(177, 0, 0)",lowProb,lowProb3,rectangular,uniform,1,undefined,0,0.270833333,1,1,479.8645833,1,52,92134,0,0,0,0,0,0,0,0,83,0,1,0.270833333,479.8645833,52,92134,82,82,82,11/27/2018 10:14,Default description,yes,<openexp._canvas.legacy.legacy object at 0x30E36450>,<openexp._canvas.legacy.legacy object at 0x13DBCB10>,<openexp._canvas.legacy.legacy object at 0x13DD0C50>,<openexp._canvas.legacy.legacy object at 0x30E36A50>,<openexp._canvas.legacy.legacy object at 0x312ABE70>,<openexp._canvas.legacy.legacy object at 0x314BD8B0>,<openexp._canvas.legacy.legacy object at 0x31430250>,<openexp._canvas.legacy.legacy object at 0x134171F0>,75,SpatProbMultiple3.osexp,C:/Userdata/Michel/SpatProbMultiple3,no,mono,no,18,no,white,no,yes,0.09,98,1050,legacy,45,57,57,1,C:/Userdata/Michel/SpatProbMultiple3/subject-11.csv,legacy,9,192,25,Jazzy James,3.1.3,yes,598477b2b83f69022949e7e9,47,red,circular,red,rectangular,0,\,1954,space,23746,23746,"(80, 80, 80)","(0, 123, 0)","(177, 0, 0)","(155, 155, 155)",2,legacy,experiment,"[2, 3, 4, 5, 6, 7, 0, 1]",\,2500,3000,0,8,252.7587515,1024,2,48000,-16,main,"[(0, -252), (178, -178), (252, 0), (178, 178), (0, 252), (-178, 178), (-252, 0), (-178, -178)]",[],35,odd,5,NA,72614006,72676764,72676764,72493588,72492583,72339630,72527913,72527912,72339631,72339631,72517335,72856868,72339628,72676764,72854909,72853913,72853914,NA,993,study_X,0,23746,1,yes,1680
undefined,undefined,NA,NA,NA,23746,23746,black,no,legacy,legacy,legacy,0,red,"(177, 0, 0)",color,present,highProb,circular,same,same,swap,swap,green,"(0, 123, 0)",lowProb,lowProb2,circular,uniform,0,undefined,0,0.270833333,1,1,492.8854167,1,52,94634,0,0,0,0,0,0,0,0,84,0,1,0.270833333,492.8854167,52,94634,83,83,83,11/27/2018 10:14,Default description,yes,<openexp._canvas.legacy.legacy object at 0x30E36450>,<openexp._canvas.legacy.legacy object at 0x13DBCB10>,<openexp._canvas.legacy.legacy object at 0x13DD0C50>,<openexp._canvas.legacy.legacy object at 0x30E36A50>,<openexp._canvas.legacy.legacy object at 0x312ABE70>,<openexp._canvas.legacy.legacy object at 0x314BD8B0>,<openexp._canvas.legacy.legacy object at 0x13437470>,<openexp._canvas.legacy.legacy object at 0x134171F0>,75,SpatProbMultiple3.osexp,C:/Userdata/Michel/SpatProbMultiple3,no,mono,no,18,no,white,no,yes,0.09,98,1050,legacy,315,58,58,1,C:/Userdata/Michel/SpatProbMultiple3/subject-11.csv,legacy,9,192,25,Jazzy James,3.1.3,yes,598477b2b83f69022949e7e9,47,red,circular,green,circular,0,None,2500,space,23746,23746,"(80, 80, 80)","(0, 123, 0)","(177, 0, 0)","(155, 155, 155)",2,legacy,experiment,"[2, 3, 4, 5, 6, 7, 0, 1]",/,2500,3000,0,8,252.7587515,1024,2,48000,-16,main,"[(0, -252), (178, -178), (252, 0), (178, 178), (0, 252), (-178, 178), (-252, 0), (-178, -178)]",[],35,odd,4,NA,72614006,72676764,72676764,72493588,72492583,72339630,72527913,72527912,72339631,72339631,72517335,72860798,72339628,72676764,72858294,72857298,72857299,NA,993,study_X,0,23746,1,yes,1680
undefined,undefined,NA,NA,NA,23746,23746,black,no,legacy,legacy,legacy,0,green,"(0, 123, 0)",color,present,highProb,circular,swap,same,swap,same,red,"(177, 0, 0)",lowProb,lowProb6,circular,uniform,1,undefined,0,0.276041667,1,1,499.65625,1,53,95934,0,0,0,0,0,0,0,0,85,0,1,0.276041667,499.65625,53,95934,84,84,84,11/27/2018 10:14,Default description,yes,<openexp._canvas.legacy.legacy object at 0x30E36450>,<openexp._canvas.legacy.legacy object at 0x13DBCB10>,<openexp._canvas.legacy.legacy object at 0x13DD0C50>,<openexp._canvas.legacy.legacy object at 0x30E36A50>,<openexp._canvas.legacy.legacy object at 0x312ABE70>,<openexp._canvas.legacy.legacy object at 0x314BD8B0>,<openexp._canvas.legacy.legacy object at 0x13DBC6F0>,<openexp._canvas.legacy.legacy object at 0x134171F0>,75,SpatProbMultiple3.osexp,C:/Userdata/Michel/SpatProbMultiple3,no,mono,no,18,no,white,no,yes,0.09,98,1050,legacy,45,59,59,1,C:/Userdata/Michel/SpatProbMultiple3/subject-11.csv,legacy,9,192,25,Jazzy James,3.1.3,yes,598477b2b83f69022949e7e9,47,green,circular,red,circular,0,\,1300,space,23746,23746,"(80, 80, 80)","(0, 123, 0)","(177, 0, 0)","(155, 155, 155)",2,legacy,experiment,"[2, 3, 4, 5, 6, 7, 0, 1]",\,2500,3000,0,8,252.7587515,1024,2,48000,-16,main,"[(0, -252), (178, -178), (252, 0), (178, 178), (0, 252), (-178, 178), (-252, 0), (-178, -178)]",[],35,odd,1,NA,72614006,72676764,72676764,72493588,72492583,72339630,72527913,72527912,72339631,72339631,72517335,72863532,72339628,72676764,72862228,72861233,72861233,NA,993,study_X,0,23746,1,yes,1680
undefined,undefined,NA,NA,NA,23746,23746,black,no,legacy,legacy,legacy,0,red,"(177, 0, 0)",color,present,highProb,circular,swap,same,swap,same,green,"(0, 123, 0)",lowProb,lowProb3,circular,uniform,0,undefined,0,0.276041667,1,1,512.6770833,1,53,98434,0,0,0,0,0,0,0,0,86,0,1,0.276041667,512.6770833,53,98434,85,85,85,11/27/2018 10:14,Default description,yes,<openexp._canvas.legacy.legacy object at 0x30E36450>,<openexp._canvas.legacy.legacy object at 0x13DBCB10>,<openexp._canvas.legacy.legacy object at 0x13DD0C50>,<openexp._canvas.legacy.legacy object at 0x30E36A50>,<openexp._canvas.legacy.legacy object at 0x312ABE70>,<openexp._canvas.legacy.legacy object at 0x314BD8B0>,<openexp._canvas.legacy.legacy object at 0x159AE6D0>,<openexp._canvas.legacy.legacy object at 0x134171F0>,75,SpatProbMultiple3.osexp,C:/Userdata/Michel/SpatProbMultiple3,no,mono,no,18,no,white,no,yes,0.09,98,1050,legacy,45,60,60,1,C:/Userdata/Michel/SpatProbMultiple3/subject-11.csv,legacy,9,192,25,Jazzy James,3.1.3,yes,598477b2b83f69022949e7e9,47,red,circular,green,circular,0,None,2500,space,23746,23746,"(80, 80, 80)","(0, 123, 0)","(177, 0, 0)","(155, 155, 155)",2,legacy,experiment,"[2, 3, 4, 5, 6, 7, 0, 1]",\,2500,3000,0,8,252.7587515,1024,2,48000,-16,main,"[(0, -252), (178, -178), (252, 0), (178, 178), (0, 252), (-178, 178), (-252, 0), (-178, -178)]",[],35,odd,5,NA,72614006,72676764,72676764,72493588,72492583,72339630,72527913,72527912,72339631,72339631,72517335,72867466,72339628,72676764,72864962,72863967,72863967,NA,993,study_X,0,23746,1,yes,1680
undefined,undefined,NA,NA,NA,23746,23746,black,no,legacy,legacy,legacy,0,red,"(177, 0, 0)",shape,present,highProb,rectangular,same,swap,swap,same,red,"(177, 0, 0)",lowProb,lowProb3,circular,uniform,1,undefined,0,0.28125,1,1,519.5104167,1,54,99746,0,0,0,0,0,0,0,0,87,0,1,0.28125,519.5104167,54,99746,86,86,86,11/27/2018 10:14,Default description,yes,<openexp._canvas.legacy.legacy object at 0x30E36450>,<openexp._canvas.legacy.legacy object at 0x13DBCB10>,<openexp._canvas.legacy.legacy object at 0x13DD0C50>,<openexp._canvas.legacy.legacy object at 0x30E36A50>,<openexp._canvas.legacy.legacy object at 0x312ABE70>,<openexp._canvas.legacy.legacy object at 0x314BD8B0>,<openexp._canvas.legacy.legacy object at 0x31430110>,<openexp._canvas.legacy.legacy object at 0x134171F0>,75,SpatProbMultiple3.osexp,C:/Userdata/Michel/SpatProbMultiple3,no,mono,no,18,no,white,no,yes,0.09,98,1050,legacy,315,61,61,1,C:/Userdata/Michel/SpatProbMultiple3/subject-11.csv,legacy,9,192,25,Jazzy James,3.1.3,yes,598477b2b83f69022949e7e9,47,red,rectangular,red,circular,0,/,1312,space,23746,23746,"(80, 80, 80)","(0, 123, 0)","(177, 0, 0)","(155, 155, 155)",2,legacy,experiment,"[2, 3, 4, 5, 6, 7, 0, 1]",/,2500,3000,0,8,252.7587515,1024,2,48000,-16,main,"[(0, -252), (178, -178), (252, 0), (178, 178), (0, 252), (-178, 178), (-252, 0), (-178, -178)]",[],35,odd,5,NA,72614006,72676764,72676764,72493588,72492583,72339630,72527913,72527912,72339631,72339631,72517335,72870212,72339628,72676764,72868896,72867899,72867900,NA,993,study_X,0,23746,1,yes,1680
undefined,undefined,NA,NA,NA,23746,23746,black,no,legacy,legacy,legacy,0,green,"(0, 123, 0)",shape,present,lowProb5,circular,swap,swap,swap,swap,green,"(0, 123, 0)",lowProb,lowProb4,rectangular,uniform,1,undefined,0,0.286458333,1,1,526.5104167,1,55,101090,0,0,0,0,0,0,0,0,88,0,1,0.286458333,526.5104167,55,101090,87,87,87,11/27/2018 10:14,Default description,yes,<openexp._canvas.legacy.legacy object at 0x30E36450>,<openexp._canvas.legacy.legacy object at 0x13DBCB10>,<openexp._canvas.legacy.legacy object at 0x13DD0C50>,<openexp._canvas.legacy.legacy object at 0x30E36A50>,<openexp._canvas.legacy.legacy object at 0x312ABE70>,<openexp._canvas.legacy.legacy object at 0x314BD8B0>,<openexp._canvas.legacy.legacy object at 0x159AE6D0>,<openexp._canvas.legacy.legacy object at 0x134171F0>,75,SpatProbMultiple3.osexp,C:/Userdata/Michel/SpatProbMultiple3,no,mono,no,18,no,white,no,yes,0.09,98,1050,legacy,315,62,62,1,C:/Userdata/Michel/SpatProbMultiple3/subject-11.csv,legacy,9,192,25,Jazzy James,3.1.3,yes,598477b2b83f69022949e7e9,47,green,circular,green,rectangular,0,/,1344,space,23746,23746,"(80, 80, 80)","(0, 123, 0)","(177, 0, 0)","(155, 155, 155)",2,legacy,experiment,"[2, 3, 4, 5, 6, 7, 0, 1]",/,2500,3000,0,8,252.7587515,1024,2,48000,-16,main,"[(0, -252), (178, -178), (252, 0), (178, 178), (0, 252), (-178, 178), (-252, 0), (-178, -178)]",[],35,odd,7,NA,72614006,72676764,72676764,72493588,72492583,72339630,72527913,72527912,72339631,72339631,72517335,72872980,72339628,72676764,72871631,72870635,72870636,NA,993,study_X,0,23746,1,yes,1680
