acc,accuracy,answerQ1,answerQ2,answerQ3,average_response_time,avg_rt,background,bidi,canvas_backend,clock_backend,color_backend,compensation,cond_disColor,cond_disColorRGB,cond_disFeature,cond_disPresent,cond_disProbability,cond_disShape,cond_primingDisColor,cond_primingDisShape,cond_primingTarColor,cond_primingTarShape,cond_tarColor,cond_tarColorRGB,cond_tarLocation,cond_tarLocationLong,cond_tarShape,coordinates,correct,correct_continuePress,count_Questions,count_blockAcc,count_blockFeed,count_blockLoop,count_blockRT,count_blockSeq,count_blockSumCorrect,count_blockSumRT,count_continuePress,count_example,count_expSettings,count_exp_mainLoop,count_experiment,count_instructions,count_instructions1,count_instructions2,count_log,count_main,count_prepCanvas,count_totalAcc,count_totalRT,count_totalSumCorrect,count_totalSumRT,count_trialResp,count_trialSeq,count_trialTask,datetime,description,disable_garbage_collection,dispBlank,dispBlockStart,dispFeedBlock,dispFix,dispInstructions,dispQuestions,dispSearch,dispStartScreen,distance2screen,experiment_file,experiment_path,font_bold,font_family,font_italic,font_size,font_underline,foreground,form_clicks,fullscreen,gaborFreq,gaborSize,height,keyboard_backend,lineOriTar,live_row,live_row_blockLoop,live_row_exp_mainLoop,logfile,mouse_backend,noExpBlocks,noExpTrials,noPracTrials,opensesame_codename,opensesame_version,osf_always_upload_experiment,osf_id,physical_screensize,previousDisColor,previousDisShape,previousTarColor,previousTarShape,repeat_cycle,response,responseTime,response_continuePress,response_time,response_time_continuePress,rgb_gray,rgb_green,rgb_red,rgb_white,round_decimals,sampler_backend,set_blockType,set_counterPositions,set_respCorrect,set_respTimeoutExp,set_respTimeoutPrac,set_rotation,set_setSize,sizeImaginary,sound_buf_size,sound_channels,sound_freq,sound_sample_size,start,stimPositions,stimuli,subject_nr,subject_parity,tarIdx,time_Questions,time_blockFeed,time_blockLoop,time_blockSeq,time_continuePress,time_example,time_expSettings,time_exp_mainLoop,time_experiment,time_instructions,time_instructions1,time_instructions2,time_log,time_main,time_prepCanvas,time_trialResp,time_trialSeq,time_trialTask,timing_EEGwait,timing_fix,title,total_correct,total_response_time,total_responses,uniform_coordinates,width
undefined,undefined,NA,NA,NA,5444,5444,black,no,legacy,legacy,legacy,0,green,"(0, 123, 0)",color,absent,lowProb2,rectangular,swap,swap,same,swap,green,"(0, 123, 0)",highProbColor,highProbColor,rectangular,uniform,1,undefined,0,0.005208333,1,1,7.385416667,1,1,1418,0,0,0,0,0,0,0,0,26,0,1,0.005208333,7.385416667,1,1418,25,25,25,11/20/2018 13:51,Default description,yes,<openexp._canvas.legacy.Legacy object at 0x0529C1B0>,<openexp._canvas.legacy.Legacy object at 0x0505D1B0>,<openexp._canvas.legacy.Legacy object at 0x05048330>,<openexp._canvas.legacy.Legacy object at 0x05529E70>,<openexp._canvas.legacy.Legacy object at 0x055118D0>,<openexp._canvas.legacy.Legacy object at 0x05293210>,<openexp._canvas.legacy.Legacy object at 0x0505D230>,<openexp._canvas.legacy.Legacy object at 0x0576DB70>,75,SpatProbMultiple3 (2).osexp,C:/Userdata/Michel/SpatProbMultiple3,no,mono,no,18,no,white,no,yes,0.09,98,1050,legacy,45,0,0,1,C:/Userdata/Michel/SpatProbMultiple3/subject-2.csv,legacy,12,192,25,Kafkaesque Koffka,3.2.5,yes,598477b2b83f69022949e7e9,47,green,rectangular,green,rectangular,0,\,1418,space,5444,5444,"(80, 80, 80)","(0, 123, 0)","(177, 0, 0)","(155, 155, 155)",2,legacy,experiment,"[1, 2, 3, 4, 5, 6, 7, 0]",\,2500,3000,0,8,252.7587515,1024,2,48000,-16,main,"[(0, -252), (178, -178), (252, 0), (178, 178), (0, 252), (-178, 178), (-252, 0), (-178, -178)]",[],26,even,1,NA,214634,542771,542771,142507,141495,2003,149219,149219,2003,2003,147951,550501,2002,542771,549079,543163,543163,NA,751,study_X,0,5444,1,yes,1680
undefined,undefined,NA,NA,NA,5444,5444,black,no,legacy,legacy,legacy,0,green,"(0, 123, 0)",color,present,highProb,circular,same,swap,swap,swap,red,"(177, 0, 0)",lowProb,lowProb1,circular,uniform,1,undefined,0,0.010416667,1,1,14.765625,1,2,2835,0,0,0,0,0,0,0,0,27,0,1,0.010416667,14.765625,2,2835,26,26,26,11/20/2018 13:51,Default description,yes,<openexp._canvas.legacy.Legacy object at 0x0529C1B0>,<openexp._canvas.legacy.Legacy object at 0x0505D1B0>,<openexp._canvas.legacy.Legacy object at 0x05048330>,<openexp._canvas.legacy.Legacy object at 0x05529E70>,<openexp._canvas.legacy.Legacy object at 0x055118D0>,<openexp._canvas.legacy.Legacy object at 0x05293210>,<openexp._canvas.legacy.Legacy object at 0x052AB390>,<openexp._canvas.legacy.Legacy object at 0x0576DB70>,75,SpatProbMultiple3 (2).osexp,C:/Userdata/Michel/SpatProbMultiple3,no,mono,no,18,no,white,no,yes,0.09,98,1050,legacy,45,1,1,1,C:/Userdata/Michel/SpatProbMultiple3/subject-2.csv,legacy,12,192,25,Kafkaesque Koffka,3.2.5,yes,598477b2b83f69022949e7e9,47,green,circular,red,circular,0,\,1417,space,5444,5444,"(80, 80, 80)","(0, 123, 0)","(177, 0, 0)","(155, 155, 155)",2,legacy,experiment,"[1, 2, 3, 4, 5, 6, 7, 0]",\,2500,3000,0,8,252.7587515,1024,2,48000,-16,main,"[(0, -252), (178, -178), (252, 0), (178, 178), (0, 252), (-178, 178), (-252, 0), (-178, -178)]",[],26,even,2,NA,214634,542771,542771,142507,141495,2003,149219,149219,2003,2003,147951,553132,2002,542771,551713,550952,550952,NA,751,study_X,0,5444,1,yes,1680
undefined,undefined,NA,NA,NA,5444,5444,black,no,legacy,legacy,legacy,0,green,"(0, 123, 0)",color,present,lowProb5,circular,same,same,same,same,red,"(177, 0, 0)",lowProb,lowProb6,circular,uniform,1,undefined,0,0.015625,1,1,17.75520833,1,3,3409,0,0,0,0,0,0,0,0,28,0,1,0.015625,17.75520833,3,3409,27,27,27,11/20/2018 13:51,Default description,yes,<openexp._canvas.legacy.Legacy object at 0x0529C1B0>,<openexp._canvas.legacy.Legacy object at 0x0505D1B0>,<openexp._canvas.legacy.Legacy object at 0x05048330>,<openexp._canvas.legacy.Legacy object at 0x05529E70>,<openexp._canvas.legacy.Legacy object at 0x055118D0>,<openexp._canvas.legacy.Legacy object at 0x05293210>,<openexp._canvas.legacy.Legacy object at 0x0576D6F0>,<openexp._canvas.legacy.Legacy object at 0x0576DB70>,75,SpatProbMultiple3 (2).osexp,C:/Userdata/Michel/SpatProbMultiple3,no,mono,no,18,no,white,no,yes,0.09,98,1050,legacy,45,2,2,1,C:/Userdata/Michel/SpatProbMultiple3/subject-2.csv,legacy,12,192,25,Kafkaesque Koffka,3.2.5,yes,598477b2b83f69022949e7e9,47,green,circular,red,circular,0,\,574,space,5444,5444,"(80, 80, 80)","(0, 123, 0)","(177, 0, 0)","(155, 155, 155)",2,legacy,experiment,"[1, 2, 3, 4, 5, 6, 7, 0]",\,2500,3000,0,8,252.7587515,1024,2,48000,-16,main,"[(0, -252), (178, -178), (252, 0), (178, 178), (0, 252), (-178, 178), (-252, 0), (-178, -178)]",[],26,even,0,NA,214634,542771,542771,142507,141495,2003,149219,149219,2003,2003,147951,554900,2002,542771,554323,553562,553562,NA,751,study_X,0,5444,1,yes,1680
undefined,undefined,NA,NA,NA,5444,5444,black,no,legacy,legacy,legacy,0,green,"(0, 123, 0)",color,present,highProb,rectangular,same,swap,same,swap,red,"(177, 0, 0)",lowProb,lowProb1,rectangular,uniform,1,undefined,0,0.020833333,1,1,25.27604167,1,4,4853,0,0,0,0,0,0,0,0,29,0,1,0.020833333,25.27604167,4,4853,28,28,28,11/20/2018 13:51,Default description,yes,<openexp._canvas.legacy.Legacy object at 0x0529C1B0>,<openexp._canvas.legacy.Legacy object at 0x0505D1B0>,<openexp._canvas.legacy.Legacy object at 0x05048330>,<openexp._canvas.legacy.Legacy object at 0x05529E70>,<openexp._canvas.legacy.Legacy object at 0x055118D0>,<openexp._canvas.legacy.Legacy object at 0x05293210>,<openexp._canvas.legacy.Legacy object at 0x052AA310>,<openexp._canvas.legacy.Legacy object at 0x0576DB70>,75,SpatProbMultiple3 (2).osexp,C:/Userdata/Michel/SpatProbMultiple3,no,mono,no,18,no,white,no,yes,0.09,98,1050,legacy,315,3,3,1,C:/Userdata/Michel/SpatProbMultiple3/subject-2.csv,legacy,12,192,25,Kafkaesque Koffka,3.2.5,yes,598477b2b83f69022949e7e9,47,green,rectangular,red,rectangular,0,/,1444,space,5444,5444,"(80, 80, 80)","(0, 123, 0)","(177, 0, 0)","(155, 155, 155)",2,legacy,experiment,"[1, 2, 3, 4, 5, 6, 7, 0]",/,2500,3000,0,8,252.7587515,1024,2,48000,-16,main,"[(0, -252), (178, -178), (252, 0), (178, 178), (0, 252), (-178, 178), (-252, 0), (-178, -178)]",[],26,even,2,NA,214634,542771,542771,142507,141495,2003,149219,149219,2003,2003,147951,557532,2002,542771,556085,555325,555325,NA,751,study_X,0,5444,1,yes,1680
undefined,undefined,NA,NA,NA,5444,5444,black,no,legacy,legacy,legacy,0,green,"(0, 123, 0)",color,absent,lowProb5,rectangular,same,same,swap,same,green,"(0, 123, 0)",lowProb,lowProb2,rectangular,uniform,0,undefined,0,0.020833333,1,1,38.296875,1,4,7353,0,0,0,0,0,0,0,0,30,0,1,0.020833333,38.296875,4,7353,29,29,29,11/20/2018 13:51,Default description,yes,<openexp._canvas.legacy.Legacy object at 0x0529C1B0>,<openexp._canvas.legacy.Legacy object at 0x0505D1B0>,<openexp._canvas.legacy.Legacy object at 0x05048330>,<openexp._canvas.legacy.Legacy object at 0x05529E70>,<openexp._canvas.legacy.Legacy object at 0x055118D0>,<openexp._canvas.legacy.Legacy object at 0x05293210>,<openexp._canvas.legacy.Legacy object at 0x052ABE10>,<openexp._canvas.legacy.Legacy object at 0x0576DB70>,75,SpatProbMultiple3 (2).osexp,C:/Userdata/Michel/SpatProbMultiple3,no,mono,no,18,no,white,no,yes,0.09,98,1050,legacy,45,4,4,1,C:/Userdata/Michel/SpatProbMultiple3/subject-2.csv,legacy,12,192,25,Kafkaesque Koffka,3.2.5,yes,598477b2b83f69022949e7e9,47,green,rectangular,green,rectangular,0,None,2500,space,5444,5444,"(80, 80, 80)","(0, 123, 0)","(177, 0, 0)","(155, 155, 155)",2,legacy,experiment,"[1, 2, 3, 4, 5, 6, 7, 0]",\,2500,3000,0,8,252.7587515,1024,2,48000,-16,main,"[(0, -252), (178, -178), (252, 0), (178, 178), (0, 252), (-178, 178), (-252, 0), (-178, -178)]",[],26,even,3,NA,214634,542771,542771,142507,141495,2003,149219,149219,2003,2003,147951,561223,2002,542771,558721,557961,557961,NA,751,study_X,0,5444,1,yes,1680
undefined,undefined,NA,NA,NA,5444,5444,black,no,legacy,legacy,legacy,0,green,"(0, 123, 0)",color,present,highProb,circular,same,swap,swap,swap,red,"(177, 0, 0)",lowProb,lowProb1,circular,uniform,1,undefined,0,0.026041667,1,1,44.20833333,1,5,8488,0,0,0,0,0,0,0,0,31,0,1,0.026041667,44.20833333,5,8488,30,30,30,11/20/2018 13:51,Default description,yes,<openexp._canvas.legacy.Legacy object at 0x0529C1B0>,<openexp._canvas.legacy.Legacy object at 0x0505D1B0>,<openexp._canvas.legacy.Legacy object at 0x05048330>,<openexp._canvas.legacy.Legacy object at 0x05529E70>,<openexp._canvas.legacy.Legacy object at 0x055118D0>,<openexp._canvas.legacy.Legacy object at 0x05293210>,<openexp._canvas.legacy.Legacy object at 0x057602D0>,<openexp._canvas.legacy.Legacy object at 0x0576DB70>,75,SpatProbMultiple3 (2).osexp,C:/Userdata/Michel/SpatProbMultiple3,no,mono,no,18,no,white,no,yes,0.09,98,1050,legacy,45,5,5,1,C:/Userdata/Michel/SpatProbMultiple3/subject-2.csv,legacy,12,192,25,Kafkaesque Koffka,3.2.5,yes,598477b2b83f69022949e7e9,47,green,circular,red,circular,0,\,1135,space,5444,5444,"(80, 80, 80)","(0, 123, 0)","(177, 0, 0)","(155, 155, 155)",2,legacy,experiment,"[1, 2, 3, 4, 5, 6, 7, 0]",\,2500,3000,0,8,252.7587515,1024,2,48000,-16,main,"[(0, -252), (178, -178), (252, 0), (178, 178), (0, 252), (-178, 178), (-252, 0), (-178, -178)]",[],26,even,2,NA,214634,542771,542771,142507,141495,2003,149219,149219,2003,2003,147951,563557,2002,542771,562418,561657,561657,NA,751,study_X,0,5444,1,yes,1680
undefined,undefined,NA,NA,NA,5444,5444,black,no,legacy,legacy,legacy,0,red,"(177, 0, 0)",shape,present,highProb,circular,swap,same,same,swap,red,"(177, 0, 0)",lowProb,lowProb1,rectangular,uniform,1,undefined,0,0.03125,1,1,51.86458333,1,6,9958,0,0,0,0,0,0,0,0,32,0,1,0.03125,51.86458333,6,9958,31,31,31,11/20/2018 13:51,Default description,yes,<openexp._canvas.legacy.Legacy object at 0x0529C1B0>,<openexp._canvas.legacy.Legacy object at 0x0505D1B0>,<openexp._canvas.legacy.Legacy object at 0x05048330>,<openexp._canvas.legacy.Legacy object at 0x05529E70>,<openexp._canvas.legacy.Legacy object at 0x055118D0>,<openexp._canvas.legacy.Legacy object at 0x05293210>,<openexp._canvas.legacy.Legacy object at 0x05048AD0>,<openexp._canvas.legacy.Legacy object at 0x0576DB70>,75,SpatProbMultiple3 (2).osexp,C:/Userdata/Michel/SpatProbMultiple3,no,mono,no,18,no,white,no,yes,0.09,98,1050,legacy,45,6,6,1,C:/Userdata/Michel/SpatProbMultiple3/subject-2.csv,legacy,12,192,25,Kafkaesque Koffka,3.2.5,yes,598477b2b83f69022949e7e9,47,red,circular,red,rectangular,0,\,1470,space,5444,5444,"(80, 80, 80)","(0, 123, 0)","(177, 0, 0)","(155, 155, 155)",2,legacy,experiment,"[1, 2, 3, 4, 5, 6, 7, 0]",\,2500,3000,0,8,252.7587515,1024,2,48000,-16,main,"[(0, -252), (178, -178), (252, 0), (178, 178), (0, 252), (-178, 178), (-252, 0), (-178, -178)]",[],26,even,2,NA,214634,542771,542771,142507,141495,2003,149219,149219,2003,2003,147951,566205,2002,542771,564731,563970,563970,NA,751,study_X,0,5444,1,yes,1680
undefined,undefined,NA,NA,NA,5444,5444,black,no,legacy,legacy,legacy,0,green,"(0, 123, 0)",color,absent,highProb,rectangular,swap,swap,swap,same,green,"(0, 123, 0)",lowProb,lowProb2,rectangular,uniform,1,undefined,0,0.036458333,1,1,58.63541667,1,7,11258,0,0,0,0,0,0,0,0,33,0,1,0.036458333,58.63541667,7,11258,32,32,32,11/20/2018 13:51,Default description,yes,<openexp._canvas.legacy.Legacy object at 0x0529C1B0>,<openexp._canvas.legacy.Legacy object at 0x0505D1B0>,<openexp._canvas.legacy.Legacy object at 0x05048330>,<openexp._canvas.legacy.Legacy object at 0x05529E70>,<openexp._canvas.legacy.Legacy object at 0x055118D0>,<openexp._canvas.legacy.Legacy object at 0x05293210>,<openexp._canvas.legacy.Legacy object at 0x052ABC70>,<openexp._canvas.legacy.Legacy object at 0x0576DB70>,75,SpatProbMultiple3 (2).osexp,C:/Userdata/Michel/SpatProbMultiple3,no,mono,no,18,no,white,no,yes,0.09,98,1050,legacy,315,7,7,1,C:/Userdata/Michel/SpatProbMultiple3/subject-2.csv,legacy,12,192,25,Kafkaesque Koffka,3.2.5,yes,598477b2b83f69022949e7e9,47,green,rectangular,green,rectangular,0,/,1300,space,5444,5444,"(80, 80, 80)","(0, 123, 0)","(177, 0, 0)","(155, 155, 155)",2,legacy,experiment,"[1, 2, 3, 4, 5, 6, 7, 0]",/,2500,3000,0,8,252.7587515,1024,2,48000,-16,main,"[(0, -252), (178, -178), (252, 0), (178, 178), (0, 252), (-178, 178), (-252, 0), (-178, -178)]",[],26,even,3,NA,214634,542771,542771,142507,141495,2003,149219,149219,2003,2003,147951,568693,2002,542771,567390,566630,566630,NA,751,study_X,0,5444,1,yes,1680
undefined,undefined,NA,NA,NA,5444,5444,black,no,legacy,legacy,legacy,0,green,"(0, 123, 0)",shape,absent,highProb,circular,same,swap,same,swap,green,"(0, 123, 0)",highProbShape,highProbShape,circular,uniform,1,undefined,0,0.041666667,1,1,62.59375,1,8,12018,0,0,0,0,0,0,0,0,34,0,1,0.041666667,62.59375,8,12018,33,33,33,11/20/2018 13:51,Default description,yes,<openexp._canvas.legacy.Legacy object at 0x0529C1B0>,<openexp._canvas.legacy.Legacy object at 0x0505D1B0>,<openexp._canvas.legacy.Legacy object at 0x05048330>,<openexp._canvas.legacy.Legacy object at 0x05529E70>,<openexp._canvas.legacy.Legacy object at 0x055118D0>,<openexp._canvas.legacy.Legacy object at 0x05293210>,<openexp._canvas.legacy.Legacy object at 0x0576D6F0>,<openexp._canvas.legacy.Legacy object at 0x0576DB70>,75,SpatProbMultiple3 (2).osexp,C:/Userdata/Michel/SpatProbMultiple3,no,mono,no,18,no,white,no,yes,0.09,98,1050,legacy,315,8,8,1,C:/Userdata/Michel/SpatProbMultiple3/subject-2.csv,legacy,12,192,25,Kafkaesque Koffka,3.2.5,yes,598477b2b83f69022949e7e9,47,green,circular,green,circular,0,/,760,space,5444,5444,"(80, 80, 80)","(0, 123, 0)","(177, 0, 0)","(155, 155, 155)",2,legacy,experiment,"[1, 2, 3, 4, 5, 6, 7, 0]",/,2500,3000,0,8,252.7587515,1024,2,48000,-16,main,"[(0, -252), (178, -178), (252, 0), (178, 178), (0, 252), (-178, 178), (-252, 0), (-178, -178)]",[],26,even,5,NA,214634,542771,542771,142507,141495,2003,149219,149219,2003,2003,147951,570644,2002,542771,569882,569122,569122,NA,751,study_X,0,5444,1,yes,1680
undefined,undefined,NA,NA,NA,5444,5444,black,no,legacy,legacy,legacy,0,green,"(0, 123, 0)",color,present,lowProb1,rectangular,same,swap,swap,swap,red,"(177, 0, 0)",lowProb,lowProb2,rectangular,uniform,1,undefined,0,0.046875,1,1,67.26041667,1,9,12914,0,0,0,0,0,0,0,0,35,0,1,0.046875,67.26041667,9,12914,34,34,34,11/20/2018 13:51,Default description,yes,<openexp._canvas.legacy.Legacy object at 0x0529C1B0>,<openexp._canvas.legacy.Legacy object at 0x0505D1B0>,<openexp._canvas.legacy.Legacy object at 0x05048330>,<openexp._canvas.legacy.Legacy object at 0x05529E70>,<openexp._canvas.legacy.Legacy object at 0x055118D0>,<openexp._canvas.legacy.Legacy object at 0x05293210>,<openexp._canvas.legacy.Legacy object at 0x05529DB0>,<openexp._canvas.legacy.Legacy object at 0x0576DB70>,75,SpatProbMultiple3 (2).osexp,C:/Userdata/Michel/SpatProbMultiple3,no,mono,no,18,no,white,no,yes,0.09,98,1050,legacy,45,9,9,1,C:/Userdata/Michel/SpatProbMultiple3/subject-2.csv,legacy,12,192,25,Kafkaesque Koffka,3.2.5,yes,598477b2b83f69022949e7e9,47,green,rectangular,red,rectangular,0,\,896,space,5444,5444,"(80, 80, 80)","(0, 123, 0)","(177, 0, 0)","(155, 155, 155)",2,legacy,experiment,"[1, 2, 3, 4, 5, 6, 7, 0]",\,2500,3000,0,8,252.7587515,1024,2,48000,-16,main,"[(0, -252), (178, -178), (252, 0), (178, 178), (0, 252), (-178, 178), (-252, 0), (-178, -178)]",[],26,even,3,NA,214634,542771,542771,142507,141495,2003,149219,149219,2003,2003,147951,572724,2002,542771,571825,571065,571065,NA,751,study_X,0,5444,1,yes,1680
undefined,undefined,NA,NA,NA,5444,5444,black,no,legacy,legacy,legacy,0,green,"(0, 123, 0)",shape,present,highProb,circular,same,swap,swap,same,green,"(0, 123, 0)",highProbColor,highProbColor,rectangular,uniform,1,undefined,0,0.052083333,1,1,74.015625,1,10,14211,0,0,0,0,0,0,0,0,36,0,1,0.052083333,74.015625,10,14211,35,35,35,11/20/2018 13:51,Default description,yes,<openexp._canvas.legacy.Legacy object at 0x0529C1B0>,<openexp._canvas.legacy.Legacy object at 0x0505D1B0>,<openexp._canvas.legacy.Legacy object at 0x05048330>,<openexp._canvas.legacy.Legacy object at 0x05529E70>,<openexp._canvas.legacy.Legacy object at 0x055118D0>,<openexp._canvas.legacy.Legacy object at 0x05293210>,<openexp._canvas.legacy.Legacy object at 0x05520050>,<openexp._canvas.legacy.Legacy object at 0x0576DB70>,75,SpatProbMultiple3 (2).osexp,C:/Userdata/Michel/SpatProbMultiple3,no,mono,no,18,no,white,no,yes,0.09,98,1050,legacy,45,10,10,1,C:/Userdata/Michel/SpatProbMultiple3/subject-2.csv,legacy,12,192,25,Kafkaesque Koffka,3.2.5,yes,598477b2b83f69022949e7e9,47,green,circular,green,rectangular,0,\,1297,space,5444,5444,"(80, 80, 80)","(0, 123, 0)","(177, 0, 0)","(155, 155, 155)",2,legacy,experiment,"[1, 2, 3, 4, 5, 6, 7, 0]",\,2500,3000,0,8,252.7587515,1024,2,48000,-16,main,"[(0, -252), (178, -178), (252, 0), (178, 178), (0, 252), (-178, 178), (-252, 0), (-178, -178)]",[],26,even,1,NA,214634,542771,542771,142507,141495,2003,149219,149219,2003,2003,147951,575196,2002,542771,573897,573136,573136,NA,751,study_X,0,5444,1,yes,1680
undefined,undefined,NA,NA,NA,5444,5444,black,no,legacy,legacy,legacy,0,green,"(0, 123, 0)",color,present,lowProb6,rectangular,same,swap,swap,same,red,"(177, 0, 0)",lowProb,lowProb1,rectangular,uniform,1,undefined,0,0.057291667,1,1,80.66145833,1,11,15487,0,0,0,0,0,0,0,0,37,0,1,0.057291667,80.66145833,11,15487,36,36,36,11/20/2018 13:51,Default description,yes,<openexp._canvas.legacy.Legacy object at 0x0529C1B0>,<openexp._canvas.legacy.Legacy object at 0x0505D1B0>,<openexp._canvas.legacy.Legacy object at 0x05048330>,<openexp._canvas.legacy.Legacy object at 0x05529E70>,<openexp._canvas.legacy.Legacy object at 0x055118D0>,<openexp._canvas.legacy.Legacy object at 0x05293210>,<openexp._canvas.legacy.Legacy object at 0x0529C350>,<openexp._canvas.legacy.Legacy object at 0x0576DB70>,75,SpatProbMultiple3 (2).osexp,C:/Userdata/Michel/SpatProbMultiple3,no,mono,no,18,no,white,no,yes,0.09,98,1050,legacy,315,11,11,1,C:/Userdata/Michel/SpatProbMultiple3/subject-2.csv,legacy,12,192,25,Kafkaesque Koffka,3.2.5,yes,598477b2b83f69022949e7e9,47,green,rectangular,red,rectangular,0,/,1276,space,5444,5444,"(80, 80, 80)","(0, 123, 0)","(177, 0, 0)","(155, 155, 155)",2,legacy,experiment,"[1, 2, 3, 4, 5, 6, 7, 0]",/,2500,3000,0,8,252.7587515,1024,2,48000,-16,main,"[(0, -252), (178, -178), (252, 0), (178, 178), (0, 252), (-178, 178), (-252, 0), (-178, -178)]",[],26,even,2,NA,214634,542771,542771,142507,141495,2003,149219,149219,2003,2003,147951,577668,2002,542771,576389,575629,575629,NA,751,study_X,0,5444,1,yes,1680
undefined,undefined,NA,NA,NA,5444,5444,black,no,legacy,legacy,legacy,0,green,"(0, 123, 0)",shape,absent,lowProb1,circular,same,swap,swap,swap,green,"(0, 123, 0)",lowProb,lowProb6,circular,uniform,1,undefined,0,0.0625,1,1,83.50520833,1,12,16033,0,0,0,0,0,0,0,0,38,0,1,0.0625,83.50520833,12,16033,37,37,37,11/20/2018 13:51,Default description,yes,<openexp._canvas.legacy.Legacy object at 0x0529C1B0>,<openexp._canvas.legacy.Legacy object at 0x0505D1B0>,<openexp._canvas.legacy.Legacy object at 0x05048330>,<openexp._canvas.legacy.Legacy object at 0x05529E70>,<openexp._canvas.legacy.Legacy object at 0x055118D0>,<openexp._canvas.legacy.Legacy object at 0x05293210>,<openexp._canvas.legacy.Legacy object at 0x052AAC70>,<openexp._canvas.legacy.Legacy object at 0x0576DB70>,75,SpatProbMultiple3 (2).osexp,C:/Userdata/Michel/SpatProbMultiple3,no,mono,no,18,no,white,no,yes,0.09,98,1050,legacy,45,12,12,1,C:/Userdata/Michel/SpatProbMultiple3/subject-2.csv,legacy,12,192,25,Kafkaesque Koffka,3.2.5,yes,598477b2b83f69022949e7e9,47,green,circular,green,circular,0,\,546,space,5444,5444,"(80, 80, 80)","(0, 123, 0)","(177, 0, 0)","(155, 155, 155)",2,legacy,experiment,"[1, 2, 3, 4, 5, 6, 7, 0]",\,2500,3000,0,8,252.7587515,1024,2,48000,-16,main,"[(0, -252), (178, -178), (252, 0), (178, 178), (0, 252), (-178, 178), (-252, 0), (-178, -178)]",[],26,even,0,NA,214634,542771,542771,142507,141495,2003,149219,149219,2003,2003,147951,579396,2002,542771,578846,578086,578086,NA,751,study_X,0,5444,1,yes,1680
undefined,undefined,NA,NA,NA,5444,5444,black,no,legacy,legacy,legacy,0,red,"(177, 0, 0)",color,present,lowProb1,circular,swap,same,same,same,green,"(0, 123, 0)",highProbShape,highProbShape,circular,uniform,1,undefined,0,0.067708333,1,1,89.546875,1,13,17193,0,0,0,0,0,0,0,0,39,0,1,0.067708333,89.546875,13,17193,38,38,38,11/20/2018 13:51,Default description,yes,<openexp._canvas.legacy.Legacy object at 0x0529C1B0>,<openexp._canvas.legacy.Legacy object at 0x0505D1B0>,<openexp._canvas.legacy.Legacy object at 0x05048330>,<openexp._canvas.legacy.Legacy object at 0x05529E70>,<openexp._canvas.legacy.Legacy object at 0x055118D0>,<openexp._canvas.legacy.Legacy object at 0x05293210>,<openexp._canvas.legacy.Legacy object at 0x052ABAB0>,<openexp._canvas.legacy.Legacy object at 0x0576DB70>,75,SpatProbMultiple3 (2).osexp,C:/Userdata/Michel/SpatProbMultiple3,no,mono,no,18,no,white,no,yes,0.09,98,1050,legacy,45,13,13,1,C:/Userdata/Michel/SpatProbMultiple3/subject-2.csv,legacy,12,192,25,Kafkaesque Koffka,3.2.5,yes,598477b2b83f69022949e7e9,47,red,circular,green,circular,0,\,1160,space,5444,5444,"(80, 80, 80)","(0, 123, 0)","(177, 0, 0)","(155, 155, 155)",2,legacy,experiment,"[1, 2, 3, 4, 5, 6, 7, 0]",\,2500,3000,0,8,252.7587515,1024,2,48000,-16,main,"[(0, -252), (178, -178), (252, 0), (178, 178), (0, 252), (-178, 178), (-252, 0), (-178, -178)]",[],26,even,5,NA,214634,542771,542771,142507,141495,2003,149219,149219,2003,2003,147951,581773,2002,542771,580609,579849,579849,NA,751,study_X,0,5444,1,yes,1680
undefined,undefined,NA,NA,NA,5444,5444,black,no,legacy,legacy,legacy,0,red,"(177, 0, 0)",color,present,highProb,rectangular,same,swap,same,swap,green,"(0, 123, 0)",lowProb,lowProb2,rectangular,uniform,1,undefined,0,0.072916667,1,1,94.58854167,1,14,18161,0,0,0,0,0,0,0,0,40,0,1,0.072916667,94.58854167,14,18161,39,39,39,11/20/2018 13:51,Default description,yes,<openexp._canvas.legacy.Legacy object at 0x0529C1B0>,<openexp._canvas.legacy.Legacy object at 0x0505D1B0>,<openexp._canvas.legacy.Legacy object at 0x05048330>,<openexp._canvas.legacy.Legacy object at 0x05529E70>,<openexp._canvas.legacy.Legacy object at 0x055118D0>,<openexp._canvas.legacy.Legacy object at 0x05293210>,<openexp._canvas.legacy.Legacy object at 0x0505D050>,<openexp._canvas.legacy.Legacy object at 0x0576DB70>,75,SpatProbMultiple3 (2).osexp,C:/Userdata/Michel/SpatProbMultiple3,no,mono,no,18,no,white,no,yes,0.09,98,1050,legacy,315,14,14,1,C:/Userdata/Michel/SpatProbMultiple3/subject-2.csv,legacy,12,192,25,Kafkaesque Koffka,3.2.5,yes,598477b2b83f69022949e7e9,47,red,rectangular,green,rectangular,0,/,968,space,5444,5444,"(80, 80, 80)","(0, 123, 0)","(177, 0, 0)","(155, 155, 155)",2,legacy,experiment,"[1, 2, 3, 4, 5, 6, 7, 0]",/,2500,3000,0,8,252.7587515,1024,2,48000,-16,main,"[(0, -252), (178, -178), (252, 0), (178, 178), (0, 252), (-178, 178), (-252, 0), (-178, -178)]",[],26,even,3,NA,214634,542771,542771,142507,141495,2003,149219,149219,2003,2003,147951,583916,2002,542771,582946,582185,582185,NA,751,study_X,0,5444,1,yes,1680
undefined,undefined,NA,NA,NA,5444,5444,black,no,legacy,legacy,legacy,0,red,"(177, 0, 0)",shape,present,highProb,rectangular,same,same,swap,swap,red,"(177, 0, 0)",highProbColor,highProbColor,circular,uniform,1,undefined,0,0.078125,1,1,99.79166667,1,15,19160,0,0,0,0,0,0,0,0,41,0,1,0.078125,99.79166667,15,19160,40,40,40,11/20/2018 13:51,Default description,yes,<openexp._canvas.legacy.Legacy object at 0x0529C1B0>,<openexp._canvas.legacy.Legacy object at 0x0505D1B0>,<openexp._canvas.legacy.Legacy object at 0x05048330>,<openexp._canvas.legacy.Legacy object at 0x05529E70>,<openexp._canvas.legacy.Legacy object at 0x055118D0>,<openexp._canvas.legacy.Legacy object at 0x05293210>,<openexp._canvas.legacy.Legacy object at 0x0505D230>,<openexp._canvas.legacy.Legacy object at 0x0576DB70>,75,SpatProbMultiple3 (2).osexp,C:/Userdata/Michel/SpatProbMultiple3,no,mono,no,18,no,white,no,yes,0.09,98,1050,legacy,315,15,15,1,C:/Userdata/Michel/SpatProbMultiple3/subject-2.csv,legacy,12,192,25,Kafkaesque Koffka,3.2.5,yes,598477b2b83f69022949e7e9,47,red,rectangular,red,circular,0,/,999,space,5444,5444,"(80, 80, 80)","(0, 123, 0)","(177, 0, 0)","(155, 155, 155)",2,legacy,experiment,"[1, 2, 3, 4, 5, 6, 7, 0]",/,2500,3000,0,8,252.7587515,1024,2,48000,-16,main,"[(0, -252), (178, -178), (252, 0), (178, 178), (0, 252), (-178, 178), (-252, 0), (-178, -178)]",[],26,even,1,NA,214634,542771,542771,142507,141495,2003,149219,149219,2003,2003,147951,586124,2002,542771,585123,584364,584364,NA,751,study_X,0,5444,1,yes,1680
undefined,undefined,NA,NA,NA,5444,5444,black,no,legacy,legacy,legacy,0,green,"(0, 123, 0)",shape,absent,lowProb5,rectangular,swap,same,swap,swap,green,"(0, 123, 0)",lowProb,lowProb5,rectangular,uniform,1,undefined,0,0.083333333,1,1,110.1458333,1,16,21148,0,0,0,0,0,0,0,0,42,0,1,0.083333333,110.1458333,16,21148,41,41,41,11/20/2018 13:51,Default description,yes,<openexp._canvas.legacy.Legacy object at 0x0529C1B0>,<openexp._canvas.legacy.Legacy object at 0x0505D1B0>,<openexp._canvas.legacy.Legacy object at 0x05048330>,<openexp._canvas.legacy.Legacy object at 0x05529E70>,<openexp._canvas.legacy.Legacy object at 0x055118D0>,<openexp._canvas.legacy.Legacy object at 0x05293210>,<openexp._canvas.legacy.Legacy object at 0x0529C590>,<openexp._canvas.legacy.Legacy object at 0x0576DB70>,75,SpatProbMultiple3 (2).osexp,C:/Userdata/Michel/SpatProbMultiple3,no,mono,no,18,no,white,no,yes,0.09,98,1050,legacy,315,16,16,1,C:/Userdata/Michel/SpatProbMultiple3/subject-2.csv,legacy,12,192,25,Kafkaesque Koffka,3.2.5,yes,598477b2b83f69022949e7e9,47,green,rectangular,green,rectangular,0,/,1988,space,5444,5444,"(80, 80, 80)","(0, 123, 0)","(177, 0, 0)","(155, 155, 155)",2,legacy,experiment,"[1, 2, 3, 4, 5, 6, 7, 0]",/,2500,3000,0,8,252.7587515,1024,2,48000,-16,main,"[(0, -252), (178, -178), (252, 0), (178, 178), (0, 252), (-178, 178), (-252, 0), (-178, -178)]",[],26,even,7,NA,214634,542771,542771,142507,141495,2003,149219,149219,2003,2003,147951,589308,2002,542771,587317,586556,586556,NA,751,study_X,0,5444,1,yes,1680
undefined,undefined,NA,NA,NA,5444,5444,black,no,legacy,legacy,legacy,0,red,"(177, 0, 0)",shape,present,highProb,rectangular,swap,same,swap,swap,red,"(177, 0, 0)",lowProb,lowProb5,circular,uniform,1,undefined,0,0.088541667,1,1,113.5625,1,17,21804,0,0,0,0,0,0,0,0,43,0,1,0.088541667,113.5625,17,21804,42,42,42,11/20/2018 13:51,Default description,yes,<openexp._canvas.legacy.Legacy object at 0x0529C1B0>,<openexp._canvas.legacy.Legacy object at 0x0505D1B0>,<openexp._canvas.legacy.Legacy object at 0x05048330>,<openexp._canvas.legacy.Legacy object at 0x05529E70>,<openexp._canvas.legacy.Legacy object at 0x055118D0>,<openexp._canvas.legacy.Legacy object at 0x05293210>,<openexp._canvas.legacy.Legacy object at 0x0529C8D0>,<openexp._canvas.legacy.Legacy object at 0x0576DB70>,75,SpatProbMultiple3 (2).osexp,C:/Userdata/Michel/SpatProbMultiple3,no,mono,no,18,no,white,no,yes,0.09,98,1050,legacy,315,17,17,1,C:/Userdata/Michel/SpatProbMultiple3/subject-2.csv,legacy,12,192,25,Kafkaesque Koffka,3.2.5,yes,598477b2b83f69022949e7e9,47,red,rectangular,red,circular,0,/,656,space,5444,5444,"(80, 80, 80)","(0, 123, 0)","(177, 0, 0)","(155, 155, 155)",2,legacy,experiment,"[1, 2, 3, 4, 5, 6, 7, 0]",/,2500,3000,0,8,252.7587515,1024,2,48000,-16,main,"[(0, -252), (178, -178), (252, 0), (178, 178), (0, 252), (-178, 178), (-252, 0), (-178, -178)]",[],26,even,7,NA,214634,542771,542771,142507,141495,2003,149219,149219,2003,2003,147951,591156,2002,542771,590497,589736,589736,NA,751,study_X,0,5444,1,yes,1680
undefined,undefined,NA,NA,NA,5444,5444,black,no,legacy,legacy,legacy,0,red,"(177, 0, 0)",shape,present,lowProb3,rectangular,same,same,same,same,red,"(177, 0, 0)",highProbColor,highProbColor,circular,uniform,1,undefined,0,0.09375,1,1,118.3385417,1,18,22721,0,0,0,0,0,0,0,0,44,0,1,0.09375,118.3385417,18,22721,43,43,43,11/20/2018 13:51,Default description,yes,<openexp._canvas.legacy.Legacy object at 0x0529C1B0>,<openexp._canvas.legacy.Legacy object at 0x0505D1B0>,<openexp._canvas.legacy.Legacy object at 0x05048330>,<openexp._canvas.legacy.Legacy object at 0x05529E70>,<openexp._canvas.legacy.Legacy object at 0x055118D0>,<openexp._canvas.legacy.Legacy object at 0x05293210>,<openexp._canvas.legacy.Legacy object at 0x052ABF30>,<openexp._canvas.legacy.Legacy object at 0x0576DB70>,75,SpatProbMultiple3 (2).osexp,C:/Userdata/Michel/SpatProbMultiple3,no,mono,no,18,no,white,no,yes,0.09,98,1050,legacy,45,18,18,1,C:/Userdata/Michel/SpatProbMultiple3/subject-2.csv,legacy,12,192,25,Kafkaesque Koffka,3.2.5,yes,598477b2b83f69022949e7e9,47,red,rectangular,red,circular,0,\,917,space,5444,5444,"(80, 80, 80)","(0, 123, 0)","(177, 0, 0)","(155, 155, 155)",2,legacy,experiment,"[1, 2, 3, 4, 5, 6, 7, 0]",\,2500,3000,0,8,252.7587515,1024,2,48000,-16,main,"[(0, -252), (178, -178), (252, 0), (178, 178), (0, 252), (-178, 178), (-252, 0), (-178, -178)]",[],26,even,1,NA,214634,542771,542771,142507,141495,2003,149219,149219,2003,2003,147951,593252,2002,542771,592331,591570,591571,NA,751,study_X,0,5444,1,yes,1680
undefined,undefined,NA,NA,NA,5444,5444,black,no,legacy,legacy,legacy,0,red,"(177, 0, 0)",shape,present,highProb,circular,same,swap,same,swap,red,"(177, 0, 0)",lowProb,lowProb5,rectangular,uniform,1,undefined,0,0.098958333,1,1,122.53125,1,19,23526,0,0,0,0,0,0,0,0,45,0,1,0.098958333,122.53125,19,23526,44,44,44,11/20/2018 13:51,Default description,yes,<openexp._canvas.legacy.Legacy object at 0x0529C1B0>,<openexp._canvas.legacy.Legacy object at 0x0505D1B0>,<openexp._canvas.legacy.Legacy object at 0x05048330>,<openexp._canvas.legacy.Legacy object at 0x05529E70>,<openexp._canvas.legacy.Legacy object at 0x055118D0>,<openexp._canvas.legacy.Legacy object at 0x05293210>,<openexp._canvas.legacy.Legacy object at 0x0505D030>,<openexp._canvas.legacy.Legacy object at 0x0576DB70>,75,SpatProbMultiple3 (2).osexp,C:/Userdata/Michel/SpatProbMultiple3,no,mono,no,18,no,white,no,yes,0.09,98,1050,legacy,45,19,19,1,C:/Userdata/Michel/SpatProbMultiple3/subject-2.csv,legacy,12,192,25,Kafkaesque Koffka,3.2.5,yes,598477b2b83f69022949e7e9,47,red,circular,red,rectangular,0,\,805,space,5444,5444,"(80, 80, 80)","(0, 123, 0)","(177, 0, 0)","(155, 155, 155)",2,legacy,experiment,"[1, 2, 3, 4, 5, 6, 7, 0]",\,2500,3000,0,8,252.7587515,1024,2,48000,-16,main,"[(0, -252), (178, -178), (252, 0), (178, 178), (0, 252), (-178, 178), (-252, 0), (-178, -178)]",[],26,even,7,NA,214634,542771,542771,142507,141495,2003,149219,149219,2003,2003,147951,595236,2002,542771,594428,593668,593668,NA,751,study_X,0,5444,1,yes,1680
undefined,undefined,NA,NA,NA,5444,5444,black,no,legacy,legacy,legacy,0,red,"(177, 0, 0)",color,present,highProb,rectangular,same,swap,swap,same,green,"(0, 123, 0)",highProbShape,highProbShape,rectangular,uniform,1,undefined,0,0.104166667,1,1,127.7864583,1,20,24535,0,0,0,0,0,0,0,0,46,0,1,0.104166667,127.7864583,20,24535,45,45,45,11/20/2018 13:51,Default description,yes,<openexp._canvas.legacy.Legacy object at 0x0529C1B0>,<openexp._canvas.legacy.Legacy object at 0x0505D1B0>,<openexp._canvas.legacy.Legacy object at 0x05048330>,<openexp._canvas.legacy.Legacy object at 0x05529E70>,<openexp._canvas.legacy.Legacy object at 0x055118D0>,<openexp._canvas.legacy.Legacy object at 0x05293210>,<openexp._canvas.legacy.Legacy object at 0x05048B50>,<openexp._canvas.legacy.Legacy object at 0x0576DB70>,75,SpatProbMultiple3 (2).osexp,C:/Userdata/Michel/SpatProbMultiple3,no,mono,no,18,no,white,no,yes,0.09,98,1050,legacy,45,20,20,1,C:/Userdata/Michel/SpatProbMultiple3/subject-2.csv,legacy,12,192,25,Kafkaesque Koffka,3.2.5,yes,598477b2b83f69022949e7e9,47,red,rectangular,green,rectangular,0,\,1009,space,5444,5444,"(80, 80, 80)","(0, 123, 0)","(177, 0, 0)","(155, 155, 155)",2,legacy,experiment,"[1, 2, 3, 4, 5, 6, 7, 0]",\,2500,3000,0,8,252.7587515,1024,2,48000,-16,main,"[(0, -252), (178, -178), (252, 0), (178, 178), (0, 252), (-178, 178), (-252, 0), (-178, -178)]",[],26,even,5,NA,214634,542771,542771,142507,141495,2003,149219,149219,2003,2003,147951,597436,2002,542771,596424,595664,595664,NA,751,study_X,0,5444,1,yes,1680
undefined,undefined,NA,NA,NA,5444,5444,black,no,legacy,legacy,legacy,0,red,"(177, 0, 0)",shape,present,highProb,circular,same,swap,swap,same,red,"(177, 0, 0)",lowProb,lowProb4,rectangular,uniform,1,undefined,0,0.109375,1,1,133.7552083,1,21,25681,0,0,0,0,0,0,0,0,47,0,1,0.109375,133.7552083,21,25681,46,46,46,11/20/2018 13:51,Default description,yes,<openexp._canvas.legacy.Legacy object at 0x0529C1B0>,<openexp._canvas.legacy.Legacy object at 0x0505D1B0>,<openexp._canvas.legacy.Legacy object at 0x05048330>,<openexp._canvas.legacy.Legacy object at 0x05529E70>,<openexp._canvas.legacy.Legacy object at 0x055118D0>,<openexp._canvas.legacy.Legacy object at 0x05293210>,<openexp._canvas.legacy.Legacy object at 0x052AAFB0>,<openexp._canvas.legacy.Legacy object at 0x0576DB70>,75,SpatProbMultiple3 (2).osexp,C:/Userdata/Michel/SpatProbMultiple3,no,mono,no,18,no,white,no,yes,0.09,98,1050,legacy,315,21,21,1,C:/Userdata/Michel/SpatProbMultiple3/subject-2.csv,legacy,12,192,25,Kafkaesque Koffka,3.2.5,yes,598477b2b83f69022949e7e9,47,red,circular,red,rectangular,0,/,1146,space,5444,5444,"(80, 80, 80)","(0, 123, 0)","(177, 0, 0)","(155, 155, 155)",2,legacy,experiment,"[1, 2, 3, 4, 5, 6, 7, 0]",/,2500,3000,0,8,252.7587515,1024,2,48000,-16,main,"[(0, -252), (178, -178), (252, 0), (178, 178), (0, 252), (-178, 178), (-252, 0), (-178, -178)]",[],26,even,6,NA,214634,542771,542771,142507,141495,2003,149219,149219,2003,2003,147951,599772,2002,542771,598624,597864,597864,NA,751,study_X,0,5444,1,yes,1680
undefined,undefined,NA,NA,NA,5444,5444,black,no,legacy,legacy,legacy,0,green,"(0, 123, 0)",shape,present,lowProb5,rectangular,swap,swap,swap,swap,green,"(0, 123, 0)",lowProb,lowProb2,circular,uniform,1,undefined,0,0.114583333,1,1,140.3854167,1,22,26954,0,0,0,0,0,0,0,0,48,0,1,0.114583333,140.3854167,22,26954,47,47,47,11/20/2018 13:51,Default description,yes,<openexp._canvas.legacy.Legacy object at 0x0529C1B0>,<openexp._canvas.legacy.Legacy object at 0x0505D1B0>,<openexp._canvas.legacy.Legacy object at 0x05048330>,<openexp._canvas.legacy.Legacy object at 0x05529E70>,<openexp._canvas.legacy.Legacy object at 0x055118D0>,<openexp._canvas.legacy.Legacy object at 0x05293210>,<openexp._canvas.legacy.Legacy object at 0x057718D0>,<openexp._canvas.legacy.Legacy object at 0x0576DB70>,75,SpatProbMultiple3 (2).osexp,C:/Userdata/Michel/SpatProbMultiple3,no,mono,no,18,no,white,no,yes,0.09,98,1050,legacy,45,22,22,1,C:/Userdata/Michel/SpatProbMultiple3/subject-2.csv,legacy,12,192,25,Kafkaesque Koffka,3.2.5,yes,598477b2b83f69022949e7e9,47,green,rectangular,green,circular,0,\,1273,space,5444,5444,"(80, 80, 80)","(0, 123, 0)","(177, 0, 0)","(155, 155, 155)",2,legacy,experiment,"[1, 2, 3, 4, 5, 6, 7, 0]",\,2500,3000,0,8,252.7587515,1024,2,48000,-16,main,"[(0, -252), (178, -178), (252, 0), (178, 178), (0, 252), (-178, 178), (-252, 0), (-178, -178)]",[],26,even,3,NA,214634,542771,542771,142507,141495,2003,149219,149219,2003,2003,147951,602236,2002,542771,600960,600199,600199,NA,751,study_X,0,5444,1,yes,1680
undefined,undefined,NA,NA,NA,5444,5444,black,no,legacy,legacy,legacy,0,green,"(0, 123, 0)",shape,absent,lowProb4,rectangular,same,same,same,swap,green,"(0, 123, 0)",highProbColor,highProbColor,rectangular,uniform,1,undefined,0,0.119791667,1,1,148.078125,1,23,28431,0,0,0,0,0,0,0,0,49,0,1,0.119791667,148.078125,23,28431,48,48,48,11/20/2018 13:51,Default description,yes,<openexp._canvas.legacy.Legacy object at 0x0529C1B0>,<openexp._canvas.legacy.Legacy object at 0x0505D1B0>,<openexp._canvas.legacy.Legacy object at 0x05048330>,<openexp._canvas.legacy.Legacy object at 0x05529E70>,<openexp._canvas.legacy.Legacy object at 0x055118D0>,<openexp._canvas.legacy.Legacy object at 0x05293210>,<openexp._canvas.legacy.Legacy object at 0x0575DAB0>,<openexp._canvas.legacy.Legacy object at 0x0576DB70>,75,SpatProbMultiple3 (2).osexp,C:/Userdata/Michel/SpatProbMultiple3,no,mono,no,18,no,white,no,yes,0.09,98,1050,legacy,45,23,23,1,C:/Userdata/Michel/SpatProbMultiple3/subject-2.csv,legacy,12,192,25,Kafkaesque Koffka,3.2.5,yes,598477b2b83f69022949e7e9,47,green,rectangular,green,rectangular,0,\,1477,space,5444,5444,"(80, 80, 80)","(0, 123, 0)","(177, 0, 0)","(155, 155, 155)",2,legacy,experiment,"[1, 2, 3, 4, 5, 6, 7, 0]",\,2500,3000,0,8,252.7587515,1024,2,48000,-16,main,"[(0, -252), (178, -178), (252, 0), (178, 178), (0, 252), (-178, 178), (-252, 0), (-178, -178)]",[],26,even,1,NA,214634,542771,542771,142507,141495,2003,149219,149219,2003,2003,147951,604908,2002,542771,603428,602667,602667,NA,751,study_X,0,5444,1,yes,1680
undefined,undefined,NA,NA,NA,5444,5444,black,no,legacy,legacy,legacy,0,red,"(177, 0, 0)",shape,present,lowProb3,circular,swap,swap,swap,same,red,"(177, 0, 0)",lowProb,lowProb1,rectangular,uniform,1,undefined,0,0.125,1,1,154.9739583,1,24,29755,0,0,0,0,0,0,0,0,50,0,1,0.125,154.9739583,24,29755,49,49,49,11/20/2018 13:51,Default description,yes,<openexp._canvas.legacy.Legacy object at 0x0529C1B0>,<openexp._canvas.legacy.Legacy object at 0x0505D1B0>,<openexp._canvas.legacy.Legacy object at 0x05048330>,<openexp._canvas.legacy.Legacy object at 0x05529E70>,<openexp._canvas.legacy.Legacy object at 0x055118D0>,<openexp._canvas.legacy.Legacy object at 0x05293210>,<openexp._canvas.legacy.Legacy object at 0x0505D0B0>,<openexp._canvas.legacy.Legacy object at 0x0576DB70>,75,SpatProbMultiple3 (2).osexp,C:/Userdata/Michel/SpatProbMultiple3,no,mono,no,18,no,white,no,yes,0.09,98,1050,legacy,45,24,24,1,C:/Userdata/Michel/SpatProbMultiple3/subject-2.csv,legacy,12,192,25,Kafkaesque Koffka,3.2.5,yes,598477b2b83f69022949e7e9,47,red,circular,red,rectangular,0,\,1324,space,5444,5444,"(80, 80, 80)","(0, 123, 0)","(177, 0, 0)","(155, 155, 155)",2,legacy,experiment,"[1, 2, 3, 4, 5, 6, 7, 0]",\,2500,3000,0,8,252.7587515,1024,2,48000,-16,main,"[(0, -252), (178, -178), (252, 0), (178, 178), (0, 252), (-178, 178), (-252, 0), (-178, -178)]",[],26,even,2,NA,214634,542771,542771,142507,141495,2003,149219,149219,2003,2003,147951,607420,2002,542771,606094,605335,605335,NA,751,study_X,0,5444,1,yes,1680
undefined,undefined,NA,NA,NA,5444,5444,black,no,legacy,legacy,legacy,0,red,"(177, 0, 0)",color,present,highProb,rectangular,same,swap,swap,same,green,"(0, 123, 0)",lowProb,lowProb5,rectangular,uniform,1,undefined,0,0.130208333,1,1,158.9947917,1,25,30527,0,0,0,0,0,0,0,0,51,0,1,0.130208333,158.9947917,25,30527,50,50,50,11/20/2018 13:51,Default description,yes,<openexp._canvas.legacy.Legacy object at 0x0529C1B0>,<openexp._canvas.legacy.Legacy object at 0x0505D1B0>,<openexp._canvas.legacy.Legacy object at 0x05048330>,<openexp._canvas.legacy.Legacy object at 0x05529E70>,<openexp._canvas.legacy.Legacy object at 0x055118D0>,<openexp._canvas.legacy.Legacy object at 0x05293210>,<openexp._canvas.legacy.Legacy object at 0x0529C3F0>,<openexp._canvas.legacy.Legacy object at 0x0576DB70>,75,SpatProbMultiple3 (2).osexp,C:/Userdata/Michel/SpatProbMultiple3,no,mono,no,18,no,white,no,yes,0.09,98,1050,legacy,315,25,25,1,C:/Userdata/Michel/SpatProbMultiple3/subject-2.csv,legacy,12,192,25,Kafkaesque Koffka,3.2.5,yes,598477b2b83f69022949e7e9,47,red,rectangular,green,rectangular,0,/,772,space,5444,5444,"(80, 80, 80)","(0, 123, 0)","(177, 0, 0)","(155, 155, 155)",2,legacy,experiment,"[1, 2, 3, 4, 5, 6, 7, 0]",/,2500,3000,0,8,252.7587515,1024,2,48000,-16,main,"[(0, -252), (178, -178), (252, 0), (178, 178), (0, 252), (-178, 178), (-252, 0), (-178, -178)]",[],26,even,7,NA,214634,542771,542771,142507,141495,2003,149219,149219,2003,2003,147951,609388,2002,542771,608613,607853,607853,NA,751,study_X,0,5444,1,yes,1680
undefined,undefined,NA,NA,NA,5444,5444,black,no,legacy,legacy,legacy,0,green,"(0, 123, 0)",color,present,highProb,circular,swap,swap,swap,swap,red,"(177, 0, 0)",highProbShape,highProbShape,circular,uniform,1,undefined,0,0.135416667,1,1,163.296875,1,26,31353,0,0,0,0,0,0,0,0,52,0,1,0.135416667,163.296875,26,31353,51,51,51,11/20/2018 13:51,Default description,yes,<openexp._canvas.legacy.Legacy object at 0x0529C1B0>,<openexp._canvas.legacy.Legacy object at 0x0505D1B0>,<openexp._canvas.legacy.Legacy object at 0x05048330>,<openexp._canvas.legacy.Legacy object at 0x05529E70>,<openexp._canvas.legacy.Legacy object at 0x055118D0>,<openexp._canvas.legacy.Legacy object at 0x05293210>,<openexp._canvas.legacy.Legacy object at 0x0575D690>,<openexp._canvas.legacy.Legacy object at 0x0576DB70>,75,SpatProbMultiple3 (2).osexp,C:/Userdata/Michel/SpatProbMultiple3,no,mono,no,18,no,white,no,yes,0.09,98,1050,legacy,315,26,26,1,C:/Userdata/Michel/SpatProbMultiple3/subject-2.csv,legacy,12,192,25,Kafkaesque Koffka,3.2.5,yes,598477b2b83f69022949e7e9,47,green,circular,red,circular,0,/,826,space,5444,5444,"(80, 80, 80)","(0, 123, 0)","(177, 0, 0)","(155, 155, 155)",2,legacy,experiment,"[1, 2, 3, 4, 5, 6, 7, 0]",/,2500,3000,0,8,252.7587515,1024,2,48000,-16,main,"[(0, -252), (178, -178), (252, 0), (178, 178), (0, 252), (-178, 178), (-252, 0), (-178, -178)]",[],26,even,5,NA,214634,542771,542771,142507,141495,2003,149219,149219,2003,2003,147951,611420,2002,542771,610591,609832,609832,NA,751,study_X,0,5444,1,yes,1680
undefined,undefined,NA,NA,NA,5444,5444,black,no,legacy,legacy,legacy,0,red,"(177, 0, 0)",color,present,highProb,rectangular,swap,swap,swap,swap,green,"(0, 123, 0)",highProbShape,highProbShape,rectangular,uniform,1,undefined,0,0.140625,1,1,168.703125,1,27,32391,0,0,0,0,0,0,0,0,53,0,1,0.140625,168.703125,27,32391,52,52,52,11/20/2018 13:51,Default description,yes,<openexp._canvas.legacy.Legacy object at 0x0529C1B0>,<openexp._canvas.legacy.Legacy object at 0x0505D1B0>,<openexp._canvas.legacy.Legacy object at 0x05048330>,<openexp._canvas.legacy.Legacy object at 0x05529E70>,<openexp._canvas.legacy.Legacy object at 0x055118D0>,<openexp._canvas.legacy.Legacy object at 0x05293210>,<openexp._canvas.legacy.Legacy object at 0x05048F70>,<openexp._canvas.legacy.Legacy object at 0x0576DB70>,75,SpatProbMultiple3 (2).osexp,C:/Userdata/Michel/SpatProbMultiple3,no,mono,no,18,no,white,no,yes,0.09,98,1050,legacy,45,27,27,1,C:/Userdata/Michel/SpatProbMultiple3/subject-2.csv,legacy,12,192,25,Kafkaesque Koffka,3.2.5,yes,598477b2b83f69022949e7e9,47,red,rectangular,green,rectangular,0,\,1038,space,5444,5444,"(80, 80, 80)","(0, 123, 0)","(177, 0, 0)","(155, 155, 155)",2,legacy,experiment,"[1, 2, 3, 4, 5, 6, 7, 0]",\,2500,3000,0,8,252.7587515,1024,2,48000,-16,main,"[(0, -252), (178, -178), (252, 0), (178, 178), (0, 252), (-178, 178), (-252, 0), (-178, -178)]",[],26,even,5,NA,214634,542771,542771,142507,141495,2003,149219,149219,2003,2003,147951,613684,2002,542771,612642,611881,611881,NA,751,study_X,0,5444,1,yes,1680
undefined,undefined,NA,NA,NA,5444,5444,black,no,legacy,legacy,legacy,0,green,"(0, 123, 0)",color,present,lowProb2,circular,swap,swap,swap,swap,red,"(177, 0, 0)",highProbColor,highProbColor,circular,uniform,1,undefined,0,0.145833333,1,1,174.2604167,1,28,33458,0,0,0,0,0,0,0,0,54,0,1,0.145833333,174.2604167,28,33458,53,53,53,11/20/2018 13:51,Default description,yes,<openexp._canvas.legacy.Legacy object at 0x0529C1B0>,<openexp._canvas.legacy.Legacy object at 0x0505D1B0>,<openexp._canvas.legacy.Legacy object at 0x05048330>,<openexp._canvas.legacy.Legacy object at 0x05529E70>,<openexp._canvas.legacy.Legacy object at 0x055118D0>,<openexp._canvas.legacy.Legacy object at 0x05293210>,<openexp._canvas.legacy.Legacy object at 0x057723F0>,<openexp._canvas.legacy.Legacy object at 0x0576DB70>,75,SpatProbMultiple3 (2).osexp,C:/Userdata/Michel/SpatProbMultiple3,no,mono,no,18,no,white,no,yes,0.09,98,1050,legacy,315,28,28,1,C:/Userdata/Michel/SpatProbMultiple3/subject-2.csv,legacy,12,192,25,Kafkaesque Koffka,3.2.5,yes,598477b2b83f69022949e7e9,47,green,circular,red,circular,0,/,1067,space,5444,5444,"(80, 80, 80)","(0, 123, 0)","(177, 0, 0)","(155, 155, 155)",2,legacy,experiment,"[1, 2, 3, 4, 5, 6, 7, 0]",/,2500,3000,0,8,252.7587515,1024,2,48000,-16,main,"[(0, -252), (178, -178), (252, 0), (178, 178), (0, 252), (-178, 178), (-252, 0), (-178, -178)]",[],26,even,1,NA,214634,542771,542771,142507,141495,2003,149219,149219,2003,2003,147951,615964,2002,542771,614894,614133,614133,NA,751,study_X,0,5444,1,yes,1680
undefined,undefined,NA,NA,NA,5444,5444,black,no,legacy,legacy,legacy,0,green,"(0, 123, 0)",color,present,lowProb1,rectangular,same,swap,same,swap,red,"(177, 0, 0)",lowProb,lowProb4,rectangular,uniform,1,undefined,0,0.151041667,1,1,181.1302083,1,29,34777,0,0,0,0,0,0,0,0,55,0,1,0.151041667,181.1302083,29,34777,54,54,54,11/20/2018 13:51,Default description,yes,<openexp._canvas.legacy.Legacy object at 0x0529C1B0>,<openexp._canvas.legacy.Legacy object at 0x0505D1B0>,<openexp._canvas.legacy.Legacy object at 0x05048330>,<openexp._canvas.legacy.Legacy object at 0x05529E70>,<openexp._canvas.legacy.Legacy object at 0x055118D0>,<openexp._canvas.legacy.Legacy object at 0x05293210>,<openexp._canvas.legacy.Legacy object at 0x05048E70>,<openexp._canvas.legacy.Legacy object at 0x0576DB70>,75,SpatProbMultiple3 (2).osexp,C:/Userdata/Michel/SpatProbMultiple3,no,mono,no,18,no,white,no,yes,0.09,98,1050,legacy,45,29,29,1,C:/Userdata/Michel/SpatProbMultiple3/subject-2.csv,legacy,12,192,25,Kafkaesque Koffka,3.2.5,yes,598477b2b83f69022949e7e9,47,green,rectangular,red,rectangular,0,\,1319,space,5444,5444,"(80, 80, 80)","(0, 123, 0)","(177, 0, 0)","(155, 155, 155)",2,legacy,experiment,"[1, 2, 3, 4, 5, 6, 7, 0]",\,2500,3000,0,8,252.7587515,1024,2,48000,-16,main,"[(0, -252), (178, -178), (252, 0), (178, 178), (0, 252), (-178, 178), (-252, 0), (-178, -178)]",[],26,even,6,NA,214634,542771,542771,142507,141495,2003,149219,149219,2003,2003,147951,618476,2002,542771,617155,616394,616394,NA,751,study_X,0,5444,1,yes,1680
undefined,undefined,NA,NA,NA,5444,5444,black,no,legacy,legacy,legacy,0,red,"(177, 0, 0)",shape,absent,lowProb6,rectangular,swap,same,same,same,red,"(177, 0, 0)",lowProb,lowProb5,rectangular,uniform,1,undefined,0,0.15625,1,1,184.3125,1,30,35388,0,0,0,0,0,0,0,0,56,0,1,0.15625,184.3125,30,35388,55,55,55,11/20/2018 13:51,Default description,yes,<openexp._canvas.legacy.Legacy object at 0x0529C1B0>,<openexp._canvas.legacy.Legacy object at 0x0505D1B0>,<openexp._canvas.legacy.Legacy object at 0x05048330>,<openexp._canvas.legacy.Legacy object at 0x05529E70>,<openexp._canvas.legacy.Legacy object at 0x055118D0>,<openexp._canvas.legacy.Legacy object at 0x05293210>,<openexp._canvas.legacy.Legacy object at 0x0575DB10>,<openexp._canvas.legacy.Legacy object at 0x0576DB70>,75,SpatProbMultiple3 (2).osexp,C:/Userdata/Michel/SpatProbMultiple3,no,mono,no,18,no,white,no,yes,0.09,98,1050,legacy,45,30,30,1,C:/Userdata/Michel/SpatProbMultiple3/subject-2.csv,legacy,12,192,25,Kafkaesque Koffka,3.2.5,yes,598477b2b83f69022949e7e9,47,red,rectangular,red,rectangular,0,\,611,space,5444,5444,"(80, 80, 80)","(0, 123, 0)","(177, 0, 0)","(155, 155, 155)",2,legacy,experiment,"[1, 2, 3, 4, 5, 6, 7, 0]",\,2500,3000,0,8,252.7587515,1024,2,48000,-16,main,"[(0, -252), (178, -178), (252, 0), (178, 178), (0, 252), (-178, 178), (-252, 0), (-178, -178)]",[],26,even,7,NA,214634,542771,542771,142507,141495,2003,149219,149219,2003,2003,147951,620292,2002,542771,619679,618918,618918,NA,751,study_X,0,5444,1,yes,1680
undefined,undefined,NA,NA,NA,5444,5444,black,no,legacy,legacy,legacy,0,green,"(0, 123, 0)",shape,present,highProb,rectangular,swap,same,swap,swap,green,"(0, 123, 0)",lowProb,lowProb4,circular,uniform,1,undefined,0,0.161458333,1,1,188.0625,1,31,36108,0,0,0,0,0,0,0,0,57,0,1,0.161458333,188.0625,31,36108,56,56,56,11/20/2018 13:51,Default description,yes,<openexp._canvas.legacy.Legacy object at 0x0529C1B0>,<openexp._canvas.legacy.Legacy object at 0x0505D1B0>,<openexp._canvas.legacy.Legacy object at 0x05048330>,<openexp._canvas.legacy.Legacy object at 0x05529E70>,<openexp._canvas.legacy.Legacy object at 0x055118D0>,<openexp._canvas.legacy.Legacy object at 0x05293210>,<openexp._canvas.legacy.Legacy object at 0x05529DB0>,<openexp._canvas.legacy.Legacy object at 0x0576DB70>,75,SpatProbMultiple3 (2).osexp,C:/Userdata/Michel/SpatProbMultiple3,no,mono,no,18,no,white,no,yes,0.09,98,1050,legacy,45,31,31,1,C:/Userdata/Michel/SpatProbMultiple3/subject-2.csv,legacy,12,192,25,Kafkaesque Koffka,3.2.5,yes,598477b2b83f69022949e7e9,47,green,rectangular,green,circular,0,\,720,space,5444,5444,"(80, 80, 80)","(0, 123, 0)","(177, 0, 0)","(155, 155, 155)",2,legacy,experiment,"[1, 2, 3, 4, 5, 6, 7, 0]",\,2500,3000,0,8,252.7587515,1024,2,48000,-16,main,"[(0, -252), (178, -178), (252, 0), (178, 178), (0, 252), (-178, 178), (-252, 0), (-178, -178)]",[],26,even,6,NA,214634,542771,542771,142507,141495,2003,149219,149219,2003,2003,147951,622204,2002,542771,621482,620721,620721,NA,751,study_X,0,5444,1,yes,1680
undefined,undefined,NA,NA,NA,5444,5444,black,no,legacy,legacy,legacy,0,green,"(0, 123, 0)",color,present,highProb,circular,same,swap,swap,same,red,"(177, 0, 0)",lowProb,lowProb2,circular,uniform,1,undefined,0,0.166666667,1,1,193.7708333,1,32,37204,0,0,0,0,0,0,0,0,58,0,1,0.166666667,193.7708333,32,37204,57,57,57,11/20/2018 13:51,Default description,yes,<openexp._canvas.legacy.Legacy object at 0x0529C1B0>,<openexp._canvas.legacy.Legacy object at 0x0505D1B0>,<openexp._canvas.legacy.Legacy object at 0x05048330>,<openexp._canvas.legacy.Legacy object at 0x05529E70>,<openexp._canvas.legacy.Legacy object at 0x055118D0>,<openexp._canvas.legacy.Legacy object at 0x05293210>,<openexp._canvas.legacy.Legacy object at 0x0575D7B0>,<openexp._canvas.legacy.Legacy object at 0x0576DB70>,75,SpatProbMultiple3 (2).osexp,C:/Userdata/Michel/SpatProbMultiple3,no,mono,no,18,no,white,no,yes,0.09,98,1050,legacy,45,32,32,1,C:/Userdata/Michel/SpatProbMultiple3/subject-2.csv,legacy,12,192,25,Kafkaesque Koffka,3.2.5,yes,598477b2b83f69022949e7e9,47,green,circular,red,circular,0,\,1096,space,5444,5444,"(80, 80, 80)","(0, 123, 0)","(177, 0, 0)","(155, 155, 155)",2,legacy,experiment,"[1, 2, 3, 4, 5, 6, 7, 0]",\,2500,3000,0,8,252.7587515,1024,2,48000,-16,main,"[(0, -252), (178, -178), (252, 0), (178, 178), (0, 252), (-178, 178), (-252, 0), (-178, -178)]",[],26,even,3,NA,214634,542771,542771,142507,141495,2003,149219,149219,2003,2003,147951,624492,2002,542771,623392,622631,622631,NA,751,study_X,0,5444,1,yes,1680
undefined,undefined,NA,NA,NA,5444,5444,black,no,legacy,legacy,legacy,0,green,"(0, 123, 0)",color,present,highProb,rectangular,same,swap,same,swap,red,"(177, 0, 0)",highProbShape,highProbShape,rectangular,uniform,1,undefined,0,0.171875,1,1,200.65625,1,33,38526,0,0,0,0,0,0,0,0,59,0,1,0.171875,200.65625,33,38526,58,58,58,11/20/2018 13:51,Default description,yes,<openexp._canvas.legacy.Legacy object at 0x0529C1B0>,<openexp._canvas.legacy.Legacy object at 0x0505D1B0>,<openexp._canvas.legacy.Legacy object at 0x05048330>,<openexp._canvas.legacy.Legacy object at 0x05529E70>,<openexp._canvas.legacy.Legacy object at 0x055118D0>,<openexp._canvas.legacy.Legacy object at 0x05293210>,<openexp._canvas.legacy.Legacy object at 0x0505D150>,<openexp._canvas.legacy.Legacy object at 0x0576DB70>,75,SpatProbMultiple3 (2).osexp,C:/Userdata/Michel/SpatProbMultiple3,no,mono,no,18,no,white,no,yes,0.09,98,1050,legacy,315,33,33,1,C:/Userdata/Michel/SpatProbMultiple3/subject-2.csv,legacy,12,192,25,Kafkaesque Koffka,3.2.5,yes,598477b2b83f69022949e7e9,47,green,rectangular,red,rectangular,0,/,1322,space,5444,5444,"(80, 80, 80)","(0, 123, 0)","(177, 0, 0)","(155, 155, 155)",2,legacy,experiment,"[1, 2, 3, 4, 5, 6, 7, 0]",/,2500,3000,0,8,252.7587515,1024,2,48000,-16,main,"[(0, -252), (178, -178), (252, 0), (178, 178), (0, 252), (-178, 178), (-252, 0), (-178, -178)]",[],26,even,5,NA,214634,542771,542771,142507,141495,2003,149219,149219,2003,2003,147951,627004,2002,542771,625678,624918,624918,NA,751,study_X,0,5444,1,yes,1680
undefined,undefined,NA,NA,NA,5444,5444,black,no,legacy,legacy,legacy,0,red,"(177, 0, 0)",shape,present,highProb,circular,swap,swap,same,same,red,"(177, 0, 0)",lowProb,lowProb1,rectangular,uniform,1,undefined,0,0.177083333,1,1,208.6666667,1,34,40064,0,0,0,0,0,0,0,0,60,0,1,0.177083333,208.6666667,34,40064,59,59,59,11/20/2018 13:51,Default description,yes,<openexp._canvas.legacy.Legacy object at 0x0529C1B0>,<openexp._canvas.legacy.Legacy object at 0x0505D1B0>,<openexp._canvas.legacy.Legacy object at 0x05048330>,<openexp._canvas.legacy.Legacy object at 0x05529E70>,<openexp._canvas.legacy.Legacy object at 0x055118D0>,<openexp._canvas.legacy.Legacy object at 0x05293210>,<openexp._canvas.legacy.Legacy object at 0x052AB390>,<openexp._canvas.legacy.Legacy object at 0x0576DB70>,75,SpatProbMultiple3 (2).osexp,C:/Userdata/Michel/SpatProbMultiple3,no,mono,no,18,no,white,no,yes,0.09,98,1050,legacy,315,34,34,1,C:/Userdata/Michel/SpatProbMultiple3/subject-2.csv,legacy,12,192,25,Kafkaesque Koffka,3.2.5,yes,598477b2b83f69022949e7e9,47,red,circular,red,rectangular,0,/,1538,space,5444,5444,"(80, 80, 80)","(0, 123, 0)","(177, 0, 0)","(155, 155, 155)",2,legacy,experiment,"[1, 2, 3, 4, 5, 6, 7, 0]",/,2500,3000,0,8,252.7587515,1024,2,48000,-16,main,"[(0, -252), (178, -178), (252, 0), (178, 178), (0, 252), (-178, 178), (-252, 0), (-178, -178)]",[],26,even,2,NA,214634,542771,542771,142507,141495,2003,149219,149219,2003,2003,147951,629755,2002,542771,628214,627454,627454,NA,751,study_X,0,5444,1,yes,1680
undefined,undefined,NA,NA,NA,5444,5444,black,no,legacy,legacy,legacy,0,red,"(177, 0, 0)",color,present,highProb,rectangular,same,swap,swap,same,green,"(0, 123, 0)",lowProb,lowProb4,rectangular,uniform,1,undefined,0,0.182291667,1,1,211.984375,1,35,40701,0,0,0,0,0,0,0,0,61,0,1,0.182291667,211.984375,35,40701,60,60,60,11/20/2018 13:51,Default description,yes,<openexp._canvas.legacy.Legacy object at 0x0529C1B0>,<openexp._canvas.legacy.Legacy object at 0x0505D1B0>,<openexp._canvas.legacy.Legacy object at 0x05048330>,<openexp._canvas.legacy.Legacy object at 0x05529E70>,<openexp._canvas.legacy.Legacy object at 0x055118D0>,<openexp._canvas.legacy.Legacy object at 0x05293210>,<openexp._canvas.legacy.Legacy object at 0x05762630>,<openexp._canvas.legacy.Legacy object at 0x0576DB70>,75,SpatProbMultiple3 (2).osexp,C:/Userdata/Michel/SpatProbMultiple3,no,mono,no,18,no,white,no,yes,0.09,98,1050,legacy,45,35,35,1,C:/Userdata/Michel/SpatProbMultiple3/subject-2.csv,legacy,12,192,25,Kafkaesque Koffka,3.2.5,yes,598477b2b83f69022949e7e9,47,red,rectangular,green,rectangular,0,\,637,space,5444,5444,"(80, 80, 80)","(0, 123, 0)","(177, 0, 0)","(155, 155, 155)",2,legacy,experiment,"[1, 2, 3, 4, 5, 6, 7, 0]",\,2500,3000,0,8,252.7587515,1024,2,48000,-16,main,"[(0, -252), (178, -178), (252, 0), (178, 178), (0, 252), (-178, 178), (-252, 0), (-178, -178)]",[],26,even,6,NA,214634,542771,542771,142507,141495,2003,149219,149219,2003,2003,147951,631571,2002,542771,630932,630172,630172,NA,751,study_X,0,5444,1,yes,1680
undefined,undefined,NA,NA,NA,5444,5444,black,no,legacy,legacy,legacy,0,green,"(0, 123, 0)",color,absent,lowProb4,rectangular,swap,same,same,same,green,"(0, 123, 0)",lowProb,lowProb1,rectangular,uniform,1,undefined,0,0.1875,1,1,222.4166667,1,36,42704,0,0,0,0,0,0,0,0,62,0,1,0.1875,222.4166667,36,42704,61,61,61,11/20/2018 13:51,Default description,yes,<openexp._canvas.legacy.Legacy object at 0x0529C1B0>,<openexp._canvas.legacy.Legacy object at 0x0505D1B0>,<openexp._canvas.legacy.Legacy object at 0x05048330>,<openexp._canvas.legacy.Legacy object at 0x05529E70>,<openexp._canvas.legacy.Legacy object at 0x055118D0>,<openexp._canvas.legacy.Legacy object at 0x05293210>,<openexp._canvas.legacy.Legacy object at 0x0505D150>,<openexp._canvas.legacy.Legacy object at 0x0576DB70>,75,SpatProbMultiple3 (2).osexp,C:/Userdata/Michel/SpatProbMultiple3,no,mono,no,18,no,white,no,yes,0.09,98,1050,legacy,315,36,36,1,C:/Userdata/Michel/SpatProbMultiple3/subject-2.csv,legacy,12,192,25,Kafkaesque Koffka,3.2.5,yes,598477b2b83f69022949e7e9,47,green,rectangular,green,rectangular,0,/,2003,space,5444,5444,"(80, 80, 80)","(0, 123, 0)","(177, 0, 0)","(155, 155, 155)",2,legacy,experiment,"[1, 2, 3, 4, 5, 6, 7, 0]",/,2500,3000,0,8,252.7587515,1024,2,48000,-16,main,"[(0, -252), (178, -178), (252, 0), (178, 178), (0, 252), (-178, 178), (-252, 0), (-178, -178)]",[],26,even,2,NA,214634,542771,542771,142507,141495,2003,149219,149219,2003,2003,147951,634764,2002,542771,632759,631999,631999,NA,751,study_X,0,5444,1,yes,1680
undefined,undefined,NA,NA,NA,5444,5444,black,no,legacy,legacy,legacy,0,green,"(0, 123, 0)",shape,absent,highProb,rectangular,same,same,same,same,green,"(0, 123, 0)",lowProb,lowProb5,rectangular,uniform,1,undefined,0,0.192708333,1,1,226.3072917,1,37,43451,0,0,0,0,0,0,0,0,63,0,1,0.192708333,226.3072917,37,43451,62,62,62,11/20/2018 13:51,Default description,yes,<openexp._canvas.legacy.Legacy object at 0x0529C1B0>,<openexp._canvas.legacy.Legacy object at 0x0505D1B0>,<openexp._canvas.legacy.Legacy object at 0x05048330>,<openexp._canvas.legacy.Legacy object at 0x05529E70>,<openexp._canvas.legacy.Legacy object at 0x055118D0>,<openexp._canvas.legacy.Legacy object at 0x05293210>,<openexp._canvas.legacy.Legacy object at 0x057729D0>,<openexp._canvas.legacy.Legacy object at 0x0576DB70>,75,SpatProbMultiple3 (2).osexp,C:/Userdata/Michel/SpatProbMultiple3,no,mono,no,18,no,white,no,yes,0.09,98,1050,legacy,315,37,37,1,C:/Userdata/Michel/SpatProbMultiple3/subject-2.csv,legacy,12,192,25,Kafkaesque Koffka,3.2.5,yes,598477b2b83f69022949e7e9,47,green,rectangular,green,rectangular,0,/,747,space,5444,5444,"(80, 80, 80)","(0, 123, 0)","(177, 0, 0)","(155, 155, 155)",2,legacy,experiment,"[1, 2, 3, 4, 5, 6, 7, 0]",/,2500,3000,0,8,252.7587515,1024,2,48000,-16,main,"[(0, -252), (178, -178), (252, 0), (178, 178), (0, 252), (-178, 178), (-252, 0), (-178, -178)]",[],26,even,7,NA,214634,542771,542771,142507,141495,2003,149219,149219,2003,2003,147951,636716,2002,542771,635966,635206,635206,NA,751,study_X,0,5444,1,yes,1680
undefined,undefined,NA,NA,NA,5444,5444,black,no,legacy,legacy,legacy,0,green,"(0, 123, 0)",shape,present,highProb,circular,same,swap,same,same,green,"(0, 123, 0)",lowProb,lowProb3,rectangular,uniform,0,undefined,0,0.192708333,1,1,239.328125,1,37,45951,0,0,0,0,0,0,0,0,64,0,1,0.192708333,239.328125,37,45951,63,63,63,11/20/2018 13:51,Default description,yes,<openexp._canvas.legacy.Legacy object at 0x0529C1B0>,<openexp._canvas.legacy.Legacy object at 0x0505D1B0>,<openexp._canvas.legacy.Legacy object at 0x05048330>,<openexp._canvas.legacy.Legacy object at 0x05529E70>,<openexp._canvas.legacy.Legacy object at 0x055118D0>,<openexp._canvas.legacy.Legacy object at 0x05293210>,<openexp._canvas.legacy.Legacy object at 0x0529CD70>,<openexp._canvas.legacy.Legacy object at 0x0576DB70>,75,SpatProbMultiple3 (2).osexp,C:/Userdata/Michel/SpatProbMultiple3,no,mono,no,18,no,white,no,yes,0.09,98,1050,legacy,45,38,38,1,C:/Userdata/Michel/SpatProbMultiple3/subject-2.csv,legacy,12,192,25,Kafkaesque Koffka,3.2.5,yes,598477b2b83f69022949e7e9,47,green,circular,green,rectangular,0,None,2500,space,5444,5444,"(80, 80, 80)","(0, 123, 0)","(177, 0, 0)","(155, 155, 155)",2,legacy,experiment,"[1, 2, 3, 4, 5, 6, 7, 0]",\,2500,3000,0,8,252.7587515,1024,2,48000,-16,main,"[(0, -252), (178, -178), (252, 0), (178, 178), (0, 252), (-178, 178), (-252, 0), (-178, -178)]",[],26,even,4,NA,214634,542771,542771,142507,141495,2003,149219,149219,2003,2003,147951,640421,2002,542771,637919,637158,637158,NA,751,study_X,0,5444,1,yes,1680
undefined,undefined,NA,NA,NA,5444,5444,black,no,legacy,legacy,legacy,0,green,"(0, 123, 0)",shape,present,highProb,rectangular,same,swap,same,swap,green,"(0, 123, 0)",lowProb,lowProb4,circular,uniform,1,undefined,0,0.197916667,1,1,247.25,1,38,47472,0,0,0,0,0,0,0,0,65,0,1,0.197916667,247.25,38,47472,64,64,64,11/20/2018 13:51,Default description,yes,<openexp._canvas.legacy.Legacy object at 0x0529C1B0>,<openexp._canvas.legacy.Legacy object at 0x0505D1B0>,<openexp._canvas.legacy.Legacy object at 0x05048330>,<openexp._canvas.legacy.Legacy object at 0x05529E70>,<openexp._canvas.legacy.Legacy object at 0x055118D0>,<openexp._canvas.legacy.Legacy object at 0x05293210>,<openexp._canvas.legacy.Legacy object at 0x057602B0>,<openexp._canvas.legacy.Legacy object at 0x0576DB70>,75,SpatProbMultiple3 (2).osexp,C:/Userdata/Michel/SpatProbMultiple3,no,mono,no,18,no,white,no,yes,0.09,98,1050,legacy,45,39,39,1,C:/Userdata/Michel/SpatProbMultiple3/subject-2.csv,legacy,12,192,25,Kafkaesque Koffka,3.2.5,yes,598477b2b83f69022949e7e9,47,green,rectangular,green,circular,0,\,1521,space,5444,5444,"(80, 80, 80)","(0, 123, 0)","(177, 0, 0)","(155, 155, 155)",2,legacy,experiment,"[1, 2, 3, 4, 5, 6, 7, 0]",\,2500,3000,0,8,252.7587515,1024,2,48000,-16,main,"[(0, -252), (178, -178), (252, 0), (178, 178), (0, 252), (-178, 178), (-252, 0), (-178, -178)]",[],26,even,6,NA,214634,542771,542771,142507,141495,2003,149219,149219,2003,2003,147951,643132,2002,542771,641608,640848,640848,NA,751,study_X,0,5444,1,yes,1680
undefined,undefined,NA,NA,NA,5444,5444,black,no,legacy,legacy,legacy,0,red,"(177, 0, 0)",color,present,highProb,circular,swap,swap,same,same,green,"(0, 123, 0)",lowProb,lowProb5,circular,uniform,1,undefined,0,0.203125,1,1,250.171875,1,39,48033,0,0,0,0,0,0,0,0,66,0,1,0.203125,250.171875,39,48033,65,65,65,11/20/2018 13:51,Default description,yes,<openexp._canvas.legacy.Legacy object at 0x0529C1B0>,<openexp._canvas.legacy.Legacy object at 0x0505D1B0>,<openexp._canvas.legacy.Legacy object at 0x05048330>,<openexp._canvas.legacy.Legacy object at 0x05529E70>,<openexp._canvas.legacy.Legacy object at 0x055118D0>,<openexp._canvas.legacy.Legacy object at 0x05293210>,<openexp._canvas.legacy.Legacy object at 0x0576A390>,<openexp._canvas.legacy.Legacy object at 0x0576DB70>,75,SpatProbMultiple3 (2).osexp,C:/Userdata/Michel/SpatProbMultiple3,no,mono,no,18,no,white,no,yes,0.09,98,1050,legacy,45,40,40,1,C:/Userdata/Michel/SpatProbMultiple3/subject-2.csv,legacy,12,192,25,Kafkaesque Koffka,3.2.5,yes,598477b2b83f69022949e7e9,47,red,circular,green,circular,0,\,561,space,5444,5444,"(80, 80, 80)","(0, 123, 0)","(177, 0, 0)","(155, 155, 155)",2,legacy,experiment,"[1, 2, 3, 4, 5, 6, 7, 0]",\,2500,3000,0,8,252.7587515,1024,2,48000,-16,main,"[(0, -252), (178, -178), (252, 0), (178, 178), (0, 252), (-178, 178), (-252, 0), (-178, -178)]",[],26,even,7,NA,214634,542771,542771,142507,141495,2003,149219,149219,2003,2003,147951,644884,2002,542771,644319,643558,643558,NA,751,study_X,0,5444,1,yes,1680
undefined,undefined,NA,NA,NA,5444,5444,black,no,legacy,legacy,legacy,0,green,"(0, 123, 0)",shape,present,highProb,circular,swap,same,same,swap,green,"(0, 123, 0)",lowProb,lowProb3,rectangular,uniform,1,undefined,0,0.208333333,1,1,255.53125,1,40,49062,0,0,0,0,0,0,0,0,67,0,1,0.208333333,255.53125,40,49062,66,66,66,11/20/2018 13:51,Default description,yes,<openexp._canvas.legacy.Legacy object at 0x0529C1B0>,<openexp._canvas.legacy.Legacy object at 0x0505D1B0>,<openexp._canvas.legacy.Legacy object at 0x05048330>,<openexp._canvas.legacy.Legacy object at 0x05529E70>,<openexp._canvas.legacy.Legacy object at 0x055118D0>,<openexp._canvas.legacy.Legacy object at 0x05293210>,<openexp._canvas.legacy.Legacy object at 0x05771830>,<openexp._canvas.legacy.Legacy object at 0x0576DB70>,75,SpatProbMultiple3 (2).osexp,C:/Userdata/Michel/SpatProbMultiple3,no,mono,no,18,no,white,no,yes,0.09,98,1050,legacy,315,41,41,1,C:/Userdata/Michel/SpatProbMultiple3/subject-2.csv,legacy,12,192,25,Kafkaesque Koffka,3.2.5,yes,598477b2b83f69022949e7e9,47,green,circular,green,rectangular,0,/,1029,space,5444,5444,"(80, 80, 80)","(0, 123, 0)","(177, 0, 0)","(155, 155, 155)",2,legacy,experiment,"[1, 2, 3, 4, 5, 6, 7, 0]",/,2500,3000,0,8,252.7587515,1024,2,48000,-16,main,"[(0, -252), (178, -178), (252, 0), (178, 178), (0, 252), (-178, 178), (-252, 0), (-178, -178)]",[],26,even,4,NA,214634,542771,542771,142507,141495,2003,149219,149219,2003,2003,147951,647107,2002,542771,646075,645314,645315,NA,751,study_X,0,5444,1,yes,1680
undefined,undefined,NA,NA,NA,5444,5444,black,no,legacy,legacy,legacy,0,green,"(0, 123, 0)",color,absent,lowProb6,circular,same,same,same,swap,green,"(0, 123, 0)",lowProb,lowProb6,circular,uniform,1,undefined,0,0.213541667,1,1,260.6041667,1,41,50036,0,0,0,0,0,0,0,0,68,0,1,0.213541667,260.6041667,41,50036,67,67,67,11/20/2018 13:51,Default description,yes,<openexp._canvas.legacy.Legacy object at 0x0529C1B0>,<openexp._canvas.legacy.Legacy object at 0x0505D1B0>,<openexp._canvas.legacy.Legacy object at 0x05048330>,<openexp._canvas.legacy.Legacy object at 0x05529E70>,<openexp._canvas.legacy.Legacy object at 0x055118D0>,<openexp._canvas.legacy.Legacy object at 0x05293210>,<openexp._canvas.legacy.Legacy object at 0x0575DC70>,<openexp._canvas.legacy.Legacy object at 0x0576DB70>,75,SpatProbMultiple3 (2).osexp,C:/Userdata/Michel/SpatProbMultiple3,no,mono,no,18,no,white,no,yes,0.09,98,1050,legacy,315,42,42,1,C:/Userdata/Michel/SpatProbMultiple3/subject-2.csv,legacy,12,192,25,Kafkaesque Koffka,3.2.5,yes,598477b2b83f69022949e7e9,47,green,circular,green,circular,0,/,974,space,5444,5444,"(80, 80, 80)","(0, 123, 0)","(177, 0, 0)","(155, 155, 155)",2,legacy,experiment,"[1, 2, 3, 4, 5, 6, 7, 0]",/,2500,3000,0,8,252.7587515,1024,2,48000,-16,main,"[(0, -252), (178, -178), (252, 0), (178, 178), (0, 252), (-178, 178), (-252, 0), (-178, -178)]",[],26,even,0,NA,214634,542771,542771,142507,141495,2003,149219,149219,2003,2003,147951,649275,2002,542771,648298,647537,647537,NA,751,study_X,0,5444,1,yes,1680
undefined,undefined,NA,NA,NA,5444,5444,black,no,legacy,legacy,legacy,0,red,"(177, 0, 0)",shape,present,lowProb4,rectangular,swap,swap,swap,same,red,"(177, 0, 0)",highProbShape,highProbShape,circular,uniform,1,undefined,0,0.21875,1,1,266.8072917,1,42,51227,0,0,0,0,0,0,0,0,69,0,1,0.21875,266.8072917,42,51227,68,68,68,11/20/2018 13:51,Default description,yes,<openexp._canvas.legacy.Legacy object at 0x0529C1B0>,<openexp._canvas.legacy.Legacy object at 0x0505D1B0>,<openexp._canvas.legacy.Legacy object at 0x05048330>,<openexp._canvas.legacy.Legacy object at 0x05529E70>,<openexp._canvas.legacy.Legacy object at 0x055118D0>,<openexp._canvas.legacy.Legacy object at 0x05293210>,<openexp._canvas.legacy.Legacy object at 0x05771930>,<openexp._canvas.legacy.Legacy object at 0x0576DB70>,75,SpatProbMultiple3 (2).osexp,C:/Userdata/Michel/SpatProbMultiple3,no,mono,no,18,no,white,no,yes,0.09,98,1050,legacy,45,43,43,1,C:/Userdata/Michel/SpatProbMultiple3/subject-2.csv,legacy,12,192,25,Kafkaesque Koffka,3.2.5,yes,598477b2b83f69022949e7e9,47,red,rectangular,red,circular,0,\,1191,space,5444,5444,"(80, 80, 80)","(0, 123, 0)","(177, 0, 0)","(155, 155, 155)",2,legacy,experiment,"[1, 2, 3, 4, 5, 6, 7, 0]",\,2500,3000,0,8,252.7587515,1024,2,48000,-16,main,"[(0, -252), (178, -178), (252, 0), (178, 178), (0, 252), (-178, 178), (-252, 0), (-178, -178)]",[],26,even,5,NA,214634,542771,542771,142507,141495,2003,149219,149219,2003,2003,147951,651660,2002,542771,650466,649705,649705,NA,751,study_X,0,5444,1,yes,1680
undefined,undefined,NA,NA,NA,5444,5444,black,no,legacy,legacy,legacy,0,red,"(177, 0, 0)",color,present,highProb,circular,same,swap,swap,same,green,"(0, 123, 0)",lowProb,lowProb2,circular,uniform,1,undefined,0,0.223958333,1,1,274.546875,1,43,52713,0,0,0,0,0,0,0,0,70,0,1,0.223958333,274.546875,43,52713,69,69,69,11/20/2018 13:51,Default description,yes,<openexp._canvas.legacy.Legacy object at 0x0529C1B0>,<openexp._canvas.legacy.Legacy object at 0x0505D1B0>,<openexp._canvas.legacy.Legacy object at 0x05048330>,<openexp._canvas.legacy.Legacy object at 0x05529E70>,<openexp._canvas.legacy.Legacy object at 0x055118D0>,<openexp._canvas.legacy.Legacy object at 0x05293210>,<openexp._canvas.legacy.Legacy object at 0x0529C730>,<openexp._canvas.legacy.Legacy object at 0x0576DB70>,75,SpatProbMultiple3 (2).osexp,C:/Userdata/Michel/SpatProbMultiple3,no,mono,no,18,no,white,no,yes,0.09,98,1050,legacy,45,44,44,1,C:/Userdata/Michel/SpatProbMultiple3/subject-2.csv,legacy,12,192,25,Kafkaesque Koffka,3.2.5,yes,598477b2b83f69022949e7e9,47,red,circular,green,circular,0,\,1486,space,5444,5444,"(80, 80, 80)","(0, 123, 0)","(177, 0, 0)","(155, 155, 155)",2,legacy,experiment,"[1, 2, 3, 4, 5, 6, 7, 0]",\,2500,3000,0,8,252.7587515,1024,2,48000,-16,main,"[(0, -252), (178, -178), (252, 0), (178, 178), (0, 252), (-178, 178), (-252, 0), (-178, -178)]",[],26,even,3,NA,214634,542771,542771,142507,141495,2003,149219,149219,2003,2003,147951,654340,2002,542771,652851,652090,652090,NA,751,study_X,0,5444,1,yes,1680
undefined,undefined,NA,NA,NA,5444,5444,black,no,legacy,legacy,legacy,0,green,"(0, 123, 0)",shape,present,highProb,circular,swap,same,same,swap,green,"(0, 123, 0)",lowProb,lowProb2,rectangular,uniform,1,undefined,0,0.229166667,1,1,284.6927083,1,44,54661,0,0,0,0,0,0,0,0,71,0,1,0.229166667,284.6927083,44,54661,70,70,70,11/20/2018 13:51,Default description,yes,<openexp._canvas.legacy.Legacy object at 0x0529C1B0>,<openexp._canvas.legacy.Legacy object at 0x0505D1B0>,<openexp._canvas.legacy.Legacy object at 0x05048330>,<openexp._canvas.legacy.Legacy object at 0x05529E70>,<openexp._canvas.legacy.Legacy object at 0x055118D0>,<openexp._canvas.legacy.Legacy object at 0x05293210>,<openexp._canvas.legacy.Legacy object at 0x0575DB50>,<openexp._canvas.legacy.Legacy object at 0x0576DB70>,75,SpatProbMultiple3 (2).osexp,C:/Userdata/Michel/SpatProbMultiple3,no,mono,no,18,no,white,no,yes,0.09,98,1050,legacy,45,45,45,1,C:/Userdata/Michel/SpatProbMultiple3/subject-2.csv,legacy,12,192,25,Kafkaesque Koffka,3.2.5,yes,598477b2b83f69022949e7e9,47,green,circular,green,rectangular,0,\,1948,space,5444,5444,"(80, 80, 80)","(0, 123, 0)","(177, 0, 0)","(155, 155, 155)",2,legacy,experiment,"[1, 2, 3, 4, 5, 6, 7, 0]",\,2500,3000,0,8,252.7587515,1024,2,48000,-16,main,"[(0, -252), (178, -178), (252, 0), (178, 178), (0, 252), (-178, 178), (-252, 0), (-178, -178)]",[],26,even,3,NA,214634,542771,542771,142507,141495,2003,149219,149219,2003,2003,147951,657476,2002,542771,655524,654763,654764,NA,751,study_X,0,5444,1,yes,1680
undefined,undefined,NA,NA,NA,5444,5444,black,no,legacy,legacy,legacy,0,green,"(0, 123, 0)",color,present,lowProb6,circular,same,same,swap,swap,red,"(177, 0, 0)",lowProb,lowProb1,circular,uniform,1,undefined,0,0.234375,1,1,292.7239583,1,45,56203,0,0,0,0,0,0,0,0,72,0,1,0.234375,292.7239583,45,56203,71,71,71,11/20/2018 13:51,Default description,yes,<openexp._canvas.legacy.Legacy object at 0x0529C1B0>,<openexp._canvas.legacy.Legacy object at 0x0505D1B0>,<openexp._canvas.legacy.Legacy object at 0x05048330>,<openexp._canvas.legacy.Legacy object at 0x05529E70>,<openexp._canvas.legacy.Legacy object at 0x055118D0>,<openexp._canvas.legacy.Legacy object at 0x05293210>,<openexp._canvas.legacy.Legacy object at 0x05048D70>,<openexp._canvas.legacy.Legacy object at 0x0576DB70>,75,SpatProbMultiple3 (2).osexp,C:/Userdata/Michel/SpatProbMultiple3,no,mono,no,18,no,white,no,yes,0.09,98,1050,legacy,315,46,46,1,C:/Userdata/Michel/SpatProbMultiple3/subject-2.csv,legacy,12,192,25,Kafkaesque Koffka,3.2.5,yes,598477b2b83f69022949e7e9,47,green,circular,red,circular,0,/,1542,space,5444,5444,"(80, 80, 80)","(0, 123, 0)","(177, 0, 0)","(155, 155, 155)",2,legacy,experiment,"[1, 2, 3, 4, 5, 6, 7, 0]",/,2500,3000,0,8,252.7587515,1024,2,48000,-16,main,"[(0, -252), (178, -178), (252, 0), (178, 178), (0, 252), (-178, 178), (-252, 0), (-178, -178)]",[],26,even,2,NA,214634,542771,542771,142507,141495,2003,149219,149219,2003,2003,147951,660228,2002,542771,658683,657923,657923,NA,751,study_X,0,5444,1,yes,1680
undefined,undefined,NA,NA,NA,5444,5444,black,no,legacy,legacy,legacy,0,green,"(0, 123, 0)",shape,absent,lowProb2,rectangular,same,swap,swap,swap,green,"(0, 123, 0)",highProbShape,highProbShape,rectangular,uniform,1,undefined,0,0.239583333,1,1,297.765625,1,46,57171,0,0,0,0,0,0,0,0,73,0,1,0.239583333,297.765625,46,57171,72,72,72,11/20/2018 13:51,Default description,yes,<openexp._canvas.legacy.Legacy object at 0x0529C1B0>,<openexp._canvas.legacy.Legacy object at 0x0505D1B0>,<openexp._canvas.legacy.Legacy object at 0x05048330>,<openexp._canvas.legacy.Legacy object at 0x05529E70>,<openexp._canvas.legacy.Legacy object at 0x055118D0>,<openexp._canvas.legacy.Legacy object at 0x05293210>,<openexp._canvas.legacy.Legacy object at 0x05771AB0>,<openexp._canvas.legacy.Legacy object at 0x0576DB70>,75,SpatProbMultiple3 (2).osexp,C:/Userdata/Michel/SpatProbMultiple3,no,mono,no,18,no,white,no,yes,0.09,98,1050,legacy,45,47,47,1,C:/Userdata/Michel/SpatProbMultiple3/subject-2.csv,legacy,12,192,25,Kafkaesque Koffka,3.2.5,yes,598477b2b83f69022949e7e9,47,green,rectangular,green,rectangular,0,\,968,space,5444,5444,"(80, 80, 80)","(0, 123, 0)","(177, 0, 0)","(155, 155, 155)",2,legacy,experiment,"[1, 2, 3, 4, 5, 6, 7, 0]",\,2500,3000,0,8,252.7587515,1024,2,48000,-16,main,"[(0, -252), (178, -178), (252, 0), (178, 178), (0, 252), (-178, 178), (-252, 0), (-178, -178)]",[],26,even,5,NA,214634,542771,542771,142507,141495,2003,149219,149219,2003,2003,147951,662387,2002,542771,661417,660657,660657,NA,751,study_X,0,5444,1,yes,1680
undefined,undefined,NA,NA,NA,5444,5444,black,no,legacy,legacy,legacy,0,green,"(0, 123, 0)",color,present,highProb,circular,same,swap,swap,swap,red,"(177, 0, 0)",lowProb,lowProb1,circular,uniform,1,undefined,0,0.244791667,1,1,303.2864583,1,47,58231,0,0,0,0,0,0,0,0,74,0,1,0.244791667,303.2864583,47,58231,73,73,73,11/20/2018 13:51,Default description,yes,<openexp._canvas.legacy.Legacy object at 0x0529C1B0>,<openexp._canvas.legacy.Legacy object at 0x0505D1B0>,<openexp._canvas.legacy.Legacy object at 0x05048330>,<openexp._canvas.legacy.Legacy object at 0x05529E70>,<openexp._canvas.legacy.Legacy object at 0x055118D0>,<openexp._canvas.legacy.Legacy object at 0x05293210>,<openexp._canvas.legacy.Legacy object at 0x05762B90>,<openexp._canvas.legacy.Legacy object at 0x0576DB70>,75,SpatProbMultiple3 (2).osexp,C:/Userdata/Michel/SpatProbMultiple3,no,mono,no,18,no,white,no,yes,0.09,98,1050,legacy,315,48,48,1,C:/Userdata/Michel/SpatProbMultiple3/subject-2.csv,legacy,12,192,25,Kafkaesque Koffka,3.2.5,yes,598477b2b83f69022949e7e9,47,green,circular,red,circular,0,/,1060,space,5444,5444,"(80, 80, 80)","(0, 123, 0)","(177, 0, 0)","(155, 155, 155)",2,legacy,experiment,"[1, 2, 3, 4, 5, 6, 7, 0]",/,2500,3000,0,8,252.7587515,1024,2,48000,-16,main,"[(0, -252), (178, -178), (252, 0), (178, 178), (0, 252), (-178, 178), (-252, 0), (-178, -178)]",[],26,even,2,NA,214634,542771,542771,142507,141495,2003,149219,149219,2003,2003,147951,664643,2002,542771,663580,662820,662820,NA,751,study_X,0,5444,1,yes,1680
undefined,undefined,NA,NA,NA,5444,5444,black,no,legacy,legacy,legacy,0,red,"(177, 0, 0)",shape,absent,highProbOther,circular,swap,same,same,same,red,"(177, 0, 0)",lowProb,lowProb3,circular,uniform,1,undefined,0,0.25,1,1,307.7083333,1,48,59080,0,0,0,0,0,0,0,0,75,0,1,0.25,307.7083333,48,59080,74,74,74,11/20/2018 13:51,Default description,yes,<openexp._canvas.legacy.Legacy object at 0x0529C1B0>,<openexp._canvas.legacy.Legacy object at 0x0505D1B0>,<openexp._canvas.legacy.Legacy object at 0x05048330>,<openexp._canvas.legacy.Legacy object at 0x05529E70>,<openexp._canvas.legacy.Legacy object at 0x055118D0>,<openexp._canvas.legacy.Legacy object at 0x05293210>,<openexp._canvas.legacy.Legacy object at 0x052ABE10>,<openexp._canvas.legacy.Legacy object at 0x0576DB70>,75,SpatProbMultiple3 (2).osexp,C:/Userdata/Michel/SpatProbMultiple3,no,mono,no,18,no,white,no,yes,0.09,98,1050,legacy,315,49,49,1,C:/Userdata/Michel/SpatProbMultiple3/subject-2.csv,legacy,12,192,25,Kafkaesque Koffka,3.2.5,yes,598477b2b83f69022949e7e9,47,red,circular,red,circular,0,/,849,space,5444,5444,"(80, 80, 80)","(0, 123, 0)","(177, 0, 0)","(155, 155, 155)",2,legacy,experiment,"[1, 2, 3, 4, 5, 6, 7, 0]",/,2500,3000,0,8,252.7587515,1024,2,48000,-16,main,"[(0, -252), (178, -178), (252, 0), (178, 178), (0, 252), (-178, 178), (-252, 0), (-178, -178)]",[],26,even,4,NA,214634,542771,542771,142507,141495,2003,149219,149219,2003,2003,147951,666715,2002,542771,665863,665102,665102,NA,751,study_X,0,5444,1,yes,1680
undefined,undefined,NA,NA,NA,5444,5444,black,no,legacy,legacy,legacy,0,green,"(0, 123, 0)",shape,present,lowProb2,circular,swap,same,swap,swap,green,"(0, 123, 0)",lowProb,lowProb6,rectangular,uniform,1,undefined,0,0.255208333,1,1,315.5104167,1,49,60578,0,0,0,0,0,0,0,0,76,0,1,0.255208333,315.5104167,49,60578,75,75,75,11/20/2018 13:51,Default description,yes,<openexp._canvas.legacy.Legacy object at 0x0529C1B0>,<openexp._canvas.legacy.Legacy object at 0x0505D1B0>,<openexp._canvas.legacy.Legacy object at 0x05048330>,<openexp._canvas.legacy.Legacy object at 0x05529E70>,<openexp._canvas.legacy.Legacy object at 0x055118D0>,<openexp._canvas.legacy.Legacy object at 0x05293210>,<openexp._canvas.legacy.Legacy object at 0x0575D690>,<openexp._canvas.legacy.Legacy object at 0x0576DB70>,75,SpatProbMultiple3 (2).osexp,C:/Userdata/Michel/SpatProbMultiple3,no,mono,no,18,no,white,no,yes,0.09,98,1050,legacy,315,50,50,1,C:/Userdata/Michel/SpatProbMultiple3/subject-2.csv,legacy,12,192,25,Kafkaesque Koffka,3.2.5,yes,598477b2b83f69022949e7e9,47,green,circular,green,rectangular,0,/,1498,space,5444,5444,"(80, 80, 80)","(0, 123, 0)","(177, 0, 0)","(155, 155, 155)",2,legacy,experiment,"[1, 2, 3, 4, 5, 6, 7, 0]",/,2500,3000,0,8,252.7587515,1024,2,48000,-16,main,"[(0, -252), (178, -178), (252, 0), (178, 178), (0, 252), (-178, 178), (-252, 0), (-178, -178)]",[],26,even,0,NA,214634,542771,542771,142507,141495,2003,149219,149219,2003,2003,147951,669476,2002,542771,667975,667215,667215,NA,751,study_X,0,5444,1,yes,1680
undefined,undefined,NA,NA,NA,5444,5444,black,no,legacy,legacy,legacy,0,green,"(0, 123, 0)",shape,present,highProb,circular,same,same,same,same,green,"(0, 123, 0)",lowProb,lowProb5,rectangular,uniform,1,undefined,0,0.260416667,1,1,319,1,50,61248,0,0,0,0,0,0,0,0,77,0,1,0.260416667,319,50,61248,76,76,76,11/20/2018 13:51,Default description,yes,<openexp._canvas.legacy.Legacy object at 0x0529C1B0>,<openexp._canvas.legacy.Legacy object at 0x0505D1B0>,<openexp._canvas.legacy.Legacy object at 0x05048330>,<openexp._canvas.legacy.Legacy object at 0x05529E70>,<openexp._canvas.legacy.Legacy object at 0x055118D0>,<openexp._canvas.legacy.Legacy object at 0x05293210>,<openexp._canvas.legacy.Legacy object at 0x0576A050>,<openexp._canvas.legacy.Legacy object at 0x0576DB70>,75,SpatProbMultiple3 (2).osexp,C:/Userdata/Michel/SpatProbMultiple3,no,mono,no,18,no,white,no,yes,0.09,98,1050,legacy,45,51,51,1,C:/Userdata/Michel/SpatProbMultiple3/subject-2.csv,legacy,12,192,25,Kafkaesque Koffka,3.2.5,yes,598477b2b83f69022949e7e9,47,green,circular,green,rectangular,0,\,670,space,5444,5444,"(80, 80, 80)","(0, 123, 0)","(177, 0, 0)","(155, 155, 155)",2,legacy,experiment,"[1, 2, 3, 4, 5, 6, 7, 0]",\,2500,3000,0,8,252.7587515,1024,2,48000,-16,main,"[(0, -252), (178, -178), (252, 0), (178, 178), (0, 252), (-178, 178), (-252, 0), (-178, -178)]",[],26,even,7,NA,214634,542771,542771,142507,141495,2003,149219,149219,2003,2003,147951,671332,2002,542771,670658,669898,669898,NA,751,study_X,0,5444,1,yes,1680
undefined,undefined,NA,NA,NA,5444,5444,black,no,legacy,legacy,legacy,0,red,"(177, 0, 0)",color,present,highProb,circular,swap,same,same,swap,green,"(0, 123, 0)",lowProb,lowProb4,circular,uniform,1,undefined,0,0.265625,1,1,322.609375,1,51,61941,0,0,0,0,0,0,0,0,78,0,1,0.265625,322.609375,51,61941,77,77,77,11/20/2018 13:51,Default description,yes,<openexp._canvas.legacy.Legacy object at 0x0529C1B0>,<openexp._canvas.legacy.Legacy object at 0x0505D1B0>,<openexp._canvas.legacy.Legacy object at 0x05048330>,<openexp._canvas.legacy.Legacy object at 0x05529E70>,<openexp._canvas.legacy.Legacy object at 0x055118D0>,<openexp._canvas.legacy.Legacy object at 0x05293210>,<openexp._canvas.legacy.Legacy object at 0x0576A090>,<openexp._canvas.legacy.Legacy object at 0x0576DB70>,75,SpatProbMultiple3 (2).osexp,C:/Userdata/Michel/SpatProbMultiple3,no,mono,no,18,no,white,no,yes,0.09,98,1050,legacy,315,52,52,1,C:/Userdata/Michel/SpatProbMultiple3/subject-2.csv,legacy,12,192,25,Kafkaesque Koffka,3.2.5,yes,598477b2b83f69022949e7e9,47,red,circular,green,circular,0,/,693,space,5444,5444,"(80, 80, 80)","(0, 123, 0)","(177, 0, 0)","(155, 155, 155)",2,legacy,experiment,"[1, 2, 3, 4, 5, 6, 7, 0]",/,2500,3000,0,8,252.7587515,1024,2,48000,-16,main,"[(0, -252), (178, -178), (252, 0), (178, 178), (0, 252), (-178, 178), (-252, 0), (-178, -178)]",[],26,even,6,NA,214634,542771,542771,142507,141495,2003,149219,149219,2003,2003,147951,673220,2002,542771,672523,671762,671762,NA,751,study_X,0,5444,1,yes,1680
undefined,undefined,NA,NA,NA,5444,5444,black,no,legacy,legacy,legacy,0,green,"(0, 123, 0)",shape,present,lowProb6,rectangular,swap,swap,same,same,green,"(0, 123, 0)",lowProb,lowProb3,circular,uniform,1,undefined,0,0.270833333,1,1,329.6927083,1,52,63301,0,0,0,0,0,0,0,0,79,0,1,0.270833333,329.6927083,52,63301,78,78,78,11/20/2018 13:51,Default description,yes,<openexp._canvas.legacy.Legacy object at 0x0529C1B0>,<openexp._canvas.legacy.Legacy object at 0x0505D1B0>,<openexp._canvas.legacy.Legacy object at 0x05048330>,<openexp._canvas.legacy.Legacy object at 0x05529E70>,<openexp._canvas.legacy.Legacy object at 0x055118D0>,<openexp._canvas.legacy.Legacy object at 0x05293210>,<openexp._canvas.legacy.Legacy object at 0x057626D0>,<openexp._canvas.legacy.Legacy object at 0x0576DB70>,75,SpatProbMultiple3 (2).osexp,C:/Userdata/Michel/SpatProbMultiple3,no,mono,no,18,no,white,no,yes,0.09,98,1050,legacy,45,53,53,1,C:/Userdata/Michel/SpatProbMultiple3/subject-2.csv,legacy,12,192,25,Kafkaesque Koffka,3.2.5,yes,598477b2b83f69022949e7e9,47,green,rectangular,green,circular,0,\,1360,space,5444,5444,"(80, 80, 80)","(0, 123, 0)","(177, 0, 0)","(155, 155, 155)",2,legacy,experiment,"[1, 2, 3, 4, 5, 6, 7, 0]",\,2500,3000,0,8,252.7587515,1024,2,48000,-16,main,"[(0, -252), (178, -178), (252, 0), (178, 178), (0, 252), (-178, 178), (-252, 0), (-178, -178)]",[],26,even,4,NA,214634,542771,542771,142507,141495,2003,149219,149219,2003,2003,147951,675772,2002,542771,674409,673648,673648,NA,751,study_X,0,5444,1,yes,1680
undefined,undefined,NA,NA,NA,5444,5444,black,no,legacy,legacy,legacy,0,green,"(0, 123, 0)",color,absent,lowProb1,circular,same,swap,same,same,green,"(0, 123, 0)",highProbShape,highProbShape,circular,uniform,1,undefined,0,0.276041667,1,1,333.9635417,1,53,64121,0,0,0,0,0,0,0,0,80,0,1,0.276041667,333.9635417,53,64121,79,79,79,11/20/2018 13:51,Default description,yes,<openexp._canvas.legacy.Legacy object at 0x0529C1B0>,<openexp._canvas.legacy.Legacy object at 0x0505D1B0>,<openexp._canvas.legacy.Legacy object at 0x05048330>,<openexp._canvas.legacy.Legacy object at 0x05529E70>,<openexp._canvas.legacy.Legacy object at 0x055118D0>,<openexp._canvas.legacy.Legacy object at 0x05293210>,<openexp._canvas.legacy.Legacy object at 0x05048DD0>,<openexp._canvas.legacy.Legacy object at 0x0576DB70>,75,SpatProbMultiple3 (2).osexp,C:/Userdata/Michel/SpatProbMultiple3,no,mono,no,18,no,white,no,yes,0.09,98,1050,legacy,315,54,54,1,C:/Userdata/Michel/SpatProbMultiple3/subject-2.csv,legacy,12,192,25,Kafkaesque Koffka,3.2.5,yes,598477b2b83f69022949e7e9,47,green,circular,green,circular,0,/,820,space,5444,5444,"(80, 80, 80)","(0, 123, 0)","(177, 0, 0)","(155, 155, 155)",2,legacy,experiment,"[1, 2, 3, 4, 5, 6, 7, 0]",/,2500,3000,0,8,252.7587515,1024,2,48000,-16,main,"[(0, -252), (178, -178), (252, 0), (178, 178), (0, 252), (-178, 178), (-252, 0), (-178, -178)]",[],26,even,5,NA,214634,542771,542771,142507,141495,2003,149219,149219,2003,2003,147951,677803,2002,542771,676981,676222,676222,NA,751,study_X,0,5444,1,yes,1680
undefined,undefined,NA,NA,NA,5444,5444,black,no,legacy,legacy,legacy,0,green,"(0, 123, 0)",shape,present,highProb,rectangular,same,swap,same,same,green,"(0, 123, 0)",lowProb,lowProb5,circular,uniform,1,undefined,0,0.28125,1,1,339.6614583,1,54,65215,0,0,0,0,0,0,0,0,81,0,1,0.28125,339.6614583,54,65215,80,80,80,11/20/2018 13:51,Default description,yes,<openexp._canvas.legacy.Legacy object at 0x0529C1B0>,<openexp._canvas.legacy.Legacy object at 0x0505D1B0>,<openexp._canvas.legacy.Legacy object at 0x05048330>,<openexp._canvas.legacy.Legacy object at 0x05529E70>,<openexp._canvas.legacy.Legacy object at 0x055118D0>,<openexp._canvas.legacy.Legacy object at 0x05293210>,<openexp._canvas.legacy.Legacy object at 0x0529C590>,<openexp._canvas.legacy.Legacy object at 0x0576DB70>,75,SpatProbMultiple3 (2).osexp,C:/Userdata/Michel/SpatProbMultiple3,no,mono,no,18,no,white,no,yes,0.09,98,1050,legacy,45,55,55,1,C:/Userdata/Michel/SpatProbMultiple3/subject-2.csv,legacy,12,192,25,Kafkaesque Koffka,3.2.5,yes,598477b2b83f69022949e7e9,47,green,rectangular,green,circular,0,\,1094,space,5444,5444,"(80, 80, 80)","(0, 123, 0)","(177, 0, 0)","(155, 155, 155)",2,legacy,experiment,"[1, 2, 3, 4, 5, 6, 7, 0]",\,2500,3000,0,8,252.7587515,1024,2,48000,-16,main,"[(0, -252), (178, -178), (252, 0), (178, 178), (0, 252), (-178, 178), (-252, 0), (-178, -178)]",[],26,even,7,NA,214634,542771,542771,142507,141495,2003,149219,149219,2003,2003,147951,680091,2002,542771,678995,678234,678234,NA,751,study_X,0,5444,1,yes,1680
undefined,undefined,NA,NA,NA,5444,5444,black,no,legacy,legacy,legacy,0,green,"(0, 123, 0)",shape,absent,lowProb3,rectangular,same,same,same,swap,green,"(0, 123, 0)",lowProb,lowProb1,rectangular,uniform,1,undefined,0,0.286458333,1,1,347.4947917,1,55,66719,0,0,0,0,0,0,0,0,82,0,1,0.286458333,347.4947917,55,66719,81,81,81,11/20/2018 13:51,Default description,yes,<openexp._canvas.legacy.Legacy object at 0x0529C1B0>,<openexp._canvas.legacy.Legacy object at 0x0505D1B0>,<openexp._canvas.legacy.Legacy object at 0x05048330>,<openexp._canvas.legacy.Legacy object at 0x05529E70>,<openexp._canvas.legacy.Legacy object at 0x055118D0>,<openexp._canvas.legacy.Legacy object at 0x05293210>,<openexp._canvas.legacy.Legacy object at 0x0505D150>,<openexp._canvas.legacy.Legacy object at 0x0576DB70>,75,SpatProbMultiple3 (2).osexp,C:/Userdata/Michel/SpatProbMultiple3,no,mono,no,18,no,white,no,yes,0.09,98,1050,legacy,45,56,56,1,C:/Userdata/Michel/SpatProbMultiple3/subject-2.csv,legacy,12,192,25,Kafkaesque Koffka,3.2.5,yes,598477b2b83f69022949e7e9,47,green,rectangular,green,rectangular,0,\,1504,space,5444,5444,"(80, 80, 80)","(0, 123, 0)","(177, 0, 0)","(155, 155, 155)",2,legacy,experiment,"[1, 2, 3, 4, 5, 6, 7, 0]",\,2500,3000,0,8,252.7587515,1024,2,48000,-16,main,"[(0, -252), (178, -178), (252, 0), (178, 178), (0, 252), (-178, 178), (-252, 0), (-178, -178)]",[],26,even,2,NA,214634,542771,542771,142507,141495,2003,149219,149219,2003,2003,147951,682779,2002,542771,681273,680513,680513,NA,751,study_X,0,5444,1,yes,1680
undefined,undefined,NA,NA,NA,5444,5444,black,no,legacy,legacy,legacy,0,red,"(177, 0, 0)",color,present,highProb,circular,swap,swap,same,swap,green,"(0, 123, 0)",lowProb,lowProb1,circular,uniform,1,undefined,0,0.291666667,1,1,352.9010417,1,56,67757,0,0,0,0,0,0,0,0,83,0,1,0.291666667,352.9010417,56,67757,82,82,82,11/20/2018 13:51,Default description,yes,<openexp._canvas.legacy.Legacy object at 0x0529C1B0>,<openexp._canvas.legacy.Legacy object at 0x0505D1B0>,<openexp._canvas.legacy.Legacy object at 0x05048330>,<openexp._canvas.legacy.Legacy object at 0x05529E70>,<openexp._canvas.legacy.Legacy object at 0x055118D0>,<openexp._canvas.legacy.Legacy object at 0x05293210>,<openexp._canvas.legacy.Legacy object at 0x05762230>,<openexp._canvas.legacy.Legacy object at 0x0576DB70>,75,SpatProbMultiple3 (2).osexp,C:/Userdata/Michel/SpatProbMultiple3,no,mono,no,18,no,white,no,yes,0.09,98,1050,legacy,315,57,57,1,C:/Userdata/Michel/SpatProbMultiple3/subject-2.csv,legacy,12,192,25,Kafkaesque Koffka,3.2.5,yes,598477b2b83f69022949e7e9,47,red,circular,green,circular,0,/,1038,space,5444,5444,"(80, 80, 80)","(0, 123, 0)","(177, 0, 0)","(155, 155, 155)",2,legacy,experiment,"[1, 2, 3, 4, 5, 6, 7, 0]",/,2500,3000,0,8,252.7587515,1024,2,48000,-16,main,"[(0, -252), (178, -178), (252, 0), (178, 178), (0, 252), (-178, 178), (-252, 0), (-178, -178)]",[],26,even,2,NA,214634,542771,542771,142507,141495,2003,149219,149219,2003,2003,147951,685011,2002,542771,683971,683213,683213,NA,751,study_X,0,5444,1,yes,1680
undefined,undefined,NA,NA,NA,5444,5444,black,no,legacy,legacy,legacy,0,red,"(177, 0, 0)",color,present,lowProb6,rectangular,same,swap,same,swap,green,"(0, 123, 0)",highProbShape,highProbShape,rectangular,uniform,1,undefined,0,0.296875,1,1,357.2447917,1,57,68591,0,0,0,0,0,0,0,0,84,0,1,0.296875,357.2447917,57,68591,83,83,83,11/20/2018 13:51,Default description,yes,<openexp._canvas.legacy.Legacy object at 0x0529C1B0>,<openexp._canvas.legacy.Legacy object at 0x0505D1B0>,<openexp._canvas.legacy.Legacy object at 0x05048330>,<openexp._canvas.legacy.Legacy object at 0x05529E70>,<openexp._canvas.legacy.Legacy object at 0x055118D0>,<openexp._canvas.legacy.Legacy object at 0x05293210>,<openexp._canvas.legacy.Legacy object at 0x057606D0>,<openexp._canvas.legacy.Legacy object at 0x0576DB70>,75,SpatProbMultiple3 (2).osexp,C:/Userdata/Michel/SpatProbMultiple3,no,mono,no,18,no,white,no,yes,0.09,98,1050,legacy,315,58,58,1,C:/Userdata/Michel/SpatProbMultiple3/subject-2.csv,legacy,12,192,25,Kafkaesque Koffka,3.2.5,yes,598477b2b83f69022949e7e9,47,red,rectangular,green,rectangular,0,/,834,space,5444,5444,"(80, 80, 80)","(0, 123, 0)","(177, 0, 0)","(155, 155, 155)",2,legacy,experiment,"[1, 2, 3, 4, 5, 6, 7, 0]",/,2500,3000,0,8,252.7587515,1024,2,48000,-16,main,"[(0, -252), (178, -178), (252, 0), (178, 178), (0, 252), (-178, 178), (-252, 0), (-178, -178)]",[],26,even,5,NA,214634,542771,542771,142507,141495,2003,149219,149219,2003,2003,147951,687028,2002,542771,686191,685433,685433,NA,751,study_X,0,5444,1,yes,1680
undefined,undefined,NA,NA,NA,5444,5444,black,no,legacy,legacy,legacy,0,red,"(177, 0, 0)",color,present,highProb,circular,same,swap,same,swap,green,"(0, 123, 0)",lowProb,lowProb2,circular,uniform,1,undefined,0,0.302083333,1,1,362.265625,1,58,69555,0,0,0,0,0,0,0,0,85,0,1,0.302083333,362.265625,58,69555,84,84,84,11/20/2018 13:51,Default description,yes,<openexp._canvas.legacy.Legacy object at 0x0529C1B0>,<openexp._canvas.legacy.Legacy object at 0x0505D1B0>,<openexp._canvas.legacy.Legacy object at 0x05048330>,<openexp._canvas.legacy.Legacy object at 0x05529E70>,<openexp._canvas.legacy.Legacy object at 0x055118D0>,<openexp._canvas.legacy.Legacy object at 0x05293210>,<openexp._canvas.legacy.Legacy object at 0x052AAAD0>,<openexp._canvas.legacy.Legacy object at 0x0576DB70>,75,SpatProbMultiple3 (2).osexp,C:/Userdata/Michel/SpatProbMultiple3,no,mono,no,18,no,white,no,yes,0.09,98,1050,legacy,45,59,59,1,C:/Userdata/Michel/SpatProbMultiple3/subject-2.csv,legacy,12,192,25,Kafkaesque Koffka,3.2.5,yes,598477b2b83f69022949e7e9,47,red,circular,green,circular,0,\,964,space,5444,5444,"(80, 80, 80)","(0, 123, 0)","(177, 0, 0)","(155, 155, 155)",2,legacy,experiment,"[1, 2, 3, 4, 5, 6, 7, 0]",\,2500,3000,0,8,252.7587515,1024,2,48000,-16,main,"[(0, -252), (178, -178), (252, 0), (178, 178), (0, 252), (-178, 178), (-252, 0), (-178, -178)]",[],26,even,3,NA,214634,542771,542771,142507,141495,2003,149219,149219,2003,2003,147951,689188,2002,542771,688220,687459,687459,NA,751,study_X,0,5444,1,yes,1680
undefined,undefined,NA,NA,NA,5444,5444,black,no,legacy,legacy,legacy,0,green,"(0, 123, 0)",shape,present,lowProb5,circular,swap,same,same,swap,green,"(0, 123, 0)",lowProb,lowProb6,rectangular,uniform,1,undefined,0,0.307291667,1,1,367.71875,1,59,70602,0,0,0,0,0,0,0,0,86,0,1,0.307291667,367.71875,59,70602,85,85,85,11/20/2018 13:51,Default description,yes,<openexp._canvas.legacy.Legacy object at 0x0529C1B0>,<openexp._canvas.legacy.Legacy object at 0x0505D1B0>,<openexp._canvas.legacy.Legacy object at 0x05048330>,<openexp._canvas.legacy.Legacy object at 0x05529E70>,<openexp._canvas.legacy.Legacy object at 0x055118D0>,<openexp._canvas.legacy.Legacy object at 0x05293210>,<openexp._canvas.legacy.Legacy object at 0x05048DD0>,<openexp._canvas.legacy.Legacy object at 0x0576DB70>,75,SpatProbMultiple3 (2).osexp,C:/Userdata/Michel/SpatProbMultiple3,no,mono,no,18,no,white,no,yes,0.09,98,1050,legacy,315,60,60,1,C:/Userdata/Michel/SpatProbMultiple3/subject-2.csv,legacy,12,192,25,Kafkaesque Koffka,3.2.5,yes,598477b2b83f69022949e7e9,47,green,circular,green,rectangular,0,/,1047,space,5444,5444,"(80, 80, 80)","(0, 123, 0)","(177, 0, 0)","(155, 155, 155)",2,legacy,experiment,"[1, 2, 3, 4, 5, 6, 7, 0]",/,2500,3000,0,8,252.7587515,1024,2,48000,-16,main,"[(0, -252), (178, -178), (252, 0), (178, 178), (0, 252), (-178, 178), (-252, 0), (-178, -178)]",[],26,even,0,NA,214634,542771,542771,142507,141495,2003,149219,149219,2003,2003,147951,691444,2002,542771,690393,689633,689633,NA,751,study_X,0,5444,1,yes,1680
undefined,undefined,NA,NA,NA,5444,5444,black,no,legacy,legacy,legacy,0,red,"(177, 0, 0)",color,present,lowProb4,rectangular,swap,swap,same,same,green,"(0, 123, 0)",lowProb,lowProb1,rectangular,uniform,1,undefined,0,0.3125,1,1,375.5885417,1,60,72113,0,0,0,0,0,0,0,0,87,0,1,0.3125,375.5885417,60,72113,86,86,86,11/20/2018 13:51,Default description,yes,<openexp._canvas.legacy.Legacy object at 0x0529C1B0>,<openexp._canvas.legacy.Legacy object at 0x0505D1B0>,<openexp._canvas.legacy.Legacy object at 0x05048330>,<openexp._canvas.legacy.Legacy object at 0x05529E70>,<openexp._canvas.legacy.Legacy object at 0x055118D0>,<openexp._canvas.legacy.Legacy object at 0x05293210>,<openexp._canvas.legacy.Legacy object at 0x0529C590>,<openexp._canvas.legacy.Legacy object at 0x0576DB70>,75,SpatProbMultiple3 (2).osexp,C:/Userdata/Michel/SpatProbMultiple3,no,mono,no,18,no,white,no,yes,0.09,98,1050,legacy,315,61,61,1,C:/Userdata/Michel/SpatProbMultiple3/subject-2.csv,legacy,12,192,25,Kafkaesque Koffka,3.2.5,yes,598477b2b83f69022949e7e9,47,red,rectangular,green,rectangular,0,/,1511,space,5444,5444,"(80, 80, 80)","(0, 123, 0)","(177, 0, 0)","(155, 155, 155)",2,legacy,experiment,"[1, 2, 3, 4, 5, 6, 7, 0]",/,2500,3000,0,8,252.7587515,1024,2,48000,-16,main,"[(0, -252), (178, -178), (252, 0), (178, 178), (0, 252), (-178, 178), (-252, 0), (-178, -178)]",[],26,even,2,NA,214634,542771,542771,142507,141495,2003,149219,149219,2003,2003,147951,694147,2002,542771,692633,691872,691872,NA,751,study_X,0,5444,1,yes,1680
undefined,undefined,NA,NA,NA,5444,5444,black,no,legacy,legacy,legacy,0,red,"(177, 0, 0)",color,present,highProb,rectangular,same,same,same,same,green,"(0, 123, 0)",lowProb,lowProb2,rectangular,uniform,1,undefined,0,0.317708333,1,1,385.7291667,1,61,74060,0,0,0,0,0,0,0,0,88,0,1,0.317708333,385.7291667,61,74060,87,87,87,11/20/2018 13:51,Default description,yes,<openexp._canvas.legacy.Legacy object at 0x0529C1B0>,<openexp._canvas.legacy.Legacy object at 0x0505D1B0>,<openexp._canvas.legacy.Legacy object at 0x05048330>,<openexp._canvas.legacy.Legacy object at 0x05529E70>,<openexp._canvas.legacy.Legacy object at 0x055118D0>,<openexp._canvas.legacy.Legacy object at 0x05293210>,<openexp._canvas.legacy.Legacy object at 0x052AA6F0>,<openexp._canvas.legacy.Legacy object at 0x0576DB70>,75,SpatProbMultiple3 (2).osexp,C:/Userdata/Michel/SpatProbMultiple3,no,mono,no,18,no,white,no,yes,0.09,98,1050,legacy,45,62,62,1,C:/Userdata/Michel/SpatProbMultiple3/subject-2.csv,legacy,12,192,25,Kafkaesque Koffka,3.2.5,yes,598477b2b83f69022949e7e9,47,red,rectangular,green,rectangular,0,\,1947,space,5444,5444,"(80, 80, 80)","(0, 123, 0)","(177, 0, 0)","(155, 155, 155)",2,legacy,experiment,"[1, 2, 3, 4, 5, 6, 7, 0]",\,2500,3000,0,8,252.7587515,1024,2,48000,-16,main,"[(0, -252), (178, -178), (252, 0), (178, 178), (0, 252), (-178, 178), (-252, 0), (-178, -178)]",[],26,even,3,NA,214634,542771,542771,142507,141495,2003,149219,149219,2003,2003,147951,697291,2002,542771,695342,694581,694581,NA,751,study_X,0,5444,1,yes,1680
undefined,undefined,NA,NA,NA,5444,5444,black,no,legacy,legacy,legacy,0,red,"(177, 0, 0)",shape,present,highProb,rectangular,same,same,swap,swap,red,"(177, 0, 0)",lowProb,lowProb1,circular,uniform,1,undefined,0,0.322916667,1,1,393.6197917,1,62,75575,0,0,0,0,0,0,0,0,89,0,1,0.322916667,393.6197917,62,75575,88,88,88,11/20/2018 13:51,Default description,yes,<openexp._canvas.legacy.Legacy object at 0x0529C1B0>,<openexp._canvas.legacy.Legacy object at 0x0505D1B0>,<openexp._canvas.legacy.Legacy object at 0x05048330>,<openexp._canvas.legacy.Legacy object at 0x05529E70>,<openexp._canvas.legacy.Legacy object at 0x055118D0>,<openexp._canvas.legacy.Legacy object at 0x05293210>,<openexp._canvas.legacy.Legacy object at 0x0505D210>,<openexp._canvas.legacy.Legacy object at 0x0576DB70>,75,SpatProbMultiple3 (2).osexp,C:/Userdata/Michel/SpatProbMultiple3,no,mono,no,18,no,white,no,yes,0.09,98,1050,legacy,45,63,63,1,C:/Userdata/Michel/SpatProbMultiple3/subject-2.csv,legacy,12,192,25,Kafkaesque Koffka,3.2.5,yes,598477b2b83f69022949e7e9,47,red,rectangular,red,circular,0,\,1515,space,5444,5444,"(80, 80, 80)","(0, 123, 0)","(177, 0, 0)","(155, 155, 155)",2,legacy,experiment,"[1, 2, 3, 4, 5, 6, 7, 0]",\,2500,3000,0,8,252.7587515,1024,2,48000,-16,main,"[(0, -252), (178, -178), (252, 0), (178, 178), (0, 252), (-178, 178), (-252, 0), (-178, -178)]",[],26,even,2,NA,214634,542771,542771,142507,141495,2003,149219,149219,2003,2003,147951,699995,2002,542771,698477,697716,697716,NA,751,study_X,0,5444,1,yes,1680
