"acc","accuracy","answerQ1","answerQ2","answerQ3","average_response_time","avg_rt","background","bidi","canvas_backend","clock_backend","color_backend","compensation","cond_disColor","cond_disColorRGB","cond_disFeature","cond_disPresent","cond_disProbability","cond_disShape","cond_primingDisColor","cond_primingDisShape","cond_primingTarColor","cond_primingTarShape","cond_tarColor","cond_tarColorRGB","cond_tarLocation","cond_tarLocationLong","cond_tarShape","coordinates","correct","correct_continuePress","count_Questions","count_blockAcc","count_blockFeed","count_blockLoop","count_blockRT","count_blockSeq","count_blockSumCorrect","count_blockSumRT","count_continuePress","count_example","count_expSettings","count_exp_mainLoop","count_experiment","count_instructions","count_instructions1","count_instructions2","count_log","count_main","count_prepCanvas","count_totalAcc","count_totalRT","count_totalSumCorrect","count_totalSumRT","count_trialResp","count_trialSeq","count_trialTask","datetime","description","disable_garbage_collection","dispBlank","dispBlockStart","dispFeedBlock","dispFix","dispInstructions","dispQuestions","dispSearch","dispStartScreen","distance2screen","experiment_file","experiment_path","font_bold","font_family","font_italic","font_size","font_underline","foreground","form_clicks","fullscreen","gaborFreq","gaborSize","height","keyboard_backend","lineOriTar","live_row","live_row_blockLoop","live_row_exp_mainLoop","logfile","mouse_backend","noExpBlocks","noExpTrials","noPracTrials","opensesame_codename","opensesame_version","osf_always_upload_experiment","osf_id","physical_screensize","previousDisColor","previousDisShape","previousTarColor","previousTarShape","repeat_cycle","response","responseTime","response_continuePress","response_time","response_time_continuePress","rgb_gray","rgb_green","rgb_red","rgb_white","round_decimals","sampler_backend","set_blockType","set_counterPositions","set_respCorrect","set_respTimeoutExp","set_respTimeoutPrac","set_rotation","set_setSize","sizeImaginary","sound_buf_size","sound_channels","sound_freq","sound_sample_size","start","stimPositions","stimuli","subject_nr","subject_parity","tarIdx","time_Questions","time_blockFeed","time_blockLoop","time_blockSeq","time_continuePress","time_example","time_expSettings","time_exp_mainLoop","time_experiment","time_instructions","time_instructions1","time_instructions2","time_log","time_main","time_prepCanvas","time_trialResp","time_trialSeq","time_trialTask","timing_EEGwait","timing_fix","title","total_correct","total_response_time","total_responses","uniform_coordinates","width"
"undefined","undefined","NA","NA","NA","12979","12979","black","no","legacy","legacy","legacy","0","green","(0, 123, 0)","shape","present","lowProb3","circular","swap","same","same","swap","green","(0, 123, 0)","lowProb","lowProb5","rectangular","uniform","1","undefined","0","0.00520833333333","1","1","6.54166666667","1","1","1256","0","0","0","0","0","0","0","0","26","0","1","0.00520833333333","6.54166666667","1","1256","25","25","25","12/03/18 13:46:44","Default description","yes","<openexp._canvas.legacy.Legacy object at 0x05551CB0>","<openexp._canvas.legacy.Legacy object at 0x05523410>","<openexp._canvas.legacy.Legacy object at 0x05523B90>","<openexp._canvas.legacy.Legacy object at 0x053D8870>","<openexp._canvas.legacy.Legacy object at 0x053C8190>","<openexp._canvas.legacy.Legacy object at 0x055422B0>","<openexp._canvas.legacy.Legacy object at 0x05575330>","<openexp._canvas.legacy.Legacy object at 0x055239F0>","75","SpatProbMultiple3.osexp","C:/Userdata/Michel/SpatProbMultiple3","no","mono","no","18","no","white","no","yes","0.09","98","1050","legacy","45","0","0","1","C:/Userdata/Michel/SpatProbMultiple3/beh/subject-48.csv","legacy","9","192","25","Kafkaesque Koffka","3.2.5","yes","598477b2b83f69022949e7e9","47","green","circular","green","rectangular","0","\","1256","space","12979","12979","(80, 80, 80)","(0, 123, 0)","(177, 0, 0)","(155, 155, 155)","2","legacy","experiment","[7, 0, 1, 2, 3, 4, 5, 6]","\","2500","3000","0","8","252.758751519","1024","2","48000","-16","main","[(0, -252), (178, -178), (252, 0), (178, 178), (0, 252), (-178, 178), (-252, 0), (-178, -178)]","[]","48","even","5","NA","261003","334159","334159","154407","153395","2065","192828","192828","2065","2065","167386","341881","2064","334159","340623","334554","334554","NA","910","study_X","0","12979","1","yes","1680"
"undefined","undefined","NA","NA","NA","12979","12979","black","no","legacy","legacy","legacy","0","green","(0, 123, 0)","shape","absent","lowProb4","rectangular","same","swap","same","same","green","(0, 123, 0)","highProbShape","highProbShape","rectangular","uniform","1","undefined","0","0.0104166666667","1","1","9.55729166667","1","2","1835","0","0","0","0","0","0","0","0","27","0","1","0.0104166666667","9.55729166667","2","1835","26","26","26","12/03/18 13:46:44","Default description","yes","<openexp._canvas.legacy.Legacy object at 0x05551CB0>","<openexp._canvas.legacy.Legacy object at 0x05523410>","<openexp._canvas.legacy.Legacy object at 0x05523B90>","<openexp._canvas.legacy.Legacy object at 0x053D8870>","<openexp._canvas.legacy.Legacy object at 0x053C8190>","<openexp._canvas.legacy.Legacy object at 0x055422B0>","<openexp._canvas.legacy.Legacy object at 0x055A2AD0>","<openexp._canvas.legacy.Legacy object at 0x055239F0>","75","SpatProbMultiple3.osexp","C:/Userdata/Michel/SpatProbMultiple3","no","mono","no","18","no","white","no","yes","0.09","98","1050","legacy","315","1","1","1","C:/Userdata/Michel/SpatProbMultiple3/beh/subject-48.csv","legacy","9","192","25","Kafkaesque Koffka","3.2.5","yes","598477b2b83f69022949e7e9","47","green","rectangular","green","rectangular","0","/","579","space","12979","12979","(80, 80, 80)","(0, 123, 0)","(177, 0, 0)","(155, 155, 155)","2","legacy","experiment","[7, 0, 1, 2, 3, 4, 5, 6]","/","2500","3000","0","8","252.758751519","1024","2","48000","-16","main","[(0, -252), (178, -178), (252, 0), (178, 178), (0, 252), (-178, 178), (-252, 0), (-178, -178)]","[]","48","even","3","NA","261003","334159","334159","154407","153395","2065","192828","192828","2065","2065","167386","343825","2064","334159","343244","342327","342327","NA","910","study_X","0","12979","1","yes","1680"
"undefined","undefined","NA","NA","NA","12979","12979","black","no","legacy","legacy","legacy","0","green","(0, 123, 0)","color","present","lowProb4","circular","same","swap","swap","swap","red","(177, 0, 0)","highProbColor","highProbColor","circular","uniform","1","undefined","0","0.015625","1","1","13.921875","1","3","2673","0","0","0","0","0","0","0","0","28","0","1","0.015625","13.921875","3","2673","27","27","27","12/03/18 13:46:44","Default description","yes","<openexp._canvas.legacy.Legacy object at 0x05551CB0>","<openexp._canvas.legacy.Legacy object at 0x05523410>","<openexp._canvas.legacy.Legacy object at 0x05523B90>","<openexp._canvas.legacy.Legacy object at 0x053D8870>","<openexp._canvas.legacy.Legacy object at 0x053C8190>","<openexp._canvas.legacy.Legacy object at 0x055422B0>","<openexp._canvas.legacy.Legacy object at 0x0555ABF0>","<openexp._canvas.legacy.Legacy object at 0x055239F0>","75","SpatProbMultiple3.osexp","C:/Userdata/Michel/SpatProbMultiple3","no","mono","no","18","no","white","no","yes","0.09","98","1050","legacy","315","2","2","1","C:/Userdata/Michel/SpatProbMultiple3/beh/subject-48.csv","legacy","9","192","25","Kafkaesque Koffka","3.2.5","yes","598477b2b83f69022949e7e9","47","green","circular","red","circular","0","/","838","space","12979","12979","(80, 80, 80)","(0, 123, 0)","(177, 0, 0)","(155, 155, 155)","2","legacy","experiment","[7, 0, 1, 2, 3, 4, 5, 6]","/","2500","3000","0","8","252.758751519","1024","2","48000","-16","main","[(0, -252), (178, -178), (252, 0), (178, 178), (0, 252), (-178, 178), (-252, 0), (-178, -178)]","[]","48","even","7","NA","261003","334159","334159","154407","153395","2065","192828","192828","2065","2065","167386","346017","2064","334159","345177","344257","344257","NA","910","study_X","0","12979","1","yes","1680"
"undefined","undefined","NA","NA","NA","12979","12979","black","no","legacy","legacy","legacy","0","red","(177, 0, 0)","color","present","lowProb5","rectangular","swap","swap","swap","swap","green","(0, 123, 0)","lowProb","lowProb3","rectangular","uniform","1","undefined","0","0.0208333333333","1","1","19.390625","1","4","3723","0","0","0","0","0","0","0","0","29","0","1","0.0208333333333","19.390625","4","3723","28","28","28","12/03/18 13:46:44","Default description","yes","<openexp._canvas.legacy.Legacy object at 0x05551CB0>","<openexp._canvas.legacy.Legacy object at 0x05523410>","<openexp._canvas.legacy.Legacy object at 0x05523B90>","<openexp._canvas.legacy.Legacy object at 0x053D8870>","<openexp._canvas.legacy.Legacy object at 0x053C8190>","<openexp._canvas.legacy.Legacy object at 0x055422B0>","<openexp._canvas.legacy.Legacy object at 0x05551290>","<openexp._canvas.legacy.Legacy object at 0x055239F0>","75","SpatProbMultiple3.osexp","C:/Userdata/Michel/SpatProbMultiple3","no","mono","no","18","no","white","no","yes","0.09","98","1050","legacy","315","3","3","1","C:/Userdata/Michel/SpatProbMultiple3/beh/subject-48.csv","legacy","9","192","25","Kafkaesque Koffka","3.2.5","yes","598477b2b83f69022949e7e9","47","red","rectangular","green","rectangular","0","/","1050","space","12979","12979","(80, 80, 80)","(0, 123, 0)","(177, 0, 0)","(155, 155, 155)","2","legacy","experiment","[7, 0, 1, 2, 3, 4, 5, 6]","/","2500","3000","0","8","252.758751519","1024","2","48000","-16","main","[(0, -252), (178, -178), (252, 0), (178, 178), (0, 252), (-178, 178), (-252, 0), (-178, -178)]","[]","48","even","2","NA","261003","334159","334159","154407","153395","2065","192828","192828","2065","2065","167386","348441","2064","334159","347388","346468","346468","NA","910","study_X","0","12979","1","yes","1680"
"undefined","undefined","NA","NA","NA","12979","12979","black","no","legacy","legacy","legacy","0","green","(0, 123, 0)","color","present","highProb","rectangular","swap","same","swap","same","red","(177, 0, 0)","lowProb","lowProb3","rectangular","uniform","1","undefined","0","0.0260416666667","1","1","27.125","1","5","5208","0","0","0","0","0","0","0","0","30","0","1","0.0260416666667","27.125","5","5208","29","29","29","12/03/18 13:46:44","Default description","yes","<openexp._canvas.legacy.Legacy object at 0x05551CB0>","<openexp._canvas.legacy.Legacy object at 0x05523410>","<openexp._canvas.legacy.Legacy object at 0x05523B90>","<openexp._canvas.legacy.Legacy object at 0x053D8870>","<openexp._canvas.legacy.Legacy object at 0x053C8190>","<openexp._canvas.legacy.Legacy object at 0x055422B0>","<openexp._canvas.legacy.Legacy object at 0x05551510>","<openexp._canvas.legacy.Legacy object at 0x055239F0>","75","SpatProbMultiple3.osexp","C:/Userdata/Michel/SpatProbMultiple3","no","mono","no","18","no","white","no","yes","0.09","98","1050","legacy","45","4","4","1","C:/Userdata/Michel/SpatProbMultiple3/beh/subject-48.csv","legacy","9","192","25","Kafkaesque Koffka","3.2.5","yes","598477b2b83f69022949e7e9","47","green","rectangular","red","rectangular","0","\","1485","space","12979","12979","(80, 80, 80)","(0, 123, 0)","(177, 0, 0)","(155, 155, 155)","2","legacy","experiment","[7, 0, 1, 2, 3, 4, 5, 6]","\","2500","3000","0","8","252.758751519","1024","2","48000","-16","main","[(0, -252), (178, -178), (252, 0), (178, 178), (0, 252), (-178, 178), (-252, 0), (-178, -178)]","[]","48","even","2","NA","261003","334159","334159","154407","153395","2065","192828","192828","2065","2065","167386","351273","2064","334159","349785","348866","348866","NA","910","study_X","0","12979","1","yes","1680"
"undefined","undefined","NA","NA","NA","12979","12979","black","no","legacy","legacy","legacy","0","red","(177, 0, 0)","shape","present","lowProb1","circular","swap","swap","same","same","red","(177, 0, 0)","lowProb","lowProb2","rectangular","uniform","1","undefined","0","0.03125","1","1","32.96875","1","6","6330","0","0","0","0","0","0","0","0","31","0","1","0.03125","32.96875","6","6330","30","30","30","12/03/18 13:46:44","Default description","yes","<openexp._canvas.legacy.Legacy object at 0x05551CB0>","<openexp._canvas.legacy.Legacy object at 0x05523410>","<openexp._canvas.legacy.Legacy object at 0x05523B90>","<openexp._canvas.legacy.Legacy object at 0x053D8870>","<openexp._canvas.legacy.Legacy object at 0x053C8190>","<openexp._canvas.legacy.Legacy object at 0x055422B0>","<openexp._canvas.legacy.Legacy object at 0x05551FB0>","<openexp._canvas.legacy.Legacy object at 0x055239F0>","75","SpatProbMultiple3.osexp","C:/Userdata/Michel/SpatProbMultiple3","no","mono","no","18","no","white","no","yes","0.09","98","1050","legacy","45","5","5","1","C:/Userdata/Michel/SpatProbMultiple3/beh/subject-48.csv","legacy","9","192","25","Kafkaesque Koffka","3.2.5","yes","598477b2b83f69022949e7e9","47","red","circular","red","rectangular","0","\","1122","space","12979","12979","(80, 80, 80)","(0, 123, 0)","(177, 0, 0)","(155, 155, 155)","2","legacy","experiment","[7, 0, 1, 2, 3, 4, 5, 6]","\","2500","3000","0","8","252.758751519","1024","2","48000","-16","main","[(0, -252), (178, -178), (252, 0), (178, 178), (0, 252), (-178, 178), (-252, 0), (-178, -178)]","[]","48","even","1","NA","261003","334159","334159","154407","153395","2065","192828","192828","2065","2065","167386","353744","2064","334159","352619","351700","351700","NA","910","study_X","0","12979","1","yes","1680"
"undefined","undefined","NA","NA","NA","12979","12979","black","no","legacy","legacy","legacy","0","green","(0, 123, 0)","shape","present","lowProb3","rectangular","swap","swap","swap","swap","green","(0, 123, 0)","lowProb","lowProb2","circular","uniform","1","undefined","0","0.0364583333333","1","1","37.4479166667","1","7","7190","0","0","0","0","0","0","0","0","32","0","1","0.0364583333333","37.4479166667","7","7190","31","31","31","12/03/18 13:46:44","Default description","yes","<openexp._canvas.legacy.Legacy object at 0x05551CB0>","<openexp._canvas.legacy.Legacy object at 0x05523410>","<openexp._canvas.legacy.Legacy object at 0x05523B90>","<openexp._canvas.legacy.Legacy object at 0x053D8870>","<openexp._canvas.legacy.Legacy object at 0x053C8190>","<openexp._canvas.legacy.Legacy object at 0x055422B0>","<openexp._canvas.legacy.Legacy object at 0x0554A8D0>","<openexp._canvas.legacy.Legacy object at 0x055239F0>","75","SpatProbMultiple3.osexp","C:/Userdata/Michel/SpatProbMultiple3","no","mono","no","18","no","white","no","yes","0.09","98","1050","legacy","315","6","6","1","C:/Userdata/Michel/SpatProbMultiple3/beh/subject-48.csv","legacy","9","192","25","Kafkaesque Koffka","3.2.5","yes","598477b2b83f69022949e7e9","47","green","rectangular","green","circular","0","/","860","space","12979","12979","(80, 80, 80)","(0, 123, 0)","(177, 0, 0)","(155, 155, 155)","2","legacy","experiment","[7, 0, 1, 2, 3, 4, 5, 6]","/","2500","3000","0","8","252.758751519","1024","2","48000","-16","main","[(0, -252), (178, -178), (252, 0), (178, 178), (0, 252), (-178, 178), (-252, 0), (-178, -178)]","[]","48","even","1","NA","261003","334159","334159","154407","153395","2065","192828","192828","2065","2065","167386","355952","2064","334159","355090","354173","354173","NA","910","study_X","0","12979","1","yes","1680"
"undefined","undefined","NA","NA","NA","12979","12979","black","no","legacy","legacy","legacy","0","green","(0, 123, 0)","color","present","highProb","circular","same","swap","swap","same","red","(177, 0, 0)","lowProb","lowProb4","circular","uniform","1","undefined","0","0.0416666666667","1","1","43.2135416667","1","8","8297","0","0","0","0","0","0","0","0","33","0","1","0.0416666666667","43.2135416667","8","8297","32","32","32","12/03/18 13:46:44","Default description","yes","<openexp._canvas.legacy.Legacy object at 0x05551CB0>","<openexp._canvas.legacy.Legacy object at 0x05523410>","<openexp._canvas.legacy.Legacy object at 0x05523B90>","<openexp._canvas.legacy.Legacy object at 0x053D8870>","<openexp._canvas.legacy.Legacy object at 0x053C8190>","<openexp._canvas.legacy.Legacy object at 0x055422B0>","<openexp._canvas.legacy.Legacy object at 0x055A24D0>","<openexp._canvas.legacy.Legacy object at 0x055239F0>","75","SpatProbMultiple3.osexp","C:/Userdata/Michel/SpatProbMultiple3","no","mono","no","18","no","white","no","yes","0.09","98","1050","legacy","45","7","7","1","C:/Userdata/Michel/SpatProbMultiple3/beh/subject-48.csv","legacy","9","192","25","Kafkaesque Koffka","3.2.5","yes","598477b2b83f69022949e7e9","47","green","circular","red","circular","0","\","1107","space","12979","12979","(80, 80, 80)","(0, 123, 0)","(177, 0, 0)","(155, 155, 155)","2","legacy","experiment","[7, 0, 1, 2, 3, 4, 5, 6]","\","2500","3000","0","8","252.758751519","1024","2","48000","-16","main","[(0, -252), (178, -178), (252, 0), (178, 178), (0, 252), (-178, 178), (-252, 0), (-178, -178)]","[]","48","even","4","NA","261003","334159","334159","154407","153395","2065","192828","192828","2065","2065","167386","358433","2064","334159","357324","356404","356405","NA","910","study_X","0","12979","1","yes","1680"
"undefined","undefined","NA","NA","NA","12979","12979","black","no","legacy","legacy","legacy","0","green","(0, 123, 0)","shape","present","lowProb4","rectangular","same","swap","swap","same","green","(0, 123, 0)","highProbColor","highProbColor","circular","uniform","1","undefined","0","0.046875","1","1","47.203125","1","9","9063","0","0","0","0","0","0","0","0","34","0","1","0.046875","47.203125","9","9063","33","33","33","12/03/18 13:46:44","Default description","yes","<openexp._canvas.legacy.Legacy object at 0x05551CB0>","<openexp._canvas.legacy.Legacy object at 0x05523410>","<openexp._canvas.legacy.Legacy object at 0x05523B90>","<openexp._canvas.legacy.Legacy object at 0x053D8870>","<openexp._canvas.legacy.Legacy object at 0x053C8190>","<openexp._canvas.legacy.Legacy object at 0x055422B0>","<openexp._canvas.legacy.Legacy object at 0x05569950>","<openexp._canvas.legacy.Legacy object at 0x055239F0>","75","SpatProbMultiple3.osexp","C:/Userdata/Michel/SpatProbMultiple3","no","mono","no","18","no","white","no","yes","0.09","98","1050","legacy","45","8","8","1","C:/Userdata/Michel/SpatProbMultiple3/beh/subject-48.csv","legacy","9","192","25","Kafkaesque Koffka","3.2.5","yes","598477b2b83f69022949e7e9","47","green","rectangular","green","circular","0","\","766","space","12979","12979","(80, 80, 80)","(0, 123, 0)","(177, 0, 0)","(155, 155, 155)","2","legacy","experiment","[7, 0, 1, 2, 3, 4, 5, 6]","\","2500","3000","0","8","252.758751519","1024","2","48000","-16","main","[(0, -252), (178, -178), (252, 0), (178, 178), (0, 252), (-178, 178), (-252, 0), (-178, -178)]","[]","48","even","7","NA","261003","334159","334159","154407","153395","2065","192828","192828","2065","2065","167386","360537","2064","334159","359769","358850","358850","NA","910","study_X","0","12979","1","yes","1680"
"undefined","undefined","NA","NA","NA","12979","12979","black","no","legacy","legacy","legacy","0","red","(177, 0, 0)","color","present","highProb","rectangular","swap","same","same","swap","green","(0, 123, 0)","lowProb","lowProb5","rectangular","uniform","1","undefined","0","0.0520833333333","1","1","50.5364583333","1","10","9703","0","0","0","0","0","0","0","0","35","0","1","0.0520833333333","50.5364583333","10","9703","34","34","34","12/03/18 13:46:44","Default description","yes","<openexp._canvas.legacy.Legacy object at 0x05551CB0>","<openexp._canvas.legacy.Legacy object at 0x05523410>","<openexp._canvas.legacy.Legacy object at 0x05523B90>","<openexp._canvas.legacy.Legacy object at 0x053D8870>","<openexp._canvas.legacy.Legacy object at 0x053C8190>","<openexp._canvas.legacy.Legacy object at 0x055422B0>","<openexp._canvas.legacy.Legacy object at 0x0556F1B0>","<openexp._canvas.legacy.Legacy object at 0x055239F0>","75","SpatProbMultiple3.osexp","C:/Userdata/Michel/SpatProbMultiple3","no","mono","no","18","no","white","no","yes","0.09","98","1050","legacy","315","9","9","1","C:/Userdata/Michel/SpatProbMultiple3/beh/subject-48.csv","legacy","9","192","25","Kafkaesque Koffka","3.2.5","yes","598477b2b83f69022949e7e9","47","red","rectangular","green","rectangular","0","/","640","space","12979","12979","(80, 80, 80)","(0, 123, 0)","(177, 0, 0)","(155, 155, 155)","2","legacy","experiment","[7, 0, 1, 2, 3, 4, 5, 6]","/","2500","3000","0","8","252.758751519","1024","2","48000","-16","main","[(0, -252), (178, -178), (252, 0), (178, 178), (0, 252), (-178, 178), (-252, 0), (-178, -178)]","[]","48","even","5","NA","261003","334159","334159","154407","153395","2065","192828","192828","2065","2065","167386","362529","2064","334159","361886","360966","360966","NA","910","study_X","0","12979","1","yes","1680"
"undefined","undefined","NA","NA","NA","12979","12979","black","no","legacy","legacy","legacy","0","green","(0, 123, 0)","color","present","highProb","circular","swap","swap","swap","swap","red","(177, 0, 0)","highProbShape","highProbShape","circular","uniform","1","undefined","0","0.0572916666667","1","1","54.1666666667","1","11","10400","0","0","0","0","0","0","0","0","36","0","1","0.0572916666667","54.1666666667","11","10400","35","35","35","12/03/18 13:46:44","Default description","yes","<openexp._canvas.legacy.Legacy object at 0x05551CB0>","<openexp._canvas.legacy.Legacy object at 0x05523410>","<openexp._canvas.legacy.Legacy object at 0x05523B90>","<openexp._canvas.legacy.Legacy object at 0x053D8870>","<openexp._canvas.legacy.Legacy object at 0x053C8190>","<openexp._canvas.legacy.Legacy object at 0x055422B0>","<openexp._canvas.legacy.Legacy object at 0x0555AF50>","<openexp._canvas.legacy.Legacy object at 0x055239F0>","75","SpatProbMultiple3.osexp","C:/Userdata/Michel/SpatProbMultiple3","no","mono","no","18","no","white","no","yes","0.09","98","1050","legacy","45","10","10","1","C:/Userdata/Michel/SpatProbMultiple3/beh/subject-48.csv","legacy","9","192","25","Kafkaesque Koffka","3.2.5","yes","598477b2b83f69022949e7e9","47","green","circular","red","circular","0","\","697","space","12979","12979","(80, 80, 80)","(0, 123, 0)","(177, 0, 0)","(155, 155, 155)","2","legacy","experiment","[7, 0, 1, 2, 3, 4, 5, 6]","\","2500","3000","0","8","252.758751519","1024","2","48000","-16","main","[(0, -252), (178, -178), (252, 0), (178, 178), (0, 252), (-178, 178), (-252, 0), (-178, -178)]","[]","48","even","3","NA","261003","334159","334159","154407","153395","2065","192828","192828","2065","2065","167386","364577","2064","334159","363876","362957","362957","NA","910","study_X","0","12979","1","yes","1680"
"undefined","undefined","NA","NA","NA","12979","12979","black","no","legacy","legacy","legacy","0","green","(0, 123, 0)","shape","absent","highProbOther","circular","same","same","swap","same","green","(0, 123, 0)","highProbColor","highProbColor","circular","uniform","1","undefined","0","0.0625","1","1","57.03125","1","12","10950","0","0","0","0","0","0","0","0","37","0","1","0.0625","57.03125","12","10950","36","36","36","12/03/18 13:46:44","Default description","yes","<openexp._canvas.legacy.Legacy object at 0x05551CB0>","<openexp._canvas.legacy.Legacy object at 0x05523410>","<openexp._canvas.legacy.Legacy object at 0x05523B90>","<openexp._canvas.legacy.Legacy object at 0x053D8870>","<openexp._canvas.legacy.Legacy object at 0x053C8190>","<openexp._canvas.legacy.Legacy object at 0x055422B0>","<openexp._canvas.legacy.Legacy object at 0x05579A30>","<openexp._canvas.legacy.Legacy object at 0x055239F0>","75","SpatProbMultiple3.osexp","C:/Userdata/Michel/SpatProbMultiple3","no","mono","no","18","no","white","no","yes","0.09","98","1050","legacy","45","11","11","1","C:/Userdata/Michel/SpatProbMultiple3/beh/subject-48.csv","legacy","9","192","25","Kafkaesque Koffka","3.2.5","yes","598477b2b83f69022949e7e9","47","green","circular","green","circular","0","\","550","space","12979","12979","(80, 80, 80)","(0, 123, 0)","(177, 0, 0)","(155, 155, 155)","2","legacy","experiment","[7, 0, 1, 2, 3, 4, 5, 6]","\","2500","3000","0","8","252.758751519","1024","2","48000","-16","main","[(0, -252), (178, -178), (252, 0), (178, 178), (0, 252), (-178, 178), (-252, 0), (-178, -178)]","[]","48","even","7","NA","261003","334159","334159","154407","153395","2065","192828","192828","2065","2065","167386","366481","2064","334159","365928","365009","365009","NA","910","study_X","0","12979","1","yes","1680"
"undefined","undefined","NA","NA","NA","12979","12979","black","no","legacy","legacy","legacy","0","green","(0, 123, 0)","shape","present","highProb","rectangular","same","swap","same","same","green","(0, 123, 0)","lowProb","lowProb5","circular","uniform","1","undefined","0","0.0677083333333","1","1","61.2708333333","1","13","11764","0","0","0","0","0","0","0","0","38","0","1","0.0677083333333","61.2708333333","13","11764","37","37","37","12/03/18 13:46:44","Default description","yes","<openexp._canvas.legacy.Legacy object at 0x05551CB0>","<openexp._canvas.legacy.Legacy object at 0x05523410>","<openexp._canvas.legacy.Legacy object at 0x05523B90>","<openexp._canvas.legacy.Legacy object at 0x053D8870>","<openexp._canvas.legacy.Legacy object at 0x053C8190>","<openexp._canvas.legacy.Legacy object at 0x055422B0>","<openexp._canvas.legacy.Legacy object at 0x05551430>","<openexp._canvas.legacy.Legacy object at 0x055239F0>","75","SpatProbMultiple3.osexp","C:/Userdata/Michel/SpatProbMultiple3","no","mono","no","18","no","white","no","yes","0.09","98","1050","legacy","315","12","12","1","C:/Userdata/Michel/SpatProbMultiple3/beh/subject-48.csv","legacy","9","192","25","Kafkaesque Koffka","3.2.5","yes","598477b2b83f69022949e7e9","47","green","rectangular","green","circular","0","/","814","space","12979","12979","(80, 80, 80)","(0, 123, 0)","(177, 0, 0)","(155, 155, 155)","2","legacy","experiment","[7, 0, 1, 2, 3, 4, 5, 6]","/","2500","3000","0","8","252.758751519","1024","2","48000","-16","main","[(0, -252), (178, -178), (252, 0), (178, 178), (0, 252), (-178, 178), (-252, 0), (-178, -178)]","[]","48","even","5","NA","261003","334159","334159","154407","153395","2065","192828","192828","2065","2065","167386","368648","2064","334159","367832","366912","366912","NA","910","study_X","0","12979","1","yes","1680"
"undefined","undefined","NA","NA","NA","12979","12979","black","no","legacy","legacy","legacy","0","red","(177, 0, 0)","color","present","highProb","circular","swap","swap","same","same","green","(0, 123, 0)","lowProb","lowProb6","circular","uniform","1","undefined","0","0.0729166666667","1","1","67.59375","1","14","12978","0","0","0","0","0","0","0","0","39","0","1","0.0729166666667","67.59375","14","12978","38","38","38","12/03/18 13:46:44","Default description","yes","<openexp._canvas.legacy.Legacy object at 0x05551CB0>","<openexp._canvas.legacy.Legacy object at 0x05523410>","<openexp._canvas.legacy.Legacy object at 0x05523B90>","<openexp._canvas.legacy.Legacy object at 0x053D8870>","<openexp._canvas.legacy.Legacy object at 0x053C8190>","<openexp._canvas.legacy.Legacy object at 0x055422B0>","<openexp._canvas.legacy.Legacy object at 0x05523730>","<openexp._canvas.legacy.Legacy object at 0x055239F0>","75","SpatProbMultiple3.osexp","C:/Userdata/Michel/SpatProbMultiple3","no","mono","no","18","no","white","no","yes","0.09","98","1050","legacy","45","13","13","1","C:/Userdata/Michel/SpatProbMultiple3/beh/subject-48.csv","legacy","9","192","25","Kafkaesque Koffka","3.2.5","yes","598477b2b83f69022949e7e9","47","red","circular","green","circular","0","\","1214","space","12979","12979","(80, 80, 80)","(0, 123, 0)","(177, 0, 0)","(155, 155, 155)","2","legacy","experiment","[7, 0, 1, 2, 3, 4, 5, 6]","\","2500","3000","0","8","252.758751519","1024","2","48000","-16","main","[(0, -252), (178, -178), (252, 0), (178, 178), (0, 252), (-178, 178), (-252, 0), (-178, -178)]","[]","48","even","6","NA","261003","334159","334159","154407","153395","2065","192828","192828","2065","2065","167386","371208","2064","334159","369991","369072","369072","NA","910","study_X","0","12979","1","yes","1680"
"undefined","undefined","NA","NA","NA","12979","12979","black","no","legacy","legacy","legacy","0","red","(177, 0, 0)","shape","absent","lowProb5","circular","same","same","swap","same","red","(177, 0, 0)","lowProb","lowProb3","circular","uniform","1","undefined","0","0.078125","1","1","70.8697916667","1","15","13607","0","0","0","0","0","0","0","0","40","0","1","0.078125","70.8697916667","15","13607","39","39","39","12/03/18 13:46:44","Default description","yes","<openexp._canvas.legacy.Legacy object at 0x05551CB0>","<openexp._canvas.legacy.Legacy object at 0x05523410>","<openexp._canvas.legacy.Legacy object at 0x05523B90>","<openexp._canvas.legacy.Legacy object at 0x053D8870>","<openexp._canvas.legacy.Legacy object at 0x053C8190>","<openexp._canvas.legacy.Legacy object at 0x055422B0>","<openexp._canvas.legacy.Legacy object at 0x055699F0>","<openexp._canvas.legacy.Legacy object at 0x055239F0>","75","SpatProbMultiple3.osexp","C:/Userdata/Michel/SpatProbMultiple3","no","mono","no","18","no","white","no","yes","0.09","98","1050","legacy","45","14","14","1","C:/Userdata/Michel/SpatProbMultiple3/beh/subject-48.csv","legacy","9","192","25","Kafkaesque Koffka","3.2.5","yes","598477b2b83f69022949e7e9","47","red","circular","red","circular","0","\","629","space","12979","12979","(80, 80, 80)","(0, 123, 0)","(177, 0, 0)","(155, 155, 155)","2","legacy","experiment","[7, 0, 1, 2, 3, 4, 5, 6]","\","2500","3000","0","8","252.758751519","1024","2","48000","-16","main","[(0, -252), (178, -178), (252, 0), (178, 178), (0, 252), (-178, 178), (-252, 0), (-178, -178)]","[]","48","even","2","NA","261003","334159","334159","154407","153395","2065","192828","192828","2065","2065","167386","373192","2064","334159","372561","371641","371641","NA","910","study_X","0","12979","1","yes","1680"
"undefined","undefined","NA","NA","NA","12979","12979","black","no","legacy","legacy","legacy","0","red","(177, 0, 0)","shape","present","lowProb6","circular","same","same","same","swap","red","(177, 0, 0)","highProbShape","highProbShape","rectangular","uniform","1","undefined","0","0.0833333333333","1","1","74.390625","1","16","14283","0","0","0","0","0","0","0","0","41","0","1","0.0833333333333","74.390625","16","14283","40","40","40","12/03/18 13:46:44","Default description","yes","<openexp._canvas.legacy.Legacy object at 0x05551CB0>","<openexp._canvas.legacy.Legacy object at 0x05523410>","<openexp._canvas.legacy.Legacy object at 0x05523B90>","<openexp._canvas.legacy.Legacy object at 0x053D8870>","<openexp._canvas.legacy.Legacy object at 0x053C8190>","<openexp._canvas.legacy.Legacy object at 0x055422B0>","<openexp._canvas.legacy.Legacy object at 0x055A2BF0>","<openexp._canvas.legacy.Legacy object at 0x055239F0>","75","SpatProbMultiple3.osexp","C:/Userdata/Michel/SpatProbMultiple3","no","mono","no","18","no","white","no","yes","0.09","98","1050","legacy","45","15","15","1","C:/Userdata/Michel/SpatProbMultiple3/beh/subject-48.csv","legacy","9","192","25","Kafkaesque Koffka","3.2.5","yes","598477b2b83f69022949e7e9","47","red","circular","red","rectangular","0","\","676","space","12979","12979","(80, 80, 80)","(0, 123, 0)","(177, 0, 0)","(155, 155, 155)","2","legacy","experiment","[7, 0, 1, 2, 3, 4, 5, 6]","\","2500","3000","0","8","252.758751519","1024","2","48000","-16","main","[(0, -252), (178, -178), (252, 0), (178, 178), (0, 252), (-178, 178), (-252, 0), (-178, -178)]","[]","48","even","3","NA","261003","334159","334159","154407","153395","2065","192828","192828","2065","2065","167386","375209","2064","334159","374530","373613","373613","NA","910","study_X","0","12979","1","yes","1680"
"undefined","undefined","NA","NA","NA","12979","12979","black","no","legacy","legacy","legacy","0","green","(0, 123, 0)","shape","present","highProb","circular","swap","same","swap","same","green","(0, 123, 0)","lowProb","lowProb3","rectangular","uniform","1","undefined","0","0.0885416666667","1","1","78.2552083333","1","17","15025","0","0","0","0","0","0","0","0","42","0","1","0.0885416666667","78.2552083333","17","15025","41","41","41","12/03/18 13:46:44","Default description","yes","<openexp._canvas.legacy.Legacy object at 0x05551CB0>","<openexp._canvas.legacy.Legacy object at 0x05523410>","<openexp._canvas.legacy.Legacy object at 0x05523B90>","<openexp._canvas.legacy.Legacy object at 0x053D8870>","<openexp._canvas.legacy.Legacy object at 0x053C8190>","<openexp._canvas.legacy.Legacy object at 0x055422B0>","<openexp._canvas.legacy.Legacy object at 0x0555AC50>","<openexp._canvas.legacy.Legacy object at 0x055239F0>","75","SpatProbMultiple3.osexp","C:/Userdata/Michel/SpatProbMultiple3","no","mono","no","18","no","white","no","yes","0.09","98","1050","legacy","315","16","16","1","C:/Userdata/Michel/SpatProbMultiple3/beh/subject-48.csv","legacy","9","192","25","Kafkaesque Koffka","3.2.5","yes","598477b2b83f69022949e7e9","47","green","circular","green","rectangular","0","/","742","space","12979","12979","(80, 80, 80)","(0, 123, 0)","(177, 0, 0)","(155, 155, 155)","2","legacy","experiment","[7, 0, 1, 2, 3, 4, 5, 6]","/","2500","3000","0","8","252.758751519","1024","2","48000","-16","main","[(0, -252), (178, -178), (252, 0), (178, 178), (0, 252), (-178, 178), (-252, 0), (-178, -178)]","[]","48","even","2","NA","261003","334159","334159","154407","153395","2065","192828","192828","2065","2065","167386","377297","2064","334159","376552","375633","375633","NA","910","study_X","0","12979","1","yes","1680"
"undefined","undefined","NA","NA","NA","12979","12979","black","no","legacy","legacy","legacy","0","red","(177, 0, 0)","color","present","highProb","circular","swap","same","same","swap","green","(0, 123, 0)","lowProb","lowProb1","circular","uniform","1","undefined","0","0.09375","1","1","81.7135416667","1","18","15689","0","0","0","0","0","0","0","0","43","0","1","0.09375","81.7135416667","18","15689","42","42","42","12/03/18 13:46:44","Default description","yes","<openexp._canvas.legacy.Legacy object at 0x05551CB0>","<openexp._canvas.legacy.Legacy object at 0x05523410>","<openexp._canvas.legacy.Legacy object at 0x05523B90>","<openexp._canvas.legacy.Legacy object at 0x053D8870>","<openexp._canvas.legacy.Legacy object at 0x053C8190>","<openexp._canvas.legacy.Legacy object at 0x055422B0>","<openexp._canvas.legacy.Legacy object at 0x055691D0>","<openexp._canvas.legacy.Legacy object at 0x055239F0>","75","SpatProbMultiple3.osexp","C:/Userdata/Michel/SpatProbMultiple3","no","mono","no","18","no","white","no","yes","0.09","98","1050","legacy","315","17","17","1","C:/Userdata/Michel/SpatProbMultiple3/beh/subject-48.csv","legacy","9","192","25","Kafkaesque Koffka","3.2.5","yes","598477b2b83f69022949e7e9","47","red","circular","green","circular","0","/","664","space","12979","12979","(80, 80, 80)","(0, 123, 0)","(177, 0, 0)","(155, 155, 155)","2","legacy","experiment","[7, 0, 1, 2, 3, 4, 5, 6]","/","2500","3000","0","8","252.758751519","1024","2","48000","-16","main","[(0, -252), (178, -178), (252, 0), (178, 178), (0, 252), (-178, 178), (-252, 0), (-178, -178)]","[]","48","even","0","NA","261003","334159","334159","154407","153395","2065","192828","192828","2065","2065","167386","379353","2064","334159","378685","377766","377766","NA","910","study_X","0","12979","1","yes","1680"
"undefined","undefined","NA","NA","NA","12979","12979","black","no","legacy","legacy","legacy","0","green","(0, 123, 0)","shape","absent","lowProb6","circular","swap","same","same","same","green","(0, 123, 0)","highProbColor","highProbColor","circular","uniform","1","undefined","0","0.0989583333333","1","1","84.859375","1","19","16293","0","0","0","0","0","0","0","0","44","0","1","0.0989583333333","84.859375","19","16293","43","43","43","12/03/18 13:46:44","Default description","yes","<openexp._canvas.legacy.Legacy object at 0x05551CB0>","<openexp._canvas.legacy.Legacy object at 0x05523410>","<openexp._canvas.legacy.Legacy object at 0x05523B90>","<openexp._canvas.legacy.Legacy object at 0x053D8870>","<openexp._canvas.legacy.Legacy object at 0x053C8190>","<openexp._canvas.legacy.Legacy object at 0x055422B0>","<openexp._canvas.legacy.Legacy object at 0x05551FD0>","<openexp._canvas.legacy.Legacy object at 0x055239F0>","75","SpatProbMultiple3.osexp","C:/Userdata/Michel/SpatProbMultiple3","no","mono","no","18","no","white","no","yes","0.09","98","1050","legacy","45","18","18","1","C:/Userdata/Michel/SpatProbMultiple3/beh/subject-48.csv","legacy","9","192","25","Kafkaesque Koffka","3.2.5","yes","598477b2b83f69022949e7e9","47","green","circular","green","circular","0","\","604","space","12979","12979","(80, 80, 80)","(0, 123, 0)","(177, 0, 0)","(155, 155, 155)","2","legacy","experiment","[7, 0, 1, 2, 3, 4, 5, 6]","\","2500","3000","0","8","252.758751519","1024","2","48000","-16","main","[(0, -252), (178, -178), (252, 0), (178, 178), (0, 252), (-178, 178), (-252, 0), (-178, -178)]","[]","48","even","7","NA","261003","334159","334159","154407","153395","2065","192828","192828","2065","2065","167386","381329","2064","334159","380722","379802","379803","NA","910","study_X","0","12979","1","yes","1680"
"undefined","undefined","NA","NA","NA","12979","12979","black","no","legacy","legacy","legacy","0","green","(0, 123, 0)","color","present","highProb","circular","same","same","swap","same","red","(177, 0, 0)","highProbShape","highProbShape","circular","uniform","1","undefined","0","0.104166666667","1","1","88.09375","1","20","16914","0","0","0","0","0","0","0","0","45","0","1","0.104166666667","88.09375","20","16914","44","44","44","12/03/18 13:46:44","Default description","yes","<openexp._canvas.legacy.Legacy object at 0x05551CB0>","<openexp._canvas.legacy.Legacy object at 0x05523410>","<openexp._canvas.legacy.Legacy object at 0x05523B90>","<openexp._canvas.legacy.Legacy object at 0x053D8870>","<openexp._canvas.legacy.Legacy object at 0x053C8190>","<openexp._canvas.legacy.Legacy object at 0x055422B0>","<openexp._canvas.legacy.Legacy object at 0x0556FBF0>","<openexp._canvas.legacy.Legacy object at 0x055239F0>","75","SpatProbMultiple3.osexp","C:/Userdata/Michel/SpatProbMultiple3","no","mono","no","18","no","white","no","yes","0.09","98","1050","legacy","315","19","19","1","C:/Userdata/Michel/SpatProbMultiple3/beh/subject-48.csv","legacy","9","192","25","Kafkaesque Koffka","3.2.5","yes","598477b2b83f69022949e7e9","47","green","circular","red","circular","0","/","621","space","12979","12979","(80, 80, 80)","(0, 123, 0)","(177, 0, 0)","(155, 155, 155)","2","legacy","experiment","[7, 0, 1, 2, 3, 4, 5, 6]","/","2500","3000","0","8","252.758751519","1024","2","48000","-16","main","[(0, -252), (178, -178), (252, 0), (178, 178), (0, 252), (-178, 178), (-252, 0), (-178, -178)]","[]","48","even","3","NA","261003","334159","334159","154407","153395","2065","192828","192828","2065","2065","167386","383305","2064","334159","382680","381760","381760","NA","910","study_X","0","12979","1","yes","1680"
"undefined","undefined","NA","NA","NA","12979","12979","black","no","legacy","legacy","legacy","0","red","(177, 0, 0)","shape","present","highProb","rectangular","swap","swap","same","same","red","(177, 0, 0)","lowProb","lowProb5","circular","uniform","1","undefined","0","0.109375","1","1","91.8229166667","1","21","17630","0","0","0","0","0","0","0","0","46","0","1","0.109375","91.8229166667","21","17630","45","45","45","12/03/18 13:46:44","Default description","yes","<openexp._canvas.legacy.Legacy object at 0x05551CB0>","<openexp._canvas.legacy.Legacy object at 0x05523410>","<openexp._canvas.legacy.Legacy object at 0x05523B90>","<openexp._canvas.legacy.Legacy object at 0x053D8870>","<openexp._canvas.legacy.Legacy object at 0x053C8190>","<openexp._canvas.legacy.Legacy object at 0x055422B0>","<openexp._canvas.legacy.Legacy object at 0x0557C570>","<openexp._canvas.legacy.Legacy object at 0x055239F0>","75","SpatProbMultiple3.osexp","C:/Userdata/Michel/SpatProbMultiple3","no","mono","no","18","no","white","no","yes","0.09","98","1050","legacy","315","20","20","1","C:/Userdata/Michel/SpatProbMultiple3/beh/subject-48.csv","legacy","9","192","25","Kafkaesque Koffka","3.2.5","yes","598477b2b83f69022949e7e9","47","red","rectangular","red","circular","0","/","716","space","12979","12979","(80, 80, 80)","(0, 123, 0)","(177, 0, 0)","(155, 155, 155)","2","legacy","experiment","[7, 0, 1, 2, 3, 4, 5, 6]","/","2500","3000","0","8","252.758751519","1024","2","48000","-16","main","[(0, -252), (178, -178), (252, 0), (178, 178), (0, 252), (-178, 178), (-252, 0), (-178, -178)]","[]","48","even","5","NA","261003","334159","334159","154407","153395","2065","192828","192828","2065","2065","167386","385376","2064","334159","384657","383737","383737","NA","910","study_X","0","12979","1","yes","1680"
"undefined","undefined","NA","NA","NA","12979","12979","black","no","legacy","legacy","legacy","0","red","(177, 0, 0)","shape","present","lowProb2","circular","same","swap","same","swap","red","(177, 0, 0)","highProbShape","highProbShape","rectangular","uniform","1","undefined","0","0.114583333333","1","1","94.6458333333","1","22","18172","0","0","0","0","0","0","0","0","47","0","1","0.114583333333","94.6458333333","22","18172","46","46","46","12/03/18 13:46:44","Default description","yes","<openexp._canvas.legacy.Legacy object at 0x05551CB0>","<openexp._canvas.legacy.Legacy object at 0x05523410>","<openexp._canvas.legacy.Legacy object at 0x05523B90>","<openexp._canvas.legacy.Legacy object at 0x053D8870>","<openexp._canvas.legacy.Legacy object at 0x053C8190>","<openexp._canvas.legacy.Legacy object at 0x055422B0>","<openexp._canvas.legacy.Legacy object at 0x0555AAD0>","<openexp._canvas.legacy.Legacy object at 0x055239F0>","75","SpatProbMultiple3.osexp","C:/Userdata/Michel/SpatProbMultiple3","no","mono","no","18","no","white","no","yes","0.09","98","1050","legacy","315","21","21","1","C:/Userdata/Michel/SpatProbMultiple3/beh/subject-48.csv","legacy","9","192","25","Kafkaesque Koffka","3.2.5","yes","598477b2b83f69022949e7e9","47","red","circular","red","rectangular","0","/","542","space","12979","12979","(80, 80, 80)","(0, 123, 0)","(177, 0, 0)","(155, 155, 155)","2","legacy","experiment","[7, 0, 1, 2, 3, 4, 5, 6]","/","2500","3000","0","8","252.758751519","1024","2","48000","-16","main","[(0, -252), (178, -178), (252, 0), (178, 178), (0, 252), (-178, 178), (-252, 0), (-178, -178)]","[]","48","even","3","NA","261003","334159","334159","154407","153395","2065","192828","192828","2065","2065","167386","387264","2064","334159","386720","385800","385800","NA","910","study_X","0","12979","1","yes","1680"
"undefined","undefined","NA","NA","NA","12979","12979","black","no","legacy","legacy","legacy","0","green","(0, 123, 0)","shape","absent","lowProb3","circular","swap","same","swap","swap","green","(0, 123, 0)","lowProb","lowProb6","circular","uniform","1","undefined","0","0.119791666667","1","1","98.0677083333","1","23","18829","0","0","0","0","0","0","0","0","48","0","1","0.119791666667","98.0677083333","23","18829","47","47","47","12/03/18 13:46:44","Default description","yes","<openexp._canvas.legacy.Legacy object at 0x05551CB0>","<openexp._canvas.legacy.Legacy object at 0x05523410>","<openexp._canvas.legacy.Legacy object at 0x05523B90>","<openexp._canvas.legacy.Legacy object at 0x053D8870>","<openexp._canvas.legacy.Legacy object at 0x053C8190>","<openexp._canvas.legacy.Legacy object at 0x055422B0>","<openexp._canvas.legacy.Legacy object at 0x055A21B0>","<openexp._canvas.legacy.Legacy object at 0x055239F0>","75","SpatProbMultiple3.osexp","C:/Userdata/Michel/SpatProbMultiple3","no","mono","no","18","no","white","no","yes","0.09","98","1050","legacy","45","22","22","1","C:/Userdata/Michel/SpatProbMultiple3/beh/subject-48.csv","legacy","9","192","25","Kafkaesque Koffka","3.2.5","yes","598477b2b83f69022949e7e9","47","green","circular","green","circular","0","\","657","space","12979","12979","(80, 80, 80)","(0, 123, 0)","(177, 0, 0)","(155, 155, 155)","2","legacy","experiment","[7, 0, 1, 2, 3, 4, 5, 6]","\","2500","3000","0","8","252.758751519","1024","2","48000","-16","main","[(0, -252), (178, -178), (252, 0), (178, 178), (0, 252), (-178, 178), (-252, 0), (-178, -178)]","[]","48","even","6","NA","261003","334159","334159","154407","153395","2065","192828","192828","2065","2065","167386","389272","2064","334159","388612","387692","387692","NA","910","study_X","0","12979","1","yes","1680"
"undefined","undefined","NA","NA","NA","12979","12979","black","no","legacy","legacy","legacy","0","green","(0, 123, 0)","shape","present","highProbOther","circular","same","same","same","swap","green","(0, 123, 0)","lowProb","lowProb1","rectangular","uniform","1","undefined","0","0.125","1","1","104.333333333","1","24","20032","0","0","0","0","0","0","0","0","49","0","1","0.125","104.333333333","24","20032","48","48","48","12/03/18 13:46:44","Default description","yes","<openexp._canvas.legacy.Legacy object at 0x05551CB0>","<openexp._canvas.legacy.Legacy object at 0x05523410>","<openexp._canvas.legacy.Legacy object at 0x05523B90>","<openexp._canvas.legacy.Legacy object at 0x053D8870>","<openexp._canvas.legacy.Legacy object at 0x053C8190>","<openexp._canvas.legacy.Legacy object at 0x055422B0>","<openexp._canvas.legacy.Legacy object at 0x0556FF90>","<openexp._canvas.legacy.Legacy object at 0x055239F0>","75","SpatProbMultiple3.osexp","C:/Userdata/Michel/SpatProbMultiple3","no","mono","no","18","no","white","no","yes","0.09","98","1050","legacy","315","23","23","1","C:/Userdata/Michel/SpatProbMultiple3/beh/subject-48.csv","legacy","9","192","25","Kafkaesque Koffka","3.2.5","yes","598477b2b83f69022949e7e9","47","green","circular","green","rectangular","0","/","1203","space","12979","12979","(80, 80, 80)","(0, 123, 0)","(177, 0, 0)","(155, 155, 155)","2","legacy","experiment","[7, 0, 1, 2, 3, 4, 5, 6]","/","2500","3000","0","8","252.758751519","1024","2","48000","-16","main","[(0, -252), (178, -178), (252, 0), (178, 178), (0, 252), (-178, 178), (-252, 0), (-178, -178)]","[]","48","even","0","NA","261003","334159","334159","154407","153395","2065","192828","192828","2065","2065","167386","391833","2064","334159","390627","389707","389707","NA","910","study_X","0","12979","1","yes","1680"
"undefined","undefined","NA","NA","NA","12979","12979","black","no","legacy","legacy","legacy","0","green","(0, 123, 0)","shape","present","highProb","circular","same","same","same","same","green","(0, 123, 0)","lowProb","lowProb1","rectangular","uniform","1","undefined","0","0.130208333333","1","1","109.692708333","1","25","21061","0","0","0","0","0","0","0","0","50","0","1","0.130208333333","109.692708333","25","21061","49","49","49","12/03/18 13:46:44","Default description","yes","<openexp._canvas.legacy.Legacy object at 0x05551CB0>","<openexp._canvas.legacy.Legacy object at 0x05523410>","<openexp._canvas.legacy.Legacy object at 0x05523B90>","<openexp._canvas.legacy.Legacy object at 0x053D8870>","<openexp._canvas.legacy.Legacy object at 0x053C8190>","<openexp._canvas.legacy.Legacy object at 0x055422B0>","<openexp._canvas.legacy.Legacy object at 0x055A2150>","<openexp._canvas.legacy.Legacy object at 0x055239F0>","75","SpatProbMultiple3.osexp","C:/Userdata/Michel/SpatProbMultiple3","no","mono","no","18","no","white","no","yes","0.09","98","1050","legacy","45","24","24","1","C:/Userdata/Michel/SpatProbMultiple3/beh/subject-48.csv","legacy","9","192","25","Kafkaesque Koffka","3.2.5","yes","598477b2b83f69022949e7e9","47","green","circular","green","rectangular","0","\","1029","space","12979","12979","(80, 80, 80)","(0, 123, 0)","(177, 0, 0)","(155, 155, 155)","2","legacy","experiment","[7, 0, 1, 2, 3, 4, 5, 6]","\","2500","3000","0","8","252.758751519","1024","2","48000","-16","main","[(0, -252), (178, -178), (252, 0), (178, 178), (0, 252), (-178, 178), (-252, 0), (-178, -178)]","[]","48","even","0","NA","261003","334159","334159","154407","153395","2065","192828","192828","2065","2065","167386","394209","2064","334159","393177","392257","392257","NA","910","study_X","0","12979","1","yes","1680"
"undefined","undefined","NA","NA","NA","12979","12979","black","no","legacy","legacy","legacy","0","green","(0, 123, 0)","shape","present","highProb","circular","same","same","same","same","green","(0, 123, 0)","lowProb","lowProb5","rectangular","uniform","1","undefined","0","0.135416666667","1","1","114.744791667","1","26","22031","0","0","0","0","0","0","0","0","51","0","1","0.135416666667","114.744791667","26","22031","50","50","50","12/03/18 13:46:44","Default description","yes","<openexp._canvas.legacy.Legacy object at 0x05551CB0>","<openexp._canvas.legacy.Legacy object at 0x05523410>","<openexp._canvas.legacy.Legacy object at 0x05523B90>","<openexp._canvas.legacy.Legacy object at 0x053D8870>","<openexp._canvas.legacy.Legacy object at 0x053C8190>","<openexp._canvas.legacy.Legacy object at 0x055422B0>","<openexp._canvas.legacy.Legacy object at 0x0557CFF0>","<openexp._canvas.legacy.Legacy object at 0x055239F0>","75","SpatProbMultiple3.osexp","C:/Userdata/Michel/SpatProbMultiple3","no","mono","no","18","no","white","no","yes","0.09","98","1050","legacy","45","25","25","1","C:/Userdata/Michel/SpatProbMultiple3/beh/subject-48.csv","legacy","9","192","25","Kafkaesque Koffka","3.2.5","yes","598477b2b83f69022949e7e9","47","green","circular","green","rectangular","0","\","970","space","12979","12979","(80, 80, 80)","(0, 123, 0)","(177, 0, 0)","(155, 155, 155)","2","legacy","experiment","[7, 0, 1, 2, 3, 4, 5, 6]","\","2500","3000","0","8","252.758751519","1024","2","48000","-16","main","[(0, -252), (178, -178), (252, 0), (178, 178), (0, 252), (-178, 178), (-252, 0), (-178, -178)]","[]","48","even","5","NA","261003","334159","334159","154407","153395","2065","192828","192828","2065","2065","167386","396521","2064","334159","395547","394627","394627","NA","910","study_X","0","12979","1","yes","1680"
"undefined","undefined","NA","NA","NA","12979","12979","black","no","legacy","legacy","legacy","0","red","(177, 0, 0)","shape","present","highProb","rectangular","swap","swap","swap","swap","red","(177, 0, 0)","lowProb","lowProb4","circular","uniform","1","undefined","0","0.140625","1","1","121.661458333","1","27","23359","0","0","0","0","0","0","0","0","52","0","1","0.140625","121.661458333","27","23359","51","51","51","12/03/18 13:46:44","Default description","yes","<openexp._canvas.legacy.Legacy object at 0x05551CB0>","<openexp._canvas.legacy.Legacy object at 0x05523410>","<openexp._canvas.legacy.Legacy object at 0x05523B90>","<openexp._canvas.legacy.Legacy object at 0x053D8870>","<openexp._canvas.legacy.Legacy object at 0x053C8190>","<openexp._canvas.legacy.Legacy object at 0x055422B0>","<openexp._canvas.legacy.Legacy object at 0x05551030>","<openexp._canvas.legacy.Legacy object at 0x055239F0>","75","SpatProbMultiple3.osexp","C:/Userdata/Michel/SpatProbMultiple3","no","mono","no","18","no","white","no","yes","0.09","98","1050","legacy","315","26","26","1","C:/Userdata/Michel/SpatProbMultiple3/beh/subject-48.csv","legacy","9","192","25","Kafkaesque Koffka","3.2.5","yes","598477b2b83f69022949e7e9","47","red","rectangular","red","circular","0","/","1328","space","12979","12979","(80, 80, 80)","(0, 123, 0)","(177, 0, 0)","(155, 155, 155)","2","legacy","experiment","[7, 0, 1, 2, 3, 4, 5, 6]","/","2500","3000","0","8","252.758751519","1024","2","48000","-16","main","[(0, -252), (178, -178), (252, 0), (178, 178), (0, 252), (-178, 178), (-252, 0), (-178, -178)]","[]","48","even","4","NA","261003","334159","334159","154407","153395","2065","192828","192828","2065","2065","167386","399209","2064","334159","397878","396959","396959","NA","910","study_X","0","12979","1","yes","1680"
"undefined","undefined","NA","NA","NA","12979","12979","black","no","legacy","legacy","legacy","0","green","(0, 123, 0)","color","present","highProb","circular","swap","swap","same","same","red","(177, 0, 0)","highProbShape","highProbShape","circular","uniform","1","undefined","0","0.145833333333","1","1","125.197916667","1","28","24038","0","0","0","0","0","0","0","0","53","0","1","0.145833333333","125.197916667","28","24038","52","52","52","12/03/18 13:46:44","Default description","yes","<openexp._canvas.legacy.Legacy object at 0x05551CB0>","<openexp._canvas.legacy.Legacy object at 0x05523410>","<openexp._canvas.legacy.Legacy object at 0x05523B90>","<openexp._canvas.legacy.Legacy object at 0x053D8870>","<openexp._canvas.legacy.Legacy object at 0x053C8190>","<openexp._canvas.legacy.Legacy object at 0x055422B0>","<openexp._canvas.legacy.Legacy object at 0x055A2BF0>","<openexp._canvas.legacy.Legacy object at 0x055239F0>","75","SpatProbMultiple3.osexp","C:/Userdata/Michel/SpatProbMultiple3","no","mono","no","18","no","white","no","yes","0.09","98","1050","legacy","45","27","27","1","C:/Userdata/Michel/SpatProbMultiple3/beh/subject-48.csv","legacy","9","192","25","Kafkaesque Koffka","3.2.5","yes","598477b2b83f69022949e7e9","47","green","circular","red","circular","0","\","679","space","12979","12979","(80, 80, 80)","(0, 123, 0)","(177, 0, 0)","(155, 155, 155)","2","legacy","experiment","[7, 0, 1, 2, 3, 4, 5, 6]","\","2500","3000","0","8","252.758751519","1024","2","48000","-16","main","[(0, -252), (178, -178), (252, 0), (178, 178), (0, 252), (-178, 178), (-252, 0), (-178, -178)]","[]","48","even","3","NA","261003","334159","334159","154407","153395","2065","192828","192828","2065","2065","167386","401224","2064","334159","400543","399627","399627","NA","910","study_X","0","12979","1","yes","1680"
"undefined","undefined","NA","NA","NA","12979","12979","black","no","legacy","legacy","legacy","0","green","(0, 123, 0)","color","present","lowProb6","rectangular","same","swap","same","swap","red","(177, 0, 0)","lowProb","lowProb3","rectangular","uniform","1","undefined","0","0.151041666667","1","1","130.380208333","1","29","25033","0","0","0","0","0","0","0","0","54","0","1","0.151041666667","130.380208333","29","25033","53","53","53","12/03/18 13:46:44","Default description","yes","<openexp._canvas.legacy.Legacy object at 0x05551CB0>","<openexp._canvas.legacy.Legacy object at 0x05523410>","<openexp._canvas.legacy.Legacy object at 0x05523B90>","<openexp._canvas.legacy.Legacy object at 0x053D8870>","<openexp._canvas.legacy.Legacy object at 0x053C8190>","<openexp._canvas.legacy.Legacy object at 0x055422B0>","<openexp._canvas.legacy.Legacy object at 0x05523AD0>","<openexp._canvas.legacy.Legacy object at 0x055239F0>","75","SpatProbMultiple3.osexp","C:/Userdata/Michel/SpatProbMultiple3","no","mono","no","18","no","white","no","yes","0.09","98","1050","legacy","315","28","28","1","C:/Userdata/Michel/SpatProbMultiple3/beh/subject-48.csv","legacy","9","192","25","Kafkaesque Koffka","3.2.5","yes","598477b2b83f69022949e7e9","47","green","rectangular","red","rectangular","0","/","995","space","12979","12979","(80, 80, 80)","(0, 123, 0)","(177, 0, 0)","(155, 155, 155)","2","legacy","experiment","[7, 0, 1, 2, 3, 4, 5, 6]","/","2500","3000","0","8","252.758751519","1024","2","48000","-16","main","[(0, -252), (178, -178), (252, 0), (178, 178), (0, 252), (-178, 178), (-252, 0), (-178, -178)]","[]","48","even","2","NA","261003","334159","334159","154407","153395","2065","192828","192828","2065","2065","167386","403568","2064","334159","402570","401651","401651","NA","910","study_X","0","12979","1","yes","1680"
"undefined","undefined","NA","NA","NA","12979","12979","black","no","legacy","legacy","legacy","0","red","(177, 0, 0)","color","present","highProb","circular","swap","swap","swap","swap","green","(0, 123, 0)","lowProb","lowProb6","circular","uniform","1","undefined","0","0.15625","1","1","134.8125","1","30","25884","0","0","0","0","0","0","0","0","55","0","1","0.15625","134.8125","30","25884","54","54","54","12/03/18 13:46:44","Default description","yes","<openexp._canvas.legacy.Legacy object at 0x05551CB0>","<openexp._canvas.legacy.Legacy object at 0x05523410>","<openexp._canvas.legacy.Legacy object at 0x05523B90>","<openexp._canvas.legacy.Legacy object at 0x053D8870>","<openexp._canvas.legacy.Legacy object at 0x053C8190>","<openexp._canvas.legacy.Legacy object at 0x055422B0>","<openexp._canvas.legacy.Legacy object at 0x0556F770>","<openexp._canvas.legacy.Legacy object at 0x055239F0>","75","SpatProbMultiple3.osexp","C:/Userdata/Michel/SpatProbMultiple3","no","mono","no","18","no","white","no","yes","0.09","98","1050","legacy","45","29","29","1","C:/Userdata/Michel/SpatProbMultiple3/beh/subject-48.csv","legacy","9","192","25","Kafkaesque Koffka","3.2.5","yes","598477b2b83f69022949e7e9","47","red","circular","green","circular","0","\","851","space","12979","12979","(80, 80, 80)","(0, 123, 0)","(177, 0, 0)","(155, 155, 155)","2","legacy","experiment","[7, 0, 1, 2, 3, 4, 5, 6]","\","2500","3000","0","8","252.758751519","1024","2","48000","-16","main","[(0, -252), (178, -178), (252, 0), (178, 178), (0, 252), (-178, 178), (-252, 0), (-178, -178)]","[]","48","even","6","NA","261003","334159","334159","154407","153395","2065","192828","192828","2065","2065","167386","405776","2064","334159","404923","404006","404006","NA","910","study_X","0","12979","1","yes","1680"
"undefined","undefined","NA","NA","NA","12979","12979","black","no","legacy","legacy","legacy","0","red","(177, 0, 0)","color","present","lowProb2","rectangular","same","swap","same","swap","green","(0, 123, 0)","lowProb","lowProb3","rectangular","uniform","1","undefined","0","0.161458333333","1","1","139.15625","1","31","26718","0","0","0","0","0","0","0","0","56","0","1","0.161458333333","139.15625","31","26718","55","55","55","12/03/18 13:46:44","Default description","yes","<openexp._canvas.legacy.Legacy object at 0x05551CB0>","<openexp._canvas.legacy.Legacy object at 0x05523410>","<openexp._canvas.legacy.Legacy object at 0x05523B90>","<openexp._canvas.legacy.Legacy object at 0x053D8870>","<openexp._canvas.legacy.Legacy object at 0x053C8190>","<openexp._canvas.legacy.Legacy object at 0x055422B0>","<openexp._canvas.legacy.Legacy object at 0x0554AB70>","<openexp._canvas.legacy.Legacy object at 0x055239F0>","75","SpatProbMultiple3.osexp","C:/Userdata/Michel/SpatProbMultiple3","no","mono","no","18","no","white","no","yes","0.09","98","1050","legacy","45","30","30","1","C:/Userdata/Michel/SpatProbMultiple3/beh/subject-48.csv","legacy","9","192","25","Kafkaesque Koffka","3.2.5","yes","598477b2b83f69022949e7e9","47","red","rectangular","green","rectangular","0","\","834","space","12979","12979","(80, 80, 80)","(0, 123, 0)","(177, 0, 0)","(155, 155, 155)","2","legacy","experiment","[7, 0, 1, 2, 3, 4, 5, 6]","\","2500","3000","0","8","252.758751519","1024","2","48000","-16","main","[(0, -252), (178, -178), (252, 0), (178, 178), (0, 252), (-178, 178), (-252, 0), (-178, -178)]","[]","48","even","2","NA","261003","334159","334159","154407","153395","2065","192828","192828","2065","2065","167386","407952","2064","334159","407116","406197","406197","NA","910","study_X","0","12979","1","yes","1680"
"undefined","undefined","NA","NA","NA","12979","12979","black","no","legacy","legacy","legacy","0","green","(0, 123, 0)","shape","present","highProbOther","rectangular","swap","same","same","swap","green","(0, 123, 0)","lowProb","lowProb1","circular","uniform","1","undefined","0","0.166666666667","1","1","143.130208333","1","32","27481","0","0","0","0","0","0","0","0","57","0","1","0.166666666667","143.130208333","32","27481","56","56","56","12/03/18 13:46:44","Default description","yes","<openexp._canvas.legacy.Legacy object at 0x05551CB0>","<openexp._canvas.legacy.Legacy object at 0x05523410>","<openexp._canvas.legacy.Legacy object at 0x05523B90>","<openexp._canvas.legacy.Legacy object at 0x053D8870>","<openexp._canvas.legacy.Legacy object at 0x053C8190>","<openexp._canvas.legacy.Legacy object at 0x055422B0>","<openexp._canvas.legacy.Legacy object at 0x0555A570>","<openexp._canvas.legacy.Legacy object at 0x055239F0>","75","SpatProbMultiple3.osexp","C:/Userdata/Michel/SpatProbMultiple3","no","mono","no","18","no","white","no","yes","0.09","98","1050","legacy","45","31","31","1","C:/Userdata/Michel/SpatProbMultiple3/beh/subject-48.csv","legacy","9","192","25","Kafkaesque Koffka","3.2.5","yes","598477b2b83f69022949e7e9","47","green","rectangular","green","circular","0","\","763","space","12979","12979","(80, 80, 80)","(0, 123, 0)","(177, 0, 0)","(155, 155, 155)","2","legacy","experiment","[7, 0, 1, 2, 3, 4, 5, 6]","\","2500","3000","0","8","252.758751519","1024","2","48000","-16","main","[(0, -252), (178, -178), (252, 0), (178, 178), (0, 252), (-178, 178), (-252, 0), (-178, -178)]","[]","48","even","0","NA","261003","334159","334159","154407","153395","2065","192828","192828","2065","2065","167386","410081","2064","334159","409314","408394","408394","NA","910","study_X","0","12979","1","yes","1680"
"undefined","undefined","NA","NA","NA","12979","12979","black","no","legacy","legacy","legacy","0","red","(177, 0, 0)","color","present","highProb","rectangular","swap","same","same","swap","green","(0, 123, 0)","lowProb","lowProb3","rectangular","uniform","1","undefined","0","0.171875","1","1","148.828125","1","33","28575","0","0","0","0","0","0","0","0","58","0","1","0.171875","148.828125","33","28575","57","57","57","12/03/18 13:46:44","Default description","yes","<openexp._canvas.legacy.Legacy object at 0x05551CB0>","<openexp._canvas.legacy.Legacy object at 0x05523410>","<openexp._canvas.legacy.Legacy object at 0x05523B90>","<openexp._canvas.legacy.Legacy object at 0x053D8870>","<openexp._canvas.legacy.Legacy object at 0x053C8190>","<openexp._canvas.legacy.Legacy object at 0x055422B0>","<openexp._canvas.legacy.Legacy object at 0x0557C3F0>","<openexp._canvas.legacy.Legacy object at 0x055239F0>","75","SpatProbMultiple3.osexp","C:/Userdata/Michel/SpatProbMultiple3","no","mono","no","18","no","white","no","yes","0.09","98","1050","legacy","315","32","32","1","C:/Userdata/Michel/SpatProbMultiple3/beh/subject-48.csv","legacy","9","192","25","Kafkaesque Koffka","3.2.5","yes","598477b2b83f69022949e7e9","47","red","rectangular","green","rectangular","0","/","1094","space","12979","12979","(80, 80, 80)","(0, 123, 0)","(177, 0, 0)","(155, 155, 155)","2","legacy","experiment","[7, 0, 1, 2, 3, 4, 5, 6]","/","2500","3000","0","8","252.758751519","1024","2","48000","-16","main","[(0, -252), (178, -178), (252, 0), (178, 178), (0, 252), (-178, 178), (-252, 0), (-178, -178)]","[]","48","even","2","NA","261003","334159","334159","154407","153395","2065","192828","192828","2065","2065","167386","412537","2064","334159","411439","410519","410519","NA","910","study_X","0","12979","1","yes","1680"
"undefined","undefined","NA","NA","NA","12979","12979","black","no","legacy","legacy","legacy","0","green","(0, 123, 0)","shape","present","lowProb4","rectangular","swap","same","same","swap","green","(0, 123, 0)","lowProb","lowProb6","circular","uniform","1","undefined","0","0.177083333333","1","1","156.171875","1","34","29985","0","0","0","0","0","0","0","0","59","0","1","0.177083333333","156.171875","34","29985","58","58","58","12/03/18 13:46:44","Default description","yes","<openexp._canvas.legacy.Legacy object at 0x05551CB0>","<openexp._canvas.legacy.Legacy object at 0x05523410>","<openexp._canvas.legacy.Legacy object at 0x05523B90>","<openexp._canvas.legacy.Legacy object at 0x053D8870>","<openexp._canvas.legacy.Legacy object at 0x053C8190>","<openexp._canvas.legacy.Legacy object at 0x055422B0>","<openexp._canvas.legacy.Legacy object at 0x0555A5F0>","<openexp._canvas.legacy.Legacy object at 0x055239F0>","75","SpatProbMultiple3.osexp","C:/Userdata/Michel/SpatProbMultiple3","no","mono","no","18","no","white","no","yes","0.09","98","1050","legacy","45","33","33","1","C:/Userdata/Michel/SpatProbMultiple3/beh/subject-48.csv","legacy","9","192","25","Kafkaesque Koffka","3.2.5","yes","598477b2b83f69022949e7e9","47","green","rectangular","green","circular","0","\","1410","space","12979","12979","(80, 80, 80)","(0, 123, 0)","(177, 0, 0)","(155, 155, 155)","2","legacy","experiment","[7, 0, 1, 2, 3, 4, 5, 6]","\","2500","3000","0","8","252.758751519","1024","2","48000","-16","main","[(0, -252), (178, -178), (252, 0), (178, 178), (0, 252), (-178, 178), (-252, 0), (-178, -178)]","[]","48","even","6","NA","261003","334159","334159","154407","153395","2065","192828","192828","2065","2065","167386","415296","2064","334159","413884","412964","412965","NA","910","study_X","0","12979","1","yes","1680"
"undefined","undefined","NA","NA","NA","12979","12979","black","no","legacy","legacy","legacy","0","red","(177, 0, 0)","color","present","lowProb6","rectangular","swap","same","same","swap","green","(0, 123, 0)","lowProb","lowProb1","rectangular","uniform","1","undefined","0","0.182291666667","1","1","160.15625","1","35","30750","0","0","0","0","0","0","0","0","60","0","1","0.182291666667","160.15625","35","30750","59","59","59","12/03/18 13:46:44","Default description","yes","<openexp._canvas.legacy.Legacy object at 0x05551CB0>","<openexp._canvas.legacy.Legacy object at 0x05523410>","<openexp._canvas.legacy.Legacy object at 0x05523B90>","<openexp._canvas.legacy.Legacy object at 0x053D8870>","<openexp._canvas.legacy.Legacy object at 0x053C8190>","<openexp._canvas.legacy.Legacy object at 0x055422B0>","<openexp._canvas.legacy.Legacy object at 0x0556F2D0>","<openexp._canvas.legacy.Legacy object at 0x055239F0>","75","SpatProbMultiple3.osexp","C:/Userdata/Michel/SpatProbMultiple3","no","mono","no","18","no","white","no","yes","0.09","98","1050","legacy","45","34","34","1","C:/Userdata/Michel/SpatProbMultiple3/beh/subject-48.csv","legacy","9","192","25","Kafkaesque Koffka","3.2.5","yes","598477b2b83f69022949e7e9","47","red","rectangular","green","rectangular","0","\","765","space","12979","12979","(80, 80, 80)","(0, 123, 0)","(177, 0, 0)","(155, 155, 155)","2","legacy","experiment","[7, 0, 1, 2, 3, 4, 5, 6]","\","2500","3000","0","8","252.758751519","1024","2","48000","-16","main","[(0, -252), (178, -178), (252, 0), (178, 178), (0, 252), (-178, 178), (-252, 0), (-178, -178)]","[]","48","even","0","NA","261003","334159","334159","154407","153395","2065","192828","192828","2065","2065","167386","417408","2064","334159","416640","415720","415720","NA","910","study_X","0","12979","1","yes","1680"
"undefined","undefined","NA","NA","NA","12979","12979","black","no","legacy","legacy","legacy","0","red","(177, 0, 0)","shape","absent","lowProb6","rectangular","same","same","swap","same","red","(177, 0, 0)","lowProb","lowProb6","rectangular","uniform","1","undefined","0","0.1875","1","1","165.520833333","1","36","31780","0","0","0","0","0","0","0","0","61","0","1","0.1875","165.520833333","36","31780","60","60","60","12/03/18 13:46:44","Default description","yes","<openexp._canvas.legacy.Legacy object at 0x05551CB0>","<openexp._canvas.legacy.Legacy object at 0x05523410>","<openexp._canvas.legacy.Legacy object at 0x05523B90>","<openexp._canvas.legacy.Legacy object at 0x053D8870>","<openexp._canvas.legacy.Legacy object at 0x053C8190>","<openexp._canvas.legacy.Legacy object at 0x055422B0>","<openexp._canvas.legacy.Legacy object at 0x055ABD70>","<openexp._canvas.legacy.Legacy object at 0x055239F0>","75","SpatProbMultiple3.osexp","C:/Userdata/Michel/SpatProbMultiple3","no","mono","no","18","no","white","no","yes","0.09","98","1050","legacy","45","35","35","1","C:/Userdata/Michel/SpatProbMultiple3/beh/subject-48.csv","legacy","9","192","25","Kafkaesque Koffka","3.2.5","yes","598477b2b83f69022949e7e9","47","red","rectangular","red","rectangular","0","\","1030","space","12979","12979","(80, 80, 80)","(0, 123, 0)","(177, 0, 0)","(155, 155, 155)","2","legacy","experiment","[7, 0, 1, 2, 3, 4, 5, 6]","\","2500","3000","0","8","252.758751519","1024","2","48000","-16","main","[(0, -252), (178, -178), (252, 0), (178, 178), (0, 252), (-178, 178), (-252, 0), (-178, -178)]","[]","48","even","6","NA","261003","334159","334159","154407","153395","2065","192828","192828","2065","2065","167386","419792","2064","334159","418759","417839","417839","NA","910","study_X","0","12979","1","yes","1680"
"undefined","undefined","NA","NA","NA","12979","12979","black","no","legacy","legacy","legacy","0","green","(0, 123, 0)","color","present","highProb","rectangular","swap","same","same","same","red","(177, 0, 0)","highProbShape","highProbShape","rectangular","uniform","1","undefined","0","0.192708333333","1","1","170.34375","1","37","32706","0","0","0","0","0","0","0","0","62","0","1","0.192708333333","170.34375","37","32706","61","61","61","12/03/18 13:46:44","Default description","yes","<openexp._canvas.legacy.Legacy object at 0x05551CB0>","<openexp._canvas.legacy.Legacy object at 0x05523410>","<openexp._canvas.legacy.Legacy object at 0x05523B90>","<openexp._canvas.legacy.Legacy object at 0x053D8870>","<openexp._canvas.legacy.Legacy object at 0x053C8190>","<openexp._canvas.legacy.Legacy object at 0x055422B0>","<openexp._canvas.legacy.Legacy object at 0x05579A50>","<openexp._canvas.legacy.Legacy object at 0x055239F0>","75","SpatProbMultiple3.osexp","C:/Userdata/Michel/SpatProbMultiple3","no","mono","no","18","no","white","no","yes","0.09","98","1050","legacy","45","36","36","1","C:/Userdata/Michel/SpatProbMultiple3/beh/subject-48.csv","legacy","9","192","25","Kafkaesque Koffka","3.2.5","yes","598477b2b83f69022949e7e9","47","green","rectangular","red","rectangular","0","\","926","space","12979","12979","(80, 80, 80)","(0, 123, 0)","(177, 0, 0)","(155, 155, 155)","2","legacy","experiment","[7, 0, 1, 2, 3, 4, 5, 6]","\","2500","3000","0","8","252.758751519","1024","2","48000","-16","main","[(0, -252), (178, -178), (252, 0), (178, 178), (0, 252), (-178, 178), (-252, 0), (-178, -178)]","[]","48","even","3","NA","261003","334159","334159","154407","153395","2065","192828","192828","2065","2065","167386","422056","2064","334159","421127","420207","420208","NA","910","study_X","0","12979","1","yes","1680"
"undefined","undefined","NA","NA","NA","12979","12979","black","no","legacy","legacy","legacy","0","red","(177, 0, 0)","color","present","lowProb4","circular","swap","swap","swap","swap","green","(0, 123, 0)","highProbColor","highProbColor","circular","uniform","1","undefined","0","0.197916666667","1","1","174.072916667","1","38","33422","0","0","0","0","0","0","0","0","63","0","1","0.197916666667","174.072916667","38","33422","62","62","62","12/03/18 13:46:44","Default description","yes","<openexp._canvas.legacy.Legacy object at 0x05551CB0>","<openexp._canvas.legacy.Legacy object at 0x05523410>","<openexp._canvas.legacy.Legacy object at 0x05523B90>","<openexp._canvas.legacy.Legacy object at 0x053D8870>","<openexp._canvas.legacy.Legacy object at 0x053C8190>","<openexp._canvas.legacy.Legacy object at 0x055422B0>","<openexp._canvas.legacy.Legacy object at 0x05579C90>","<openexp._canvas.legacy.Legacy object at 0x055239F0>","75","SpatProbMultiple3.osexp","C:/Userdata/Michel/SpatProbMultiple3","no","mono","no","18","no","white","no","yes","0.09","98","1050","legacy","315","37","37","1","C:/Userdata/Michel/SpatProbMultiple3/beh/subject-48.csv","legacy","9","192","25","Kafkaesque Koffka","3.2.5","yes","598477b2b83f69022949e7e9","47","red","circular","green","circular","0","/","716","space","12979","12979","(80, 80, 80)","(0, 123, 0)","(177, 0, 0)","(155, 155, 155)","2","legacy","experiment","[7, 0, 1, 2, 3, 4, 5, 6]","/","2500","3000","0","8","252.758751519","1024","2","48000","-16","main","[(0, -252), (178, -178), (252, 0), (178, 178), (0, 252), (-178, 178), (-252, 0), (-178, -178)]","[]","48","even","7","NA","261003","334159","334159","154407","153395","2065","192828","192828","2065","2065","167386","424128","2064","334159","423410","422491","422491","NA","910","study_X","0","12979","1","yes","1680"
"undefined","undefined","NA","NA","NA","12979","12979","black","no","legacy","legacy","legacy","0","red","(177, 0, 0)","color","present","highProb","circular","same","same","same","same","green","(0, 123, 0)","highProbShape","highProbShape","circular","uniform","1","undefined","0","0.203125","1","1","177.140625","1","39","34011","0","0","0","0","0","0","0","0","64","0","1","0.203125","177.140625","39","34011","63","63","63","12/03/18 13:46:44","Default description","yes","<openexp._canvas.legacy.Legacy object at 0x05551CB0>","<openexp._canvas.legacy.Legacy object at 0x05523410>","<openexp._canvas.legacy.Legacy object at 0x05523B90>","<openexp._canvas.legacy.Legacy object at 0x053D8870>","<openexp._canvas.legacy.Legacy object at 0x053C8190>","<openexp._canvas.legacy.Legacy object at 0x055422B0>","<openexp._canvas.legacy.Legacy object at 0x053DD190>","<openexp._canvas.legacy.Legacy object at 0x055239F0>","75","SpatProbMultiple3.osexp","C:/Userdata/Michel/SpatProbMultiple3","no","mono","no","18","no","white","no","yes","0.09","98","1050","legacy","315","38","38","1","C:/Userdata/Michel/SpatProbMultiple3/beh/subject-48.csv","legacy","9","192","25","Kafkaesque Koffka","3.2.5","yes","598477b2b83f69022949e7e9","47","red","circular","green","circular","0","/","589","space","12979","12979","(80, 80, 80)","(0, 123, 0)","(177, 0, 0)","(155, 155, 155)","2","legacy","experiment","[7, 0, 1, 2, 3, 4, 5, 6]","/","2500","3000","0","8","252.758751519","1024","2","48000","-16","main","[(0, -252), (178, -178), (252, 0), (178, 178), (0, 252), (-178, 178), (-252, 0), (-178, -178)]","[]","48","even","3","NA","261003","334159","334159","154407","153395","2065","192828","192828","2065","2065","167386","426072","2064","334159","425479","424559","424559","NA","910","study_X","0","12979","1","yes","1680"
"undefined","undefined","NA","NA","NA","12979","12979","black","no","legacy","legacy","legacy","0","red","(177, 0, 0)","color","present","highProbOther","rectangular","same","swap","same","swap","green","(0, 123, 0)","highProbColor","highProbColor","rectangular","uniform","1","undefined","0","0.208333333333","1","1","181.541666667","1","40","34856","0","0","0","0","0","0","0","0","65","0","1","0.208333333333","181.541666667","40","34856","64","64","64","12/03/18 13:46:44","Default description","yes","<openexp._canvas.legacy.Legacy object at 0x05551CB0>","<openexp._canvas.legacy.Legacy object at 0x05523410>","<openexp._canvas.legacy.Legacy object at 0x05523B90>","<openexp._canvas.legacy.Legacy object at 0x053D8870>","<openexp._canvas.legacy.Legacy object at 0x053C8190>","<openexp._canvas.legacy.Legacy object at 0x055422B0>","<openexp._canvas.legacy.Legacy object at 0x05575E90>","<openexp._canvas.legacy.Legacy object at 0x055239F0>","75","SpatProbMultiple3.osexp","C:/Userdata/Michel/SpatProbMultiple3","no","mono","no","18","no","white","no","yes","0.09","98","1050","legacy","45","39","39","1","C:/Userdata/Michel/SpatProbMultiple3/beh/subject-48.csv","legacy","9","192","25","Kafkaesque Koffka","3.2.5","yes","598477b2b83f69022949e7e9","47","red","rectangular","green","rectangular","0","\","845","space","12979","12979","(80, 80, 80)","(0, 123, 0)","(177, 0, 0)","(155, 155, 155)","2","legacy","experiment","[7, 0, 1, 2, 3, 4, 5, 6]","\","2500","3000","0","8","252.758751519","1024","2","48000","-16","main","[(0, -252), (178, -178), (252, 0), (178, 178), (0, 252), (-178, 178), (-252, 0), (-178, -178)]","[]","48","even","7","NA","261003","334159","334159","154407","153395","2065","192828","192828","2065","2065","167386","428265","2064","334159","427417","426498","426498","NA","910","study_X","0","12979","1","yes","1680"
"undefined","undefined","NA","NA","NA","12979","12979","black","no","legacy","legacy","legacy","0","green","(0, 123, 0)","shape","present","highProb","circular","swap","swap","same","same","green","(0, 123, 0)","lowProb","lowProb3","rectangular","uniform","1","undefined","0","0.213541666667","1","1","186.296875","1","41","35769","0","0","0","0","0","0","0","0","66","0","1","0.213541666667","186.296875","41","35769","65","65","65","12/03/18 13:46:44","Default description","yes","<openexp._canvas.legacy.Legacy object at 0x05551CB0>","<openexp._canvas.legacy.Legacy object at 0x05523410>","<openexp._canvas.legacy.Legacy object at 0x05523B90>","<openexp._canvas.legacy.Legacy object at 0x053D8870>","<openexp._canvas.legacy.Legacy object at 0x053C8190>","<openexp._canvas.legacy.Legacy object at 0x055422B0>","<openexp._canvas.legacy.Legacy object at 0x0557CA50>","<openexp._canvas.legacy.Legacy object at 0x055239F0>","75","SpatProbMultiple3.osexp","C:/Userdata/Michel/SpatProbMultiple3","no","mono","no","18","no","white","no","yes","0.09","98","1050","legacy","45","40","40","1","C:/Userdata/Michel/SpatProbMultiple3/beh/subject-48.csv","legacy","9","192","25","Kafkaesque Koffka","3.2.5","yes","598477b2b83f69022949e7e9","47","green","circular","green","rectangular","0","\","913","space","12979","12979","(80, 80, 80)","(0, 123, 0)","(177, 0, 0)","(155, 155, 155)","2","legacy","experiment","[7, 0, 1, 2, 3, 4, 5, 6]","\","2500","3000","0","8","252.758751519","1024","2","48000","-16","main","[(0, -252), (178, -178), (252, 0), (178, 178), (0, 252), (-178, 178), (-252, 0), (-178, -178)]","[]","48","even","2","NA","261003","334159","334159","154407","153395","2065","192828","192828","2065","2065","167386","430537","2064","334159","429621","428701","428701","NA","910","study_X","0","12979","1","yes","1680"
"undefined","undefined","NA","NA","NA","12979","12979","black","no","legacy","legacy","legacy","0","red","(177, 0, 0)","shape","present","highProb","rectangular","swap","swap","swap","swap","red","(177, 0, 0)","lowProb","lowProb6","circular","uniform","1","undefined","0","0.21875","1","1","190.223958333","1","42","36523","0","0","0","0","0","0","0","0","67","0","1","0.21875","190.223958333","42","36523","66","66","66","12/03/18 13:46:44","Default description","yes","<openexp._canvas.legacy.Legacy object at 0x05551CB0>","<openexp._canvas.legacy.Legacy object at 0x05523410>","<openexp._canvas.legacy.Legacy object at 0x05523B90>","<openexp._canvas.legacy.Legacy object at 0x053D8870>","<openexp._canvas.legacy.Legacy object at 0x053C8190>","<openexp._canvas.legacy.Legacy object at 0x055422B0>","<openexp._canvas.legacy.Legacy object at 0x0556F930>","<openexp._canvas.legacy.Legacy object at 0x055239F0>","75","SpatProbMultiple3.osexp","C:/Userdata/Michel/SpatProbMultiple3","no","mono","no","18","no","white","no","yes","0.09","98","1050","legacy","315","41","41","1","C:/Userdata/Michel/SpatProbMultiple3/beh/subject-48.csv","legacy","9","192","25","Kafkaesque Koffka","3.2.5","yes","598477b2b83f69022949e7e9","47","red","rectangular","red","circular","0","/","754","space","12979","12979","(80, 80, 80)","(0, 123, 0)","(177, 0, 0)","(155, 155, 155)","2","legacy","experiment","[7, 0, 1, 2, 3, 4, 5, 6]","/","2500","3000","0","8","252.758751519","1024","2","48000","-16","main","[(0, -252), (178, -178), (252, 0), (178, 178), (0, 252), (-178, 178), (-252, 0), (-178, -178)]","[]","48","even","6","NA","261003","334159","334159","154407","153395","2065","192828","192828","2065","2065","167386","432640","2064","334159","431884","430965","430965","NA","910","study_X","0","12979","1","yes","1680"
"undefined","undefined","NA","NA","NA","12979","12979","black","no","legacy","legacy","legacy","0","red","(177, 0, 0)","shape","present","highProb","circular","same","swap","same","swap","red","(177, 0, 0)","highProbColor","highProbColor","rectangular","uniform","1","undefined","0","0.223958333333","1","1","195.958333333","1","43","37624","0","0","0","0","0","0","0","0","68","0","1","0.223958333333","195.958333333","43","37624","67","67","67","12/03/18 13:46:44","Default description","yes","<openexp._canvas.legacy.Legacy object at 0x05551CB0>","<openexp._canvas.legacy.Legacy object at 0x05523410>","<openexp._canvas.legacy.Legacy object at 0x05523B90>","<openexp._canvas.legacy.Legacy object at 0x053D8870>","<openexp._canvas.legacy.Legacy object at 0x053C8190>","<openexp._canvas.legacy.Legacy object at 0x055422B0>","<openexp._canvas.legacy.Legacy object at 0x05523610>","<openexp._canvas.legacy.Legacy object at 0x055239F0>","75","SpatProbMultiple3.osexp","C:/Userdata/Michel/SpatProbMultiple3","no","mono","no","18","no","white","no","yes","0.09","98","1050","legacy","45","42","42","1","C:/Userdata/Michel/SpatProbMultiple3/beh/subject-48.csv","legacy","9","192","25","Kafkaesque Koffka","3.2.5","yes","598477b2b83f69022949e7e9","47","red","circular","red","rectangular","0","\","1101","space","12979","12979","(80, 80, 80)","(0, 123, 0)","(177, 0, 0)","(155, 155, 155)","2","legacy","experiment","[7, 0, 1, 2, 3, 4, 5, 6]","\","2500","3000","0","8","252.758751519","1024","2","48000","-16","main","[(0, -252), (178, -178), (252, 0), (178, 178), (0, 252), (-178, 178), (-252, 0), (-178, -178)]","[]","48","even","7","NA","261003","334159","334159","154407","153395","2065","192828","192828","2065","2065","167386","435104","2064","334159","434000","433080","433080","NA","910","study_X","0","12979","1","yes","1680"
"undefined","undefined","NA","NA","NA","12979","12979","black","no","legacy","legacy","legacy","0","red","(177, 0, 0)","color","present","lowProb5","circular","same","same","swap","swap","green","(0, 123, 0)","lowProb","lowProb2","circular","uniform","1","undefined","0","0.229166666667","1","1","200.151041667","1","44","38429","0","0","0","0","0","0","0","0","69","0","1","0.229166666667","200.151041667","44","38429","68","68","68","12/03/18 13:46:44","Default description","yes","<openexp._canvas.legacy.Legacy object at 0x05551CB0>","<openexp._canvas.legacy.Legacy object at 0x05523410>","<openexp._canvas.legacy.Legacy object at 0x05523B90>","<openexp._canvas.legacy.Legacy object at 0x053D8870>","<openexp._canvas.legacy.Legacy object at 0x053C8190>","<openexp._canvas.legacy.Legacy object at 0x055422B0>","<openexp._canvas.legacy.Legacy object at 0x053DD210>","<openexp._canvas.legacy.Legacy object at 0x055239F0>","75","SpatProbMultiple3.osexp","C:/Userdata/Michel/SpatProbMultiple3","no","mono","no","18","no","white","no","yes","0.09","98","1050","legacy","315","43","43","1","C:/Userdata/Michel/SpatProbMultiple3/beh/subject-48.csv","legacy","9","192","25","Kafkaesque Koffka","3.2.5","yes","598477b2b83f69022949e7e9","47","red","circular","green","circular","0","/","805","space","12979","12979","(80, 80, 80)","(0, 123, 0)","(177, 0, 0)","(155, 155, 155)","2","legacy","experiment","[7, 0, 1, 2, 3, 4, 5, 6]","/","2500","3000","0","8","252.758751519","1024","2","48000","-16","main","[(0, -252), (178, -178), (252, 0), (178, 178), (0, 252), (-178, 178), (-252, 0), (-178, -178)]","[]","48","even","1","NA","261003","334159","334159","154407","153395","2065","192828","192828","2065","2065","167386","437256","2064","334159","436448","435528","435528","NA","910","study_X","0","12979","1","yes","1680"
"undefined","undefined","NA","NA","NA","12979","12979","black","no","legacy","legacy","legacy","0","red","(177, 0, 0)","shape","present","highProb","circular","same","same","swap","swap","red","(177, 0, 0)","lowProb","lowProb5","rectangular","uniform","1","undefined","0","0.234375","1","1","204.869791667","1","45","39335","0","0","0","0","0","0","0","0","70","0","1","0.234375","204.869791667","45","39335","69","69","69","12/03/18 13:46:44","Default description","yes","<openexp._canvas.legacy.Legacy object at 0x05551CB0>","<openexp._canvas.legacy.Legacy object at 0x05523410>","<openexp._canvas.legacy.Legacy object at 0x05523B90>","<openexp._canvas.legacy.Legacy object at 0x053D8870>","<openexp._canvas.legacy.Legacy object at 0x053C8190>","<openexp._canvas.legacy.Legacy object at 0x055422B0>","<openexp._canvas.legacy.Legacy object at 0x055ABC70>","<openexp._canvas.legacy.Legacy object at 0x055239F0>","75","SpatProbMultiple3.osexp","C:/Userdata/Michel/SpatProbMultiple3","no","mono","no","18","no","white","no","yes","0.09","98","1050","legacy","315","44","44","1","C:/Userdata/Michel/SpatProbMultiple3/beh/subject-48.csv","legacy","9","192","25","Kafkaesque Koffka","3.2.5","yes","598477b2b83f69022949e7e9","47","red","circular","red","rectangular","0","/","906","space","12979","12979","(80, 80, 80)","(0, 123, 0)","(177, 0, 0)","(155, 155, 155)","2","legacy","experiment","[7, 0, 1, 2, 3, 4, 5, 6]","/","2500","3000","0","8","252.758751519","1024","2","48000","-16","main","[(0, -252), (178, -178), (252, 0), (178, 178), (0, 252), (-178, 178), (-252, 0), (-178, -178)]","[]","48","even","5","NA","261003","334159","334159","154407","153395","2065","192828","192828","2065","2065","167386","439536","2064","334159","438627","437707","437707","NA","910","study_X","0","12979","1","yes","1680"
"undefined","undefined","NA","NA","NA","12979","12979","black","no","legacy","legacy","legacy","0","red","(177, 0, 0)","shape","present","highProb","rectangular","same","swap","same","swap","red","(177, 0, 0)","lowProb","lowProb5","circular","uniform","1","undefined","0","0.239583333333","1","1","208.125","1","46","39960","0","0","0","0","0","0","0","0","71","0","1","0.239583333333","208.125","46","39960","70","70","70","12/03/18 13:46:44","Default description","yes","<openexp._canvas.legacy.Legacy object at 0x05551CB0>","<openexp._canvas.legacy.Legacy object at 0x05523410>","<openexp._canvas.legacy.Legacy object at 0x05523B90>","<openexp._canvas.legacy.Legacy object at 0x053D8870>","<openexp._canvas.legacy.Legacy object at 0x053C8190>","<openexp._canvas.legacy.Legacy object at 0x055422B0>","<openexp._canvas.legacy.Legacy object at 0x055ABA30>","<openexp._canvas.legacy.Legacy object at 0x055239F0>","75","SpatProbMultiple3.osexp","C:/Userdata/Michel/SpatProbMultiple3","no","mono","no","18","no","white","no","yes","0.09","98","1050","legacy","315","45","45","1","C:/Userdata/Michel/SpatProbMultiple3/beh/subject-48.csv","legacy","9","192","25","Kafkaesque Koffka","3.2.5","yes","598477b2b83f69022949e7e9","47","red","rectangular","red","circular","0","/","625","space","12979","12979","(80, 80, 80)","(0, 123, 0)","(177, 0, 0)","(155, 155, 155)","2","legacy","experiment","[7, 0, 1, 2, 3, 4, 5, 6]","/","2500","3000","0","8","252.758751519","1024","2","48000","-16","main","[(0, -252), (178, -178), (252, 0), (178, 178), (0, 252), (-178, 178), (-252, 0), (-178, -178)]","[]","48","even","5","NA","261003","334159","334159","154407","153395","2065","192828","192828","2065","2065","167386","441504","2064","334159","440875","439955","439955","NA","910","study_X","0","12979","1","yes","1680"
"undefined","undefined","NA","NA","NA","12979","12979","black","no","legacy","legacy","legacy","0","green","(0, 123, 0)","color","present","highProb","circular","swap","swap","same","same","red","(177, 0, 0)","lowProb","lowProb3","circular","uniform","1","undefined","0","0.244791666667","1","1","212.614583333","1","47","40822","0","0","0","0","0","0","0","0","72","0","1","0.244791666667","212.614583333","47","40822","71","71","71","12/03/18 13:46:44","Default description","yes","<openexp._canvas.legacy.Legacy object at 0x05551CB0>","<openexp._canvas.legacy.Legacy object at 0x05523410>","<openexp._canvas.legacy.Legacy object at 0x05523B90>","<openexp._canvas.legacy.Legacy object at 0x053D8870>","<openexp._canvas.legacy.Legacy object at 0x053C8190>","<openexp._canvas.legacy.Legacy object at 0x055422B0>","<openexp._canvas.legacy.Legacy object at 0x05569D90>","<openexp._canvas.legacy.Legacy object at 0x055239F0>","75","SpatProbMultiple3.osexp","C:/Userdata/Michel/SpatProbMultiple3","no","mono","no","18","no","white","no","yes","0.09","98","1050","legacy","45","46","46","1","C:/Userdata/Michel/SpatProbMultiple3/beh/subject-48.csv","legacy","9","192","25","Kafkaesque Koffka","3.2.5","yes","598477b2b83f69022949e7e9","47","green","circular","red","circular","0","\","862","space","12979","12979","(80, 80, 80)","(0, 123, 0)","(177, 0, 0)","(155, 155, 155)","2","legacy","experiment","[7, 0, 1, 2, 3, 4, 5, 6]","\","2500","3000","0","8","252.758751519","1024","2","48000","-16","main","[(0, -252), (178, -178), (252, 0), (178, 178), (0, 252), (-178, 178), (-252, 0), (-178, -178)]","[]","48","even","2","NA","261003","334159","334159","154407","153395","2065","192828","192828","2065","2065","167386","443720","2064","334159","442854","441935","441935","NA","910","study_X","0","12979","1","yes","1680"
"undefined","undefined","NA","NA","NA","12979","12979","black","no","legacy","legacy","legacy","0","red","(177, 0, 0)","color","present","highProb","rectangular","swap","swap","swap","swap","green","(0, 123, 0)","lowProb","lowProb2","rectangular","uniform","1","undefined","0","0.25","1","1","218.734375","1","48","41997","0","0","0","0","0","0","0","0","73","0","1","0.25","218.734375","48","41997","72","72","72","12/03/18 13:46:44","Default description","yes","<openexp._canvas.legacy.Legacy object at 0x05551CB0>","<openexp._canvas.legacy.Legacy object at 0x05523410>","<openexp._canvas.legacy.Legacy object at 0x05523B90>","<openexp._canvas.legacy.Legacy object at 0x053D8870>","<openexp._canvas.legacy.Legacy object at 0x053C8190>","<openexp._canvas.legacy.Legacy object at 0x055422B0>","<openexp._canvas.legacy.Legacy object at 0x055234D0>","<openexp._canvas.legacy.Legacy object at 0x055239F0>","75","SpatProbMultiple3.osexp","C:/Userdata/Michel/SpatProbMultiple3","no","mono","no","18","no","white","no","yes","0.09","98","1050","legacy","45","47","47","1","C:/Userdata/Michel/SpatProbMultiple3/beh/subject-48.csv","legacy","9","192","25","Kafkaesque Koffka","3.2.5","yes","598477b2b83f69022949e7e9","47","red","rectangular","green","rectangular","0","\","1175","space","12979","12979","(80, 80, 80)","(0, 123, 0)","(177, 0, 0)","(155, 155, 155)","2","legacy","experiment","[7, 0, 1, 2, 3, 4, 5, 6]","\","2500","3000","0","8","252.758751519","1024","2","48000","-16","main","[(0, -252), (178, -178), (252, 0), (178, 178), (0, 252), (-178, 178), (-252, 0), (-178, -178)]","[]","48","even","1","NA","261003","334159","334159","154407","153395","2065","192828","192828","2065","2065","167386","446233","2064","334159","445055","444135","444135","NA","910","study_X","0","12979","1","yes","1680"
"undefined","undefined","NA","NA","NA","12979","12979","black","no","legacy","legacy","legacy","0","red","(177, 0, 0)","shape","present","lowProb5","circular","same","swap","swap","same","red","(177, 0, 0)","lowProb","lowProb3","rectangular","uniform","1","undefined","0","0.255208333333","1","1","230.083333333","1","49","44176","0","0","0","0","0","0","0","0","74","0","1","0.255208333333","230.083333333","49","44176","73","73","73","12/03/18 13:46:44","Default description","yes","<openexp._canvas.legacy.Legacy object at 0x05551CB0>","<openexp._canvas.legacy.Legacy object at 0x05523410>","<openexp._canvas.legacy.Legacy object at 0x05523B90>","<openexp._canvas.legacy.Legacy object at 0x053D8870>","<openexp._canvas.legacy.Legacy object at 0x053C8190>","<openexp._canvas.legacy.Legacy object at 0x055422B0>","<openexp._canvas.legacy.Legacy object at 0x055ABCD0>","<openexp._canvas.legacy.Legacy object at 0x055239F0>","75","SpatProbMultiple3.osexp","C:/Userdata/Michel/SpatProbMultiple3","no","mono","no","18","no","white","no","yes","0.09","98","1050","legacy","45","48","48","1","C:/Userdata/Michel/SpatProbMultiple3/beh/subject-48.csv","legacy","9","192","25","Kafkaesque Koffka","3.2.5","yes","598477b2b83f69022949e7e9","47","red","circular","red","rectangular","0","\","2179","space","12979","12979","(80, 80, 80)","(0, 123, 0)","(177, 0, 0)","(155, 155, 155)","2","legacy","experiment","[7, 0, 1, 2, 3, 4, 5, 6]","\","2500","3000","0","8","252.758751519","1024","2","48000","-16","main","[(0, -252), (178, -178), (252, 0), (178, 178), (0, 252), (-178, 178), (-252, 0), (-178, -178)]","[]","48","even","2","NA","261003","334159","334159","154407","153395","2065","192828","192828","2065","2065","167386","449760","2064","334159","447579","446661","446661","NA","910","study_X","0","12979","1","yes","1680"
"undefined","undefined","NA","NA","NA","12979","12979","black","no","legacy","legacy","legacy","0","red","(177, 0, 0)","shape","present","highProb","rectangular","same","swap","same","swap","red","(177, 0, 0)","lowProb","lowProb3","circular","uniform","1","undefined","0","0.260416666667","1","1","234.994791667","1","50","45119","0","0","0","0","0","0","0","0","75","0","1","0.260416666667","234.994791667","50","45119","74","74","74","12/03/18 13:46:44","Default description","yes","<openexp._canvas.legacy.Legacy object at 0x05551CB0>","<openexp._canvas.legacy.Legacy object at 0x05523410>","<openexp._canvas.legacy.Legacy object at 0x05523B90>","<openexp._canvas.legacy.Legacy object at 0x053D8870>","<openexp._canvas.legacy.Legacy object at 0x053C8190>","<openexp._canvas.legacy.Legacy object at 0x055422B0>","<openexp._canvas.legacy.Legacy object at 0x055691B0>","<openexp._canvas.legacy.Legacy object at 0x055239F0>","75","SpatProbMultiple3.osexp","C:/Userdata/Michel/SpatProbMultiple3","no","mono","no","18","no","white","no","yes","0.09","98","1050","legacy","315","49","49","1","C:/Userdata/Michel/SpatProbMultiple3/beh/subject-48.csv","legacy","9","192","25","Kafkaesque Koffka","3.2.5","yes","598477b2b83f69022949e7e9","47","red","rectangular","red","circular","0","/","943","space","12979","12979","(80, 80, 80)","(0, 123, 0)","(177, 0, 0)","(155, 155, 155)","2","legacy","experiment","[7, 0, 1, 2, 3, 4, 5, 6]","/","2500","3000","0","8","252.758751519","1024","2","48000","-16","main","[(0, -252), (178, -178), (252, 0), (178, 178), (0, 252), (-178, 178), (-252, 0), (-178, -178)]","[]","48","even","2","NA","261003","334159","334159","154407","153395","2065","192828","192828","2065","2065","167386","452048","2064","334159","451102","450183","450183","NA","910","study_X","0","12979","1","yes","1680"
"undefined","undefined","NA","NA","NA","12979","12979","black","no","legacy","legacy","legacy","0","green","(0, 123, 0)","shape","present","highProb","circular","swap","swap","swap","swap","green","(0, 123, 0)","lowProb","lowProb2","rectangular","uniform","1","undefined","0","0.265625","1","1","240.947916667","1","51","46262","0","0","0","0","0","0","0","0","76","0","1","0.265625","240.947916667","51","46262","75","75","75","12/03/18 13:46:44","Default description","yes","<openexp._canvas.legacy.Legacy object at 0x05551CB0>","<openexp._canvas.legacy.Legacy object at 0x05523410>","<openexp._canvas.legacy.Legacy object at 0x05523B90>","<openexp._canvas.legacy.Legacy object at 0x053D8870>","<openexp._canvas.legacy.Legacy object at 0x053C8190>","<openexp._canvas.legacy.Legacy object at 0x055422B0>","<openexp._canvas.legacy.Legacy object at 0x053CC870>","<openexp._canvas.legacy.Legacy object at 0x055239F0>","75","SpatProbMultiple3.osexp","C:/Userdata/Michel/SpatProbMultiple3","no","mono","no","18","no","white","no","yes","0.09","98","1050","legacy","45","50","50","1","C:/Userdata/Michel/SpatProbMultiple3/beh/subject-48.csv","legacy","9","192","25","Kafkaesque Koffka","3.2.5","yes","598477b2b83f69022949e7e9","47","green","circular","green","rectangular","0","\","1143","space","12979","12979","(80, 80, 80)","(0, 123, 0)","(177, 0, 0)","(155, 155, 155)","2","legacy","experiment","[7, 0, 1, 2, 3, 4, 5, 6]","\","2500","3000","0","8","252.758751519","1024","2","48000","-16","main","[(0, -252), (178, -178), (252, 0), (178, 178), (0, 252), (-178, 178), (-252, 0), (-178, -178)]","[]","48","even","1","NA","261003","334159","334159","154407","153395","2065","192828","192828","2065","2065","167386","454544","2064","334159","453399","452482","452482","NA","910","study_X","0","12979","1","yes","1680"
"undefined","undefined","NA","NA","NA","12979","12979","black","no","legacy","legacy","legacy","0","green","(0, 123, 0)","color","present","highProb","circular","same","same","swap","swap","red","(177, 0, 0)","lowProb","lowProb4","circular","uniform","1","undefined","0","0.270833333333","1","1","247.708333333","1","52","47560","0","0","0","0","0","0","0","0","77","0","1","0.270833333333","247.708333333","52","47560","76","76","76","12/03/18 13:46:44","Default description","yes","<openexp._canvas.legacy.Legacy object at 0x05551CB0>","<openexp._canvas.legacy.Legacy object at 0x05523410>","<openexp._canvas.legacy.Legacy object at 0x05523B90>","<openexp._canvas.legacy.Legacy object at 0x053D8870>","<openexp._canvas.legacy.Legacy object at 0x053C8190>","<openexp._canvas.legacy.Legacy object at 0x055422B0>","<openexp._canvas.legacy.Legacy object at 0x0556F330>","<openexp._canvas.legacy.Legacy object at 0x055239F0>","75","SpatProbMultiple3.osexp","C:/Userdata/Michel/SpatProbMultiple3","no","mono","no","18","no","white","no","yes","0.09","98","1050","legacy","315","51","51","1","C:/Userdata/Michel/SpatProbMultiple3/beh/subject-48.csv","legacy","9","192","25","Kafkaesque Koffka","3.2.5","yes","598477b2b83f69022949e7e9","47","green","circular","red","circular","0","/","1298","space","12979","12979","(80, 80, 80)","(0, 123, 0)","(177, 0, 0)","(155, 155, 155)","2","legacy","experiment","[7, 0, 1, 2, 3, 4, 5, 6]","/","2500","3000","0","8","252.758751519","1024","2","48000","-16","main","[(0, -252), (178, -178), (252, 0), (178, 178), (0, 252), (-178, 178), (-252, 0), (-178, -178)]","[]","48","even","4","NA","261003","334159","334159","154407","153395","2065","192828","192828","2065","2065","167386","457208","2064","334159","455906","454987","454987","NA","910","study_X","0","12979","1","yes","1680"
"undefined","undefined","NA","NA","NA","12979","12979","black","no","legacy","legacy","legacy","0","red","(177, 0, 0)","shape","present","highProb","circular","swap","same","same","swap","red","(177, 0, 0)","lowProb","lowProb6","rectangular","uniform","1","undefined","0","0.276041666667","1","1","252.270833333","1","53","48436","0","0","0","0","0","0","0","0","78","0","1","0.276041666667","252.270833333","53","48436","77","77","77","12/03/18 13:46:44","Default description","yes","<openexp._canvas.legacy.Legacy object at 0x05551CB0>","<openexp._canvas.legacy.Legacy object at 0x05523410>","<openexp._canvas.legacy.Legacy object at 0x05523B90>","<openexp._canvas.legacy.Legacy object at 0x053D8870>","<openexp._canvas.legacy.Legacy object at 0x053C8190>","<openexp._canvas.legacy.Legacy object at 0x055422B0>","<openexp._canvas.legacy.Legacy object at 0x055ABB10>","<openexp._canvas.legacy.Legacy object at 0x055239F0>","75","SpatProbMultiple3.osexp","C:/Userdata/Michel/SpatProbMultiple3","no","mono","no","18","no","white","no","yes","0.09","98","1050","legacy","315","52","52","1","C:/Userdata/Michel/SpatProbMultiple3/beh/subject-48.csv","legacy","9","192","25","Kafkaesque Koffka","3.2.5","yes","598477b2b83f69022949e7e9","47","red","circular","red","rectangular","0","/","876","space","12979","12979","(80, 80, 80)","(0, 123, 0)","(177, 0, 0)","(155, 155, 155)","2","legacy","experiment","[7, 0, 1, 2, 3, 4, 5, 6]","/","2500","3000","0","8","252.758751519","1024","2","48000","-16","main","[(0, -252), (178, -178), (252, 0), (178, 178), (0, 252), (-178, 178), (-252, 0), (-178, -178)]","[]","48","even","6","NA","261003","334159","334159","154407","153395","2065","192828","192828","2065","2065","167386","459432","2064","334159","458552","457633","457633","NA","910","study_X","0","12979","1","yes","1680"
