"acc","accuracy","average_response_time","avg_rt","background","bidi","canvas_backend","clock_backend","color_backend","compensation","cond_disColor","cond_disColorRGB","cond_disFeature","cond_disPresent","cond_disProbability","cond_disShape","cond_primingDisColor","cond_primingDisShape","cond_primingTarColor","cond_primingTarShape","cond_tarColor","cond_tarColorRGB","cond_tarLocation","cond_tarLocationLong","cond_tarShape","coordinates","correct","correct_continuePress","count_blockAcc","count_blockFeed","count_blockLoop","count_blockRT","count_blockSeq","count_blockSumCorrect","count_blockSumRT","count_continuePress","count_example","count_expSettings","count_exp_mainLoop","count_experiment","count_instructions","count_instructions1","count_instructions2","count_log","count_main","count_prepCanvas","count_totalAcc","count_totalRT","count_totalSumCorrect","count_totalSumRT","count_trialResp","count_trialSeq","count_trialTask","datetime","description","disable_garbage_collection","dispBlank","dispBlockStart","dispFeedBlock","dispFix","dispInstructions","dispSearch","dispStartScreen","distance2screen","experiment_file","experiment_path","font_bold","font_family","font_italic","font_size","font_underline","foreground","form_clicks","fullscreen","gaborFreq","gaborSize","height","keyboard_backend","lineOriTar","live_row","live_row_blockLoop","live_row_exp_mainLoop","logfile","mouse_backend","noExpBlocks","noExpTrials","noPracTrials","opensesame_codename","opensesame_version","osf_always_upload_experiment","osf_id","physical_screensize","previousDisColor","previousDisShape","previousTarColor","previousTarShape","repeat_cycle","response","responseTime","response_continuePress","response_time","response_time_continuePress","rgb_gray","rgb_green","rgb_red","rgb_white","round_decimals","sampler_backend","set_blockType","set_counterPositions","set_respCorrect","set_respTimeoutExp","set_respTimeoutPrac","set_rotation","set_setSize","sizeImaginary","sound_buf_size","sound_channels","sound_freq","sound_sample_size","start","stimPositions","stimuli","subject_nr","subject_parity","tarIdx","time_blockFeed","time_blockLoop","time_blockSeq","time_continuePress","time_example","time_expSettings","time_exp_mainLoop","time_experiment","time_instructions","time_instructions1","time_instructions2","time_log","time_main","time_prepCanvas","time_trialResp","time_trialSeq","time_trialTask","timing_EEGwait","timing_fix","title","total_correct","total_response_time","total_responses","uniform_coordinates","width"
"undefined","undefined","13652","13652","black","no","legacy","legacy","legacy","0","green","(0, 122, 0)","shape","absent","lowProb5","circular","same","swap","same","swap","green","(0, 122, 0)","highProbColor","highProbColor","circular","uniform","1","undefined","0.00520833333333","1","1","3.94270833333","1","1","757","0","0","0","0","0","0","0","0","25","0","1","0.00520833333333","3.94270833333","1","757","25","25","25","08/10/17 15:22:00","Default description","yes","<openexp._canvas.legacy.legacy object at 0x047C27F0>","<openexp._canvas.legacy.legacy object at 0x047CE7B0>","<openexp._canvas.legacy.legacy object at 0x047BA510>","<openexp._canvas.legacy.legacy object at 0x048B09D0>","<openexp._canvas.legacy.legacy object at 0x048814B0>","<openexp._canvas.legacy.legacy object at 0x047BE550>","<openexp._canvas.legacy.legacy object at 0x04882A50>","75","IndividualPriorityWithDis_v1.osexp","C:/Userdata/Michel/SpatialProb/IndividualPriorityMaps/Experiment2","no","mono","no","18","no","white","no","yes","0.09","98","1050","legacy","315","0","0","1","C:/Userdata/Michel/SpatialProb/IndividualPriorityMaps/Experiment2/data/subject-3.csv","legacy","9","192","25","Jazzy James","3.1.3","yes","598477b2b83f69022949e7e9","47","green","circular","green","circular","0","/","757","space","13652","13652","(80, 80, 80)","(0, 122, 0)","(179, 0, 0)","(155, 155, 155)","2","legacy","experiment","[2, 3, 4, 5, 6, 7, 0, 1]","/","2500","3000","0","8","252.758751519","1024","2","48000","-16","main","[(0, -252), (178, -178), (252, 0), (178, 178), (0, 252), (-178, 178), (-252, 0), (-178, -178)]","[]","3","odd","2","487293","568772","568772","380469","379462","1630","406865","406865","1630","1630","394122","575897","1627","568772","575137","569179","569179","NA","883","study_X","0","13652","1","yes","1680"
"undefined","undefined","13652","13652","black","no","legacy","legacy","legacy","0","green","(0, 122, 0)","color","present","highProb","circular","same","same","swap","same","red","(179, 0, 0)","lowProb","lowProb6","circular","uniform","0","undefined","0.00520833333333","1","1","16.9635416667","1","1","3257","0","0","0","0","0","0","0","0","26","0","1","0.00520833333333","16.9635416667","1","3257","26","26","26","08/10/17 15:22:00","Default description","yes","<openexp._canvas.legacy.legacy object at 0x047C27F0>","<openexp._canvas.legacy.legacy object at 0x047CE7B0>","<openexp._canvas.legacy.legacy object at 0x047BA510>","<openexp._canvas.legacy.legacy object at 0x048B09D0>","<openexp._canvas.legacy.legacy object at 0x048814B0>","<openexp._canvas.legacy.legacy object at 0x047CEFB0>","<openexp._canvas.legacy.legacy object at 0x04882A50>","75","IndividualPriorityWithDis_v1.osexp","C:/Userdata/Michel/SpatialProb/IndividualPriorityMaps/Experiment2","no","mono","no","18","no","white","no","yes","0.09","98","1050","legacy","45","1","1","1","C:/Userdata/Michel/SpatialProb/IndividualPriorityMaps/Experiment2/data/subject-3.csv","legacy","9","192","25","Jazzy James","3.1.3","yes","598477b2b83f69022949e7e9","47","green","circular","red","circular","0","None","2500","space","13652","13652","(80, 80, 80)","(0, 122, 0)","(179, 0, 0)","(155, 155, 155)","2","legacy","experiment","[2, 3, 4, 5, 6, 7, 0, 1]","\","2500","3000","0","8","252.758751519","1024","2","48000","-16","main","[(0, -252), (178, -178), (252, 0), (178, 178), (0, 252), (-178, 178), (-252, 0), (-178, -178)]","[]","3","odd","1","487293","568772","568772","380469","379462","1630","406865","406865","1630","1630","394122","579763","1627","568772","577260","576371","576371","NA","883","study_X","0","13652","1","yes","1680"
"undefined","undefined","13652","13652","black","no","legacy","legacy","legacy","0","green","(0, 122, 0)","shape","absent","lowProb2","rectangular","same","swap","swap","swap","green","(0, 122, 0)","highProbShape","highProbShape","rectangular","uniform","1","undefined","0.0104166666667","1","1","21.1822916667","1","2","4067","0","0","0","0","0","0","0","0","27","0","1","0.0104166666667","21.1822916667","2","4067","27","27","27","08/10/17 15:22:00","Default description","yes","<openexp._canvas.legacy.legacy object at 0x047C27F0>","<openexp._canvas.legacy.legacy object at 0x047CE7B0>","<openexp._canvas.legacy.legacy object at 0x047BA510>","<openexp._canvas.legacy.legacy object at 0x048B09D0>","<openexp._canvas.legacy.legacy object at 0x048814B0>","<openexp._canvas.legacy.legacy object at 0x047BF950>","<openexp._canvas.legacy.legacy object at 0x04882A50>","75","IndividualPriorityWithDis_v1.osexp","C:/Userdata/Michel/SpatialProb/IndividualPriorityMaps/Experiment2","no","mono","no","18","no","white","no","yes","0.09","98","1050","legacy","45","2","2","1","C:/Userdata/Michel/SpatialProb/IndividualPriorityMaps/Experiment2/data/subject-3.csv","legacy","9","192","25","Jazzy James","3.1.3","yes","598477b2b83f69022949e7e9","47","green","rectangular","green","rectangular","0","\","810","space","13652","13652","(80, 80, 80)","(0, 122, 0)","(179, 0, 0)","(155, 155, 155)","2","legacy","experiment","[2, 3, 4, 5, 6, 7, 0, 1]","\","2500","3000","0","8","252.758751519","1024","2","48000","-16","main","[(0, -252), (178, -178), (252, 0), (178, 178), (0, 252), (-178, 178), (-252, 0), (-178, -178)]","[]","3","odd","6","487293","568772","568772","380469","379462","1630","406865","406865","1630","1630","394122","581905","1627","568772","581091","580202","580202","NA","883","study_X","0","13652","1","yes","1680"
"undefined","undefined","13652","13652","black","no","legacy","legacy","legacy","0","red","(179, 0, 0)","color","absent","highProbOther","rectangular","swap","same","swap","same","red","(179, 0, 0)","highProbColor","highProbColor","rectangular","uniform","1","undefined","0.015625","1","1","26.3958333333","1","3","5068","0","0","0","0","0","0","0","0","28","0","1","0.015625","26.3958333333","3","5068","28","28","28","08/10/17 15:22:00","Default description","yes","<openexp._canvas.legacy.legacy object at 0x047C27F0>","<openexp._canvas.legacy.legacy object at 0x047CE7B0>","<openexp._canvas.legacy.legacy object at 0x047BA510>","<openexp._canvas.legacy.legacy object at 0x048B09D0>","<openexp._canvas.legacy.legacy object at 0x048814B0>","<openexp._canvas.legacy.legacy object at 0x047BAFD0>","<openexp._canvas.legacy.legacy object at 0x04882A50>","75","IndividualPriorityWithDis_v1.osexp","C:/Userdata/Michel/SpatialProb/IndividualPriorityMaps/Experiment2","no","mono","no","18","no","white","no","yes","0.09","98","1050","legacy","315","3","3","1","C:/Userdata/Michel/SpatialProb/IndividualPriorityMaps/Experiment2/data/subject-3.csv","legacy","9","192","25","Jazzy James","3.1.3","yes","598477b2b83f69022949e7e9","47","red","rectangular","red","rectangular","0","/","1001","space","13652","13652","(80, 80, 80)","(0, 122, 0)","(179, 0, 0)","(155, 155, 155)","2","legacy","experiment","[2, 3, 4, 5, 6, 7, 0, 1]","/","2500","3000","0","8","252.758751519","1024","2","48000","-16","main","[(0, -252), (178, -178), (252, 0), (178, 178), (0, 252), (-178, 178), (-252, 0), (-178, -178)]","[]","3","odd","2","487293","568772","568772","380469","379462","1630","406865","406865","1630","1630","394122","584224","1627","568772","583220","582331","582332","NA","883","study_X","0","13652","1","yes","1680"
"undefined","undefined","13652","13652","black","no","legacy","legacy","legacy","0","green","(0, 122, 0)","shape","present","lowProb5","circular","swap","swap","swap","same","green","(0, 122, 0)","highProbShape","highProbShape","rectangular","uniform","1","undefined","0.0208333333333","1","1","30.6822916667","1","4","5891","0","0","0","0","0","0","0","0","29","0","1","0.0208333333333","30.6822916667","4","5891","29","29","29","08/10/17 15:22:00","Default description","yes","<openexp._canvas.legacy.legacy object at 0x047C27F0>","<openexp._canvas.legacy.legacy object at 0x047CE7B0>","<openexp._canvas.legacy.legacy object at 0x047BA510>","<openexp._canvas.legacy.legacy object at 0x048B09D0>","<openexp._canvas.legacy.legacy object at 0x048814B0>","<openexp._canvas.legacy.legacy object at 0x048B0F70>","<openexp._canvas.legacy.legacy object at 0x04882A50>","75","IndividualPriorityWithDis_v1.osexp","C:/Userdata/Michel/SpatialProb/IndividualPriorityMaps/Experiment2","no","mono","no","18","no","white","no","yes","0.09","98","1050","legacy","315","4","4","1","C:/Userdata/Michel/SpatialProb/IndividualPriorityMaps/Experiment2/data/subject-3.csv","legacy","9","192","25","Jazzy James","3.1.3","yes","598477b2b83f69022949e7e9","47","green","circular","green","rectangular","0","/","823","space","13652","13652","(80, 80, 80)","(0, 122, 0)","(179, 0, 0)","(155, 155, 155)","2","legacy","experiment","[2, 3, 4, 5, 6, 7, 0, 1]","/","2500","3000","0","8","252.758751519","1024","2","48000","-16","main","[(0, -252), (178, -178), (252, 0), (178, 178), (0, 252), (-178, 178), (-252, 0), (-178, -178)]","[]","3","odd","6","487293","568772","568772","380469","379462","1630","406865","406865","1630","1630","394122","586368","1627","568772","585542","584653","584653","NA","883","study_X","0","13652","1","yes","1680"
"undefined","undefined","13652","13652","black","no","legacy","legacy","legacy","0","green","(0, 122, 0)","shape","present","highProb","circular","same","same","same","same","green","(0, 122, 0)","lowProb","lowProb6","rectangular","uniform","1","undefined","0.0260416666667","1","1","40.390625","1","5","7755","0","0","0","0","0","0","0","0","30","0","1","0.0260416666667","40.390625","5","7755","30","30","30","08/10/17 15:22:00","Default description","yes","<openexp._canvas.legacy.legacy object at 0x047C27F0>","<openexp._canvas.legacy.legacy object at 0x047CE7B0>","<openexp._canvas.legacy.legacy object at 0x047BA510>","<openexp._canvas.legacy.legacy object at 0x048B09D0>","<openexp._canvas.legacy.legacy object at 0x048814B0>","<openexp._canvas.legacy.legacy object at 0x047BE610>","<openexp._canvas.legacy.legacy object at 0x04882A50>","75","IndividualPriorityWithDis_v1.osexp","C:/Userdata/Michel/SpatialProb/IndividualPriorityMaps/Experiment2","no","mono","no","18","no","white","no","yes","0.09","98","1050","legacy","45","5","5","1","C:/Userdata/Michel/SpatialProb/IndividualPriorityMaps/Experiment2/data/subject-3.csv","legacy","9","192","25","Jazzy James","3.1.3","yes","598477b2b83f69022949e7e9","47","green","circular","green","rectangular","0","\","1864","space","13652","13652","(80, 80, 80)","(0, 122, 0)","(179, 0, 0)","(155, 155, 155)","2","legacy","experiment","[2, 3, 4, 5, 6, 7, 0, 1]","\","2500","3000","0","8","252.758751519","1024","2","48000","-16","main","[(0, -252), (178, -178), (252, 0), (178, 178), (0, 252), (-178, 178), (-252, 0), (-178, -178)]","[]","3","odd","1","487293","568772","568772","380469","379462","1630","406865","406865","1630","1630","394122","589553","1627","568772","587686","586797","586797","NA","883","study_X","0","13652","1","yes","1680"
"undefined","undefined","13652","13652","black","no","legacy","legacy","legacy","0","green","(0, 122, 0)","color","present","highProb","rectangular","same","swap","swap","same","red","(179, 0, 0)","lowProb","lowProb4","rectangular","uniform","1","undefined","0.03125","1","1","48.6875","1","6","9348","0","0","0","0","0","0","0","0","31","0","1","0.03125","48.6875","6","9348","31","31","31","08/10/17 15:22:00","Default description","yes","<openexp._canvas.legacy.legacy object at 0x047C27F0>","<openexp._canvas.legacy.legacy object at 0x047CE7B0>","<openexp._canvas.legacy.legacy object at 0x047BA510>","<openexp._canvas.legacy.legacy object at 0x048B09D0>","<openexp._canvas.legacy.legacy object at 0x048814B0>","<openexp._canvas.legacy.legacy object at 0x047BF930>","<openexp._canvas.legacy.legacy object at 0x04882A50>","75","IndividualPriorityWithDis_v1.osexp","C:/Userdata/Michel/SpatialProb/IndividualPriorityMaps/Experiment2","no","mono","no","18","no","white","no","yes","0.09","98","1050","legacy","45","6","6","1","C:/Userdata/Michel/SpatialProb/IndividualPriorityMaps/Experiment2/data/subject-3.csv","legacy","9","192","25","Jazzy James","3.1.3","yes","598477b2b83f69022949e7e9","47","green","rectangular","red","rectangular","0","\","1593","space","13652","13652","(80, 80, 80)","(0, 122, 0)","(179, 0, 0)","(155, 155, 155)","2","legacy","experiment","[2, 3, 4, 5, 6, 7, 0, 1]","\","2500","3000","0","8","252.758751519","1024","2","48000","-16","main","[(0, -252), (178, -178), (252, 0), (178, 178), (0, 252), (-178, 178), (-252, 0), (-178, -178)]","[]","3","odd","7","487293","568772","568772","380469","379462","1630","406865","406865","1630","1630","394122","592449","1627","568772","590852","589963","589963","NA","883","study_X","0","13652","1","yes","1680"
"undefined","undefined","13652","13652","black","no","legacy","legacy","legacy","0","green","(0, 122, 0)","shape","present","lowProb6","rectangular","same","same","swap","swap","green","(0, 122, 0)","lowProb","lowProb1","circular","uniform","1","undefined","0.0364583333333","1","1","55.3229166667","1","7","10622","0","0","0","0","0","0","0","0","32","0","1","0.0364583333333","55.3229166667","7","10622","32","32","32","08/10/17 15:22:00","Default description","yes","<openexp._canvas.legacy.legacy object at 0x047C27F0>","<openexp._canvas.legacy.legacy object at 0x047CE7B0>","<openexp._canvas.legacy.legacy object at 0x047BA510>","<openexp._canvas.legacy.legacy object at 0x048B09D0>","<openexp._canvas.legacy.legacy object at 0x048814B0>","<openexp._canvas.legacy.legacy object at 0x047BE390>","<openexp._canvas.legacy.legacy object at 0x04882A50>","75","IndividualPriorityWithDis_v1.osexp","C:/Userdata/Michel/SpatialProb/IndividualPriorityMaps/Experiment2","no","mono","no","18","no","white","no","yes","0.09","98","1050","legacy","45","7","7","1","C:/Userdata/Michel/SpatialProb/IndividualPriorityMaps/Experiment2/data/subject-3.csv","legacy","9","192","25","Jazzy James","3.1.3","yes","598477b2b83f69022949e7e9","47","green","rectangular","green","circular","0","\","1274","space","13652","13652","(80, 80, 80)","(0, 122, 0)","(179, 0, 0)","(155, 155, 155)","2","legacy","experiment","[2, 3, 4, 5, 6, 7, 0, 1]","\","2500","3000","0","8","252.758751519","1024","2","48000","-16","main","[(0, -252), (178, -178), (252, 0), (178, 178), (0, 252), (-178, 178), (-252, 0), (-178, -178)]","[]","3","odd","3","487293","568772","568772","380469","379462","1630","406865","406865","1630","1630","394122","595049","1627","568772","593771","592882","592882","NA","883","study_X","0","13652","1","yes","1680"
"undefined","undefined","13652","13652","black","no","legacy","legacy","legacy","0","green","(0, 122, 0)","shape","present","highProb","rectangular","same","same","same","same","green","(0, 122, 0)","lowProb","lowProb4","circular","uniform","1","undefined","0.0416666666667","1","1","61.5729166667","1","8","11822","0","0","0","0","0","0","0","0","33","0","1","0.0416666666667","61.5729166667","8","11822","33","33","33","08/10/17 15:22:00","Default description","yes","<openexp._canvas.legacy.legacy object at 0x047C27F0>","<openexp._canvas.legacy.legacy object at 0x047CE7B0>","<openexp._canvas.legacy.legacy object at 0x047BA510>","<openexp._canvas.legacy.legacy object at 0x048B09D0>","<openexp._canvas.legacy.legacy object at 0x048814B0>","<openexp._canvas.legacy.legacy object at 0x047BF3B0>","<openexp._canvas.legacy.legacy object at 0x04882A50>","75","IndividualPriorityWithDis_v1.osexp","C:/Userdata/Michel/SpatialProb/IndividualPriorityMaps/Experiment2","no","mono","no","18","no","white","no","yes","0.09","98","1050","legacy","315","8","8","1","C:/Userdata/Michel/SpatialProb/IndividualPriorityMaps/Experiment2/data/subject-3.csv","legacy","9","192","25","Jazzy James","3.1.3","yes","598477b2b83f69022949e7e9","47","green","rectangular","green","circular","0","/","1200","space","13652","13652","(80, 80, 80)","(0, 122, 0)","(179, 0, 0)","(155, 155, 155)","2","legacy","experiment","[2, 3, 4, 5, 6, 7, 0, 1]","/","2500","3000","0","8","252.758751519","1024","2","48000","-16","main","[(0, -252), (178, -178), (252, 0), (178, 178), (0, 252), (-178, 178), (-252, 0), (-178, -178)]","[]","3","odd","7","487293","568772","568772","380469","379462","1630","406865","406865","1630","1630","394122","597577","1627","568772","596373","595484","595484","NA","883","study_X","0","13652","1","yes","1680"
"undefined","undefined","13652","13652","black","no","legacy","legacy","legacy","0","green","(0, 122, 0)","shape","present","highProb","circular","same","swap","same","swap","green","(0, 122, 0)","lowProb","lowProb5","rectangular","uniform","1","undefined","0.046875","1","1","71.7135416667","1","9","13769","0","0","0","0","0","0","0","0","34","0","1","0.046875","71.7135416667","9","13769","34","34","34","08/10/17 15:22:00","Default description","yes","<openexp._canvas.legacy.legacy object at 0x047C27F0>","<openexp._canvas.legacy.legacy object at 0x047CE7B0>","<openexp._canvas.legacy.legacy object at 0x047BA510>","<openexp._canvas.legacy.legacy object at 0x048B09D0>","<openexp._canvas.legacy.legacy object at 0x048814B0>","<openexp._canvas.legacy.legacy object at 0x048B00F0>","<openexp._canvas.legacy.legacy object at 0x04882A50>","75","IndividualPriorityWithDis_v1.osexp","C:/Userdata/Michel/SpatialProb/IndividualPriorityMaps/Experiment2","no","mono","no","18","no","white","no","yes","0.09","98","1050","legacy","45","9","9","1","C:/Userdata/Michel/SpatialProb/IndividualPriorityMaps/Experiment2/data/subject-3.csv","legacy","9","192","25","Jazzy James","3.1.3","yes","598477b2b83f69022949e7e9","47","green","circular","green","rectangular","0","\","1947","space","13652","13652","(80, 80, 80)","(0, 122, 0)","(179, 0, 0)","(155, 155, 155)","2","legacy","experiment","[2, 3, 4, 5, 6, 7, 0, 1]","\","2500","3000","0","8","252.758751519","1024","2","48000","-16","main","[(0, -252), (178, -178), (252, 0), (178, 178), (0, 252), (-178, 178), (-252, 0), (-178, -178)]","[]","3","odd","0","487293","568772","568772","380469","379462","1630","406865","406865","1630","1630","394122","600864","1627","568772","598914","598025","598025","NA","883","study_X","0","13652","1","yes","1680"
"undefined","undefined","13652","13652","black","no","legacy","legacy","legacy","0","green","(0, 122, 0)","shape","present","lowProb1","circular","same","same","same","same","green","(0, 122, 0)","lowProb","lowProb4","rectangular","uniform","1","undefined","0.0520833333333","1","1","76.234375","1","10","14637","0","0","0","0","0","0","0","0","35","0","1","0.0520833333333","76.234375","10","14637","35","35","35","08/10/17 15:22:00","Default description","yes","<openexp._canvas.legacy.legacy object at 0x047C27F0>","<openexp._canvas.legacy.legacy object at 0x047CE7B0>","<openexp._canvas.legacy.legacy object at 0x047BA510>","<openexp._canvas.legacy.legacy object at 0x048B09D0>","<openexp._canvas.legacy.legacy object at 0x048814B0>","<openexp._canvas.legacy.legacy object at 0x047C9110>","<openexp._canvas.legacy.legacy object at 0x04882A50>","75","IndividualPriorityWithDis_v1.osexp","C:/Userdata/Michel/SpatialProb/IndividualPriorityMaps/Experiment2","no","mono","no","18","no","white","no","yes","0.09","98","1050","legacy","315","10","10","1","C:/Userdata/Michel/SpatialProb/IndividualPriorityMaps/Experiment2/data/subject-3.csv","legacy","9","192","25","Jazzy James","3.1.3","yes","598477b2b83f69022949e7e9","47","green","circular","green","rectangular","0","/","868","space","13652","13652","(80, 80, 80)","(0, 122, 0)","(179, 0, 0)","(155, 155, 155)","2","legacy","experiment","[2, 3, 4, 5, 6, 7, 0, 1]","/","2500","3000","0","8","252.758751519","1024","2","48000","-16","main","[(0, -252), (178, -178), (252, 0), (178, 178), (0, 252), (-178, 178), (-252, 0), (-178, -178)]","[]","3","odd","7","487293","568772","568772","380469","379462","1630","406865","406865","1630","1630","394122","603048","1627","568772","602177","601288","601289","NA","883","study_X","0","13652","1","yes","1680"
"undefined","undefined","13652","13652","black","no","legacy","legacy","legacy","0","red","(179, 0, 0)","color","absent","highProb","circular","swap","same","swap","swap","red","(179, 0, 0)","lowProb","lowProb2","circular","uniform","1","undefined","0.0572916666667","1","1","85","1","11","16320","0","0","0","0","0","0","0","0","36","0","1","0.0572916666667","85","11","16320","36","36","36","08/10/17 15:22:00","Default description","yes","<openexp._canvas.legacy.legacy object at 0x047C27F0>","<openexp._canvas.legacy.legacy object at 0x047CE7B0>","<openexp._canvas.legacy.legacy object at 0x047BA510>","<openexp._canvas.legacy.legacy object at 0x048B09D0>","<openexp._canvas.legacy.legacy object at 0x048814B0>","<openexp._canvas.legacy.legacy object at 0x047BFEB0>","<openexp._canvas.legacy.legacy object at 0x04882A50>","75","IndividualPriorityWithDis_v1.osexp","C:/Userdata/Michel/SpatialProb/IndividualPriorityMaps/Experiment2","no","mono","no","18","no","white","no","yes","0.09","98","1050","legacy","315","11","11","1","C:/Userdata/Michel/SpatialProb/IndividualPriorityMaps/Experiment2/data/subject-3.csv","legacy","9","192","25","Jazzy James","3.1.3","yes","598477b2b83f69022949e7e9","47","red","circular","red","circular","0","/","1683","space","13652","13652","(80, 80, 80)","(0, 122, 0)","(179, 0, 0)","(155, 155, 155)","2","legacy","experiment","[2, 3, 4, 5, 6, 7, 0, 1]","/","2500","3000","0","8","252.758751519","1024","2","48000","-16","main","[(0, -252), (178, -178), (252, 0), (178, 178), (0, 252), (-178, 178), (-252, 0), (-178, -178)]","[]","3","odd","4","487293","568772","568772","380469","379462","1630","406865","406865","1630","1630","394122","606049","1627","568772","604363","603474","603474","NA","883","study_X","0","13652","1","yes","1680"
"undefined","undefined","13652","13652","black","no","legacy","legacy","legacy","0","green","(0, 122, 0)","color","present","highProb","circular","swap","same","same","same","red","(179, 0, 0)","lowProb","lowProb3","circular","uniform","1","undefined","0.0625","1","1","90.3020833333","1","12","17338","0","0","0","0","0","0","0","0","37","0","1","0.0625","90.3020833333","12","17338","37","37","37","08/10/17 15:22:00","Default description","yes","<openexp._canvas.legacy.legacy object at 0x047C27F0>","<openexp._canvas.legacy.legacy object at 0x047CE7B0>","<openexp._canvas.legacy.legacy object at 0x047BA510>","<openexp._canvas.legacy.legacy object at 0x048B09D0>","<openexp._canvas.legacy.legacy object at 0x048814B0>","<openexp._canvas.legacy.legacy object at 0x047D1710>","<openexp._canvas.legacy.legacy object at 0x04882A50>","75","IndividualPriorityWithDis_v1.osexp","C:/Userdata/Michel/SpatialProb/IndividualPriorityMaps/Experiment2","no","mono","no","18","no","white","no","yes","0.09","98","1050","legacy","315","12","12","1","C:/Userdata/Michel/SpatialProb/IndividualPriorityMaps/Experiment2/data/subject-3.csv","legacy","9","192","25","Jazzy James","3.1.3","yes","598477b2b83f69022949e7e9","47","green","circular","red","circular","0","/","1018","space","13652","13652","(80, 80, 80)","(0, 122, 0)","(179, 0, 0)","(155, 155, 155)","2","legacy","experiment","[2, 3, 4, 5, 6, 7, 0, 1]","/","2500","3000","0","8","252.758751519","1024","2","48000","-16","main","[(0, -252), (178, -178), (252, 0), (178, 178), (0, 252), (-178, 178), (-252, 0), (-178, -178)]","[]","3","odd","5","487293","568772","568772","380469","379462","1630","406865","406865","1630","1630","394122","608393","1627","568772","607371","606482","606482","NA","883","study_X","0","13652","1","yes","1680"
"undefined","undefined","13652","13652","black","no","legacy","legacy","legacy","0","red","(179, 0, 0)","shape","present","lowProb1","circular","swap","same","same","swap","red","(179, 0, 0)","lowProb","lowProb4","rectangular","uniform","1","undefined","0.0677083333333","1","1","95.6458333333","1","13","18364","0","0","0","0","0","0","0","0","38","0","1","0.0677083333333","95.6458333333","13","18364","38","38","38","08/10/17 15:22:00","Default description","yes","<openexp._canvas.legacy.legacy object at 0x047C27F0>","<openexp._canvas.legacy.legacy object at 0x047CE7B0>","<openexp._canvas.legacy.legacy object at 0x047BA510>","<openexp._canvas.legacy.legacy object at 0x048B09D0>","<openexp._canvas.legacy.legacy object at 0x048814B0>","<openexp._canvas.legacy.legacy object at 0x047BF8D0>","<openexp._canvas.legacy.legacy object at 0x04882A50>","75","IndividualPriorityWithDis_v1.osexp","C:/Userdata/Michel/SpatialProb/IndividualPriorityMaps/Experiment2","no","mono","no","18","no","white","no","yes","0.09","98","1050","legacy","45","13","13","1","C:/Userdata/Michel/SpatialProb/IndividualPriorityMaps/Experiment2/data/subject-3.csv","legacy","9","192","25","Jazzy James","3.1.3","yes","598477b2b83f69022949e7e9","47","red","circular","red","rectangular","0","\","1026","space","13652","13652","(80, 80, 80)","(0, 122, 0)","(179, 0, 0)","(155, 155, 155)","2","legacy","experiment","[2, 3, 4, 5, 6, 7, 0, 1]","\","2500","3000","0","8","252.758751519","1024","2","48000","-16","main","[(0, -252), (178, -178), (252, 0), (178, 178), (0, 252), (-178, 178), (-252, 0), (-178, -178)]","[]","3","odd","7","487293","568772","568772","380469","379462","1630","406865","406865","1630","1630","394122","610745","1627","568772","609715","608826","608826","NA","883","study_X","0","13652","1","yes","1680"
"undefined","undefined","13652","13652","black","no","legacy","legacy","legacy","0","red","(179, 0, 0)","shape","absent","highProbOther","circular","same","same","same","swap","red","(179, 0, 0)","lowProb","lowProb4","circular","uniform","1","undefined","0.0729166666667","1","1","99.8177083333","1","14","19165","0","0","0","0","0","0","0","0","39","0","1","0.0729166666667","99.8177083333","14","19165","39","39","39","08/10/17 15:22:00","Default description","yes","<openexp._canvas.legacy.legacy object at 0x047C27F0>","<openexp._canvas.legacy.legacy object at 0x047CE7B0>","<openexp._canvas.legacy.legacy object at 0x047BA510>","<openexp._canvas.legacy.legacy object at 0x048B09D0>","<openexp._canvas.legacy.legacy object at 0x048814B0>","<openexp._canvas.legacy.legacy object at 0x047BF910>","<openexp._canvas.legacy.legacy object at 0x04882A50>","75","IndividualPriorityWithDis_v1.osexp","C:/Userdata/Michel/SpatialProb/IndividualPriorityMaps/Experiment2","no","mono","no","18","no","white","no","yes","0.09","98","1050","legacy","315","14","14","1","C:/Userdata/Michel/SpatialProb/IndividualPriorityMaps/Experiment2/data/subject-3.csv","legacy","9","192","25","Jazzy James","3.1.3","yes","598477b2b83f69022949e7e9","47","red","circular","red","circular","0","/","801","space","13652","13652","(80, 80, 80)","(0, 122, 0)","(179, 0, 0)","(155, 155, 155)","2","legacy","experiment","[2, 3, 4, 5, 6, 7, 0, 1]","/","2500","3000","0","8","252.758751519","1024","2","48000","-16","main","[(0, -252), (178, -178), (252, 0), (178, 178), (0, 252), (-178, 178), (-252, 0), (-178, -178)]","[]","3","odd","7","487293","568772","568772","380469","379462","1630","406865","406865","1630","1630","394122","612897","1627","568772","612092","611203","611203","NA","883","study_X","0","13652","1","yes","1680"
"undefined","undefined","13652","13652","black","no","legacy","legacy","legacy","0","red","(179, 0, 0)","shape","present","highProb","circular","same","same","same","swap","red","(179, 0, 0)","lowProb","lowProb5","rectangular","uniform","1","undefined","0.078125","1","1","102.791666667","1","15","19736","0","0","0","0","0","0","0","0","40","0","1","0.078125","102.791666667","15","19736","40","40","40","08/10/17 15:22:00","Default description","yes","<openexp._canvas.legacy.legacy object at 0x047C27F0>","<openexp._canvas.legacy.legacy object at 0x047CE7B0>","<openexp._canvas.legacy.legacy object at 0x047BA510>","<openexp._canvas.legacy.legacy object at 0x048B09D0>","<openexp._canvas.legacy.legacy object at 0x048814B0>","<openexp._canvas.legacy.legacy object at 0x047BE850>","<openexp._canvas.legacy.legacy object at 0x04882A50>","75","IndividualPriorityWithDis_v1.osexp","C:/Userdata/Michel/SpatialProb/IndividualPriorityMaps/Experiment2","no","mono","no","18","no","white","no","yes","0.09","98","1050","legacy","315","15","15","1","C:/Userdata/Michel/SpatialProb/IndividualPriorityMaps/Experiment2/data/subject-3.csv","legacy","9","192","25","Jazzy James","3.1.3","yes","598477b2b83f69022949e7e9","47","red","circular","red","rectangular","0","/","571","space","13652","13652","(80, 80, 80)","(0, 122, 0)","(179, 0, 0)","(155, 155, 155)","2","legacy","experiment","[2, 3, 4, 5, 6, 7, 0, 1]","/","2500","3000","0","8","252.758751519","1024","2","48000","-16","main","[(0, -252), (178, -178), (252, 0), (178, 178), (0, 252), (-178, 178), (-252, 0), (-178, -178)]","[]","3","odd","0","487293","568772","568772","380469","379462","1630","406865","406865","1630","1630","394122","614776","1627","568772","614203","613314","613314","NA","883","study_X","0","13652","1","yes","1680"
"undefined","undefined","13652","13652","black","no","legacy","legacy","legacy","0","red","(179, 0, 0)","shape","present","highProb","rectangular","same","swap","same","swap","red","(179, 0, 0)","lowProb","lowProb1","circular","uniform","1","undefined","0.0833333333333","1","1","112.322916667","1","16","21566","0","0","0","0","0","0","0","0","41","0","1","0.0833333333333","112.322916667","16","21566","41","41","41","08/10/17 15:22:00","Default description","yes","<openexp._canvas.legacy.legacy object at 0x047C27F0>","<openexp._canvas.legacy.legacy object at 0x047CE7B0>","<openexp._canvas.legacy.legacy object at 0x047BA510>","<openexp._canvas.legacy.legacy object at 0x048B09D0>","<openexp._canvas.legacy.legacy object at 0x048814B0>","<openexp._canvas.legacy.legacy object at 0x047CE950>","<openexp._canvas.legacy.legacy object at 0x04882A50>","75","IndividualPriorityWithDis_v1.osexp","C:/Userdata/Michel/SpatialProb/IndividualPriorityMaps/Experiment2","no","mono","no","18","no","white","no","yes","0.09","98","1050","legacy","315","16","16","1","C:/Userdata/Michel/SpatialProb/IndividualPriorityMaps/Experiment2/data/subject-3.csv","legacy","9","192","25","Jazzy James","3.1.3","yes","598477b2b83f69022949e7e9","47","red","rectangular","red","circular","0","/","1830","space","13652","13652","(80, 80, 80)","(0, 122, 0)","(179, 0, 0)","(155, 155, 155)","2","legacy","experiment","[2, 3, 4, 5, 6, 7, 0, 1]","/","2500","3000","0","8","252.758751519","1024","2","48000","-16","main","[(0, -252), (178, -178), (252, 0), (178, 178), (0, 252), (-178, 178), (-252, 0), (-178, -178)]","[]","3","odd","3","487293","568772","568772","380469","379462","1630","406865","406865","1630","1630","394122","617928","1627","568772","616096","615207","615207","NA","883","study_X","0","13652","1","yes","1680"
"undefined","undefined","13652","13652","black","no","legacy","legacy","legacy","0","green","(0, 122, 0)","color","present","highProb","circular","swap","swap","same","same","red","(179, 0, 0)","lowProb","lowProb2","circular","uniform","1","undefined","0.0885416666667","1","1","120.0625","1","17","23052","0","0","0","0","0","0","0","0","42","0","1","0.0885416666667","120.0625","17","23052","42","42","42","08/10/17 15:22:00","Default description","yes","<openexp._canvas.legacy.legacy object at 0x047C27F0>","<openexp._canvas.legacy.legacy object at 0x047CE7B0>","<openexp._canvas.legacy.legacy object at 0x047BA510>","<openexp._canvas.legacy.legacy object at 0x048B09D0>","<openexp._canvas.legacy.legacy object at 0x048814B0>","<openexp._canvas.legacy.legacy object at 0x047BF4F0>","<openexp._canvas.legacy.legacy object at 0x04882A50>","75","IndividualPriorityWithDis_v1.osexp","C:/Userdata/Michel/SpatialProb/IndividualPriorityMaps/Experiment2","no","mono","no","18","no","white","no","yes","0.09","98","1050","legacy","45","17","17","1","C:/Userdata/Michel/SpatialProb/IndividualPriorityMaps/Experiment2/data/subject-3.csv","legacy","9","192","25","Jazzy James","3.1.3","yes","598477b2b83f69022949e7e9","47","green","circular","red","circular","0","\","1486","space","13652","13652","(80, 80, 80)","(0, 122, 0)","(179, 0, 0)","(155, 155, 155)","2","legacy","experiment","[2, 3, 4, 5, 6, 7, 0, 1]","\","2500","3000","0","8","252.758751519","1024","2","48000","-16","main","[(0, -252), (178, -178), (252, 0), (178, 178), (0, 252), (-178, 178), (-252, 0), (-178, -178)]","[]","3","odd","4","487293","568772","568772","380469","379462","1630","406865","406865","1630","1630","394122","620736","1627","568772","619247","618359","618360","NA","883","study_X","0","13652","1","yes","1680"
"undefined","undefined","13652","13652","black","no","legacy","legacy","legacy","0","green","(0, 122, 0)","color","present","highProb","circular","same","same","same","same","red","(179, 0, 0)","lowProb","lowProb3","circular","uniform","1","undefined","0.09375","1","1","125.916666667","1","18","24176","0","0","0","0","0","0","0","0","43","0","1","0.09375","125.916666667","18","24176","43","43","43","08/10/17 15:22:00","Default description","yes","<openexp._canvas.legacy.legacy object at 0x047C27F0>","<openexp._canvas.legacy.legacy object at 0x047CE7B0>","<openexp._canvas.legacy.legacy object at 0x047BA510>","<openexp._canvas.legacy.legacy object at 0x048B09D0>","<openexp._canvas.legacy.legacy object at 0x048814B0>","<openexp._canvas.legacy.legacy object at 0x048B0430>","<openexp._canvas.legacy.legacy object at 0x04882A50>","75","IndividualPriorityWithDis_v1.osexp","C:/Userdata/Michel/SpatialProb/IndividualPriorityMaps/Experiment2","no","mono","no","18","no","white","no","yes","0.09","98","1050","legacy","315","18","18","1","C:/Userdata/Michel/SpatialProb/IndividualPriorityMaps/Experiment2/data/subject-3.csv","legacy","9","192","25","Jazzy James","3.1.3","yes","598477b2b83f69022949e7e9","47","green","circular","red","circular","0","/","1124","space","13652","13652","(80, 80, 80)","(0, 122, 0)","(179, 0, 0)","(155, 155, 155)","2","legacy","experiment","[2, 3, 4, 5, 6, 7, 0, 1]","/","2500","3000","0","8","252.758751519","1024","2","48000","-16","main","[(0, -252), (178, -178), (252, 0), (178, 178), (0, 252), (-178, 178), (-252, 0), (-178, -178)]","[]","3","odd","5","487293","568772","568772","380469","379462","1630","406865","406865","1630","1630","394122","623185","1627","568772","622058","621169","621170","NA","883","study_X","0","13652","1","yes","1680"
"undefined","undefined","13652","13652","black","no","legacy","legacy","legacy","0","green","(0, 122, 0)","shape","present","highProb","circular","same","same","swap","swap","green","(0, 122, 0)","lowProb","lowProb4","rectangular","uniform","1","undefined","0.0989583333333","1","1","129.567708333","1","19","24877","0","0","0","0","0","0","0","0","44","0","1","0.0989583333333","129.567708333","19","24877","44","44","44","08/10/17 15:22:00","Default description","yes","<openexp._canvas.legacy.legacy object at 0x047C27F0>","<openexp._canvas.legacy.legacy object at 0x047CE7B0>","<openexp._canvas.legacy.legacy object at 0x047BA510>","<openexp._canvas.legacy.legacy object at 0x048B09D0>","<openexp._canvas.legacy.legacy object at 0x048814B0>","<openexp._canvas.legacy.legacy object at 0x047BE310>","<openexp._canvas.legacy.legacy object at 0x04882A50>","75","IndividualPriorityWithDis_v1.osexp","C:/Userdata/Michel/SpatialProb/IndividualPriorityMaps/Experiment2","no","mono","no","18","no","white","no","yes","0.09","98","1050","legacy","315","19","19","1","C:/Userdata/Michel/SpatialProb/IndividualPriorityMaps/Experiment2/data/subject-3.csv","legacy","9","192","25","Jazzy James","3.1.3","yes","598477b2b83f69022949e7e9","47","green","circular","green","rectangular","0","/","701","space","13652","13652","(80, 80, 80)","(0, 122, 0)","(179, 0, 0)","(155, 155, 155)","2","legacy","experiment","[2, 3, 4, 5, 6, 7, 0, 1]","/","2500","3000","0","8","252.758751519","1024","2","48000","-16","main","[(0, -252), (178, -178), (252, 0), (178, 178), (0, 252), (-178, 178), (-252, 0), (-178, -178)]","[]","3","odd","7","487293","568772","568772","380469","379462","1630","406865","406865","1630","1630","394122","625193","1627","568772","624488","623599","623599","NA","883","study_X","0","13652","1","yes","1680"
"undefined","undefined","13652","13652","black","no","legacy","legacy","legacy","0","red","(179, 0, 0)","shape","present","lowProb4","circular","swap","same","swap","same","red","(179, 0, 0)","highProbColor","highProbColor","rectangular","uniform","1","undefined","0.104166666667","1","1","141.171875","1","20","27105","0","0","0","0","0","0","0","0","45","0","1","0.104166666667","141.171875","20","27105","45","45","45","08/10/17 15:22:00","Default description","yes","<openexp._canvas.legacy.legacy object at 0x047C27F0>","<openexp._canvas.legacy.legacy object at 0x047CE7B0>","<openexp._canvas.legacy.legacy object at 0x047BA510>","<openexp._canvas.legacy.legacy object at 0x048B09D0>","<openexp._canvas.legacy.legacy object at 0x048814B0>","<openexp._canvas.legacy.legacy object at 0x047C9590>","<openexp._canvas.legacy.legacy object at 0x04882A50>","75","IndividualPriorityWithDis_v1.osexp","C:/Userdata/Michel/SpatialProb/IndividualPriorityMaps/Experiment2","no","mono","no","18","no","white","no","yes","0.09","98","1050","legacy","45","20","20","1","C:/Userdata/Michel/SpatialProb/IndividualPriorityMaps/Experiment2/data/subject-3.csv","legacy","9","192","25","Jazzy James","3.1.3","yes","598477b2b83f69022949e7e9","47","red","circular","red","rectangular","0","\","2228","space","13652","13652","(80, 80, 80)","(0, 122, 0)","(179, 0, 0)","(155, 155, 155)","2","legacy","experiment","[2, 3, 4, 5, 6, 7, 0, 1]","\","2500","3000","0","8","252.758751519","1024","2","48000","-16","main","[(0, -252), (178, -178), (252, 0), (178, 178), (0, 252), (-178, 178), (-252, 0), (-178, -178)]","[]","3","odd","2","487293","568772","568772","380469","379462","1630","406865","406865","1630","1630","394122","628737","1627","568772","626505","625616","625616","NA","883","study_X","0","13652","1","yes","1680"
"undefined","undefined","13652","13652","black","no","legacy","legacy","legacy","0","green","(0, 122, 0)","shape","present","lowProb3","circular","swap","same","swap","same","green","(0, 122, 0)","highProbShape","highProbShape","rectangular","uniform","1","undefined","0.109375","1","1","145.942708333","1","21","28021","0","0","0","0","0","0","0","0","46","0","1","0.109375","145.942708333","21","28021","46","46","46","08/10/17 15:22:00","Default description","yes","<openexp._canvas.legacy.legacy object at 0x047C27F0>","<openexp._canvas.legacy.legacy object at 0x047CE7B0>","<openexp._canvas.legacy.legacy object at 0x047BA510>","<openexp._canvas.legacy.legacy object at 0x048B09D0>","<openexp._canvas.legacy.legacy object at 0x048814B0>","<openexp._canvas.legacy.legacy object at 0x047BEBF0>","<openexp._canvas.legacy.legacy object at 0x04882A50>","75","IndividualPriorityWithDis_v1.osexp","C:/Userdata/Michel/SpatialProb/IndividualPriorityMaps/Experiment2","no","mono","no","18","no","white","no","yes","0.09","98","1050","legacy","45","21","21","1","C:/Userdata/Michel/SpatialProb/IndividualPriorityMaps/Experiment2/data/subject-3.csv","legacy","9","192","25","Jazzy James","3.1.3","yes","598477b2b83f69022949e7e9","47","green","circular","green","rectangular","0","\","916","space","13652","13652","(80, 80, 80)","(0, 122, 0)","(179, 0, 0)","(155, 155, 155)","2","legacy","experiment","[2, 3, 4, 5, 6, 7, 0, 1]","\","2500","3000","0","8","252.758751519","1024","2","48000","-16","main","[(0, -252), (178, -178), (252, 0), (178, 178), (0, 252), (-178, 178), (-252, 0), (-178, -178)]","[]","3","odd","6","487293","568772","568772","380469","379462","1630","406865","406865","1630","1630","394122","630968","1627","568772","630049","629160","629160","NA","883","study_X","0","13652","1","yes","1680"
"undefined","undefined","13652","13652","black","no","legacy","legacy","legacy","0","green","(0, 122, 0)","color","present","highProbOther","circular","same","same","swap","swap","red","(179, 0, 0)","lowProb","lowProb2","circular","uniform","1","undefined","0.114583333333","1","1","156.364583333","1","22","30022","0","0","0","0","0","0","0","0","47","0","1","0.114583333333","156.364583333","22","30022","47","47","47","08/10/17 15:22:00","Default description","yes","<openexp._canvas.legacy.legacy object at 0x047C27F0>","<openexp._canvas.legacy.legacy object at 0x047CE7B0>","<openexp._canvas.legacy.legacy object at 0x047BA510>","<openexp._canvas.legacy.legacy object at 0x048B09D0>","<openexp._canvas.legacy.legacy object at 0x048814B0>","<openexp._canvas.legacy.legacy object at 0x047C9970>","<openexp._canvas.legacy.legacy object at 0x04882A50>","75","IndividualPriorityWithDis_v1.osexp","C:/Userdata/Michel/SpatialProb/IndividualPriorityMaps/Experiment2","no","mono","no","18","no","white","no","yes","0.09","98","1050","legacy","45","22","22","1","C:/Userdata/Michel/SpatialProb/IndividualPriorityMaps/Experiment2/data/subject-3.csv","legacy","9","192","25","Jazzy James","3.1.3","yes","598477b2b83f69022949e7e9","47","green","circular","red","circular","0","\","2001","space","13652","13652","(80, 80, 80)","(0, 122, 0)","(179, 0, 0)","(155, 155, 155)","2","legacy","experiment","[2, 3, 4, 5, 6, 7, 0, 1]","\","2500","3000","0","8","252.758751519","1024","2","48000","-16","main","[(0, -252), (178, -178), (252, 0), (178, 178), (0, 252), (-178, 178), (-252, 0), (-178, -178)]","[]","3","odd","4","487293","568772","568772","380469","379462","1630","406865","406865","1630","1630","394122","634296","1627","568772","632292","631403","631403","NA","883","study_X","0","13652","1","yes","1680"
"undefined","undefined","13652","13652","black","no","legacy","legacy","legacy","0","red","(179, 0, 0)","color","present","highProb","rectangular","swap","swap","swap","swap","green","(0, 122, 0)","lowProb","lowProb3","rectangular","uniform","0","undefined","0.114583333333","1","1","163.963541667","1","22","31481","0","0","0","0","0","0","0","0","48","0","1","0.114583333333","163.963541667","22","31481","48","48","48","08/10/17 15:22:00","Default description","yes","<openexp._canvas.legacy.legacy object at 0x047C27F0>","<openexp._canvas.legacy.legacy object at 0x047CE7B0>","<openexp._canvas.legacy.legacy object at 0x047BA510>","<openexp._canvas.legacy.legacy object at 0x048B09D0>","<openexp._canvas.legacy.legacy object at 0x048814B0>","<openexp._canvas.legacy.legacy object at 0x047BE410>","<openexp._canvas.legacy.legacy object at 0x04882A50>","75","IndividualPriorityWithDis_v1.osexp","C:/Userdata/Michel/SpatialProb/IndividualPriorityMaps/Experiment2","no","mono","no","18","no","white","no","yes","0.09","98","1050","legacy","315","23","23","1","C:/Userdata/Michel/SpatialProb/IndividualPriorityMaps/Experiment2/data/subject-3.csv","legacy","9","192","25","Jazzy James","3.1.3","yes","598477b2b83f69022949e7e9","47","red","rectangular","green","rectangular","0","\","1459","space","13652","13652","(80, 80, 80)","(0, 122, 0)","(179, 0, 0)","(155, 155, 155)","2","legacy","experiment","[2, 3, 4, 5, 6, 7, 0, 1]","/","2500","3000","0","8","252.758751519","1024","2","48000","-16","main","[(0, -252), (178, -178), (252, 0), (178, 178), (0, 252), (-178, 178), (-252, 0), (-178, -178)]","[]","3","odd","5","487293","568772","568772","380469","379462","1630","406865","406865","1630","1630","394122","637072","1627","568772","635610","634721","634721","NA","883","study_X","0","13652","1","yes","1680"
"undefined","undefined","13652","13652","black","no","legacy","legacy","legacy","0","red","(179, 0, 0)","color","present","lowProb5","circular","same","swap","same","swap","green","(0, 122, 0)","lowProb","lowProb4","circular","uniform","1","undefined","0.119791666667","1","1","173.3125","1","23","33276","0","0","0","0","0","0","0","0","49","0","1","0.119791666667","173.3125","23","33276","49","49","49","08/10/17 15:22:00","Default description","yes","<openexp._canvas.legacy.legacy object at 0x047C27F0>","<openexp._canvas.legacy.legacy object at 0x047CE7B0>","<openexp._canvas.legacy.legacy object at 0x047BA510>","<openexp._canvas.legacy.legacy object at 0x048B09D0>","<openexp._canvas.legacy.legacy object at 0x048814B0>","<openexp._canvas.legacy.legacy object at 0x047D1910>","<openexp._canvas.legacy.legacy object at 0x04882A50>","75","IndividualPriorityWithDis_v1.osexp","C:/Userdata/Michel/SpatialProb/IndividualPriorityMaps/Experiment2","no","mono","no","18","no","white","no","yes","0.09","98","1050","legacy","315","24","24","1","C:/Userdata/Michel/SpatialProb/IndividualPriorityMaps/Experiment2/data/subject-3.csv","legacy","9","192","25","Jazzy James","3.1.3","yes","598477b2b83f69022949e7e9","47","red","circular","green","circular","0","/","1795","space","13652","13652","(80, 80, 80)","(0, 122, 0)","(179, 0, 0)","(155, 155, 155)","2","legacy","experiment","[2, 3, 4, 5, 6, 7, 0, 1]","/","2500","3000","0","8","252.758751519","1024","2","48000","-16","main","[(0, -252), (178, -178), (252, 0), (178, 178), (0, 252), (-178, 178), (-252, 0), (-178, -178)]","[]","3","odd","7","487293","568772","568772","380469","379462","1630","406865","406865","1630","1630","394122","640193","1627","568772","638394","637505","637505","NA","883","study_X","0","13652","1","yes","1680"
"undefined","undefined","13652","13652","black","no","legacy","legacy","legacy","0","green","(0, 122, 0)","shape","present","highProb","circular","swap","same","same","swap","green","(0, 122, 0)","lowProb","lowProb4","rectangular","uniform","1","undefined","0.125","1","1","182.536458333","1","24","35047","0","0","0","0","0","0","0","0","50","0","1","0.125","182.536458333","24","35047","50","50","50","08/10/17 15:22:00","Default description","yes","<openexp._canvas.legacy.legacy object at 0x047C27F0>","<openexp._canvas.legacy.legacy object at 0x047CE7B0>","<openexp._canvas.legacy.legacy object at 0x047BA510>","<openexp._canvas.legacy.legacy object at 0x048B09D0>","<openexp._canvas.legacy.legacy object at 0x048814B0>","<openexp._canvas.legacy.legacy object at 0x047BE050>","<openexp._canvas.legacy.legacy object at 0x04882A50>","75","IndividualPriorityWithDis_v1.osexp","C:/Userdata/Michel/SpatialProb/IndividualPriorityMaps/Experiment2","no","mono","no","18","no","white","no","yes","0.09","98","1050","legacy","45","25","25","1","C:/Userdata/Michel/SpatialProb/IndividualPriorityMaps/Experiment2/data/subject-3.csv","legacy","9","192","25","Jazzy James","3.1.3","yes","598477b2b83f69022949e7e9","47","green","circular","green","rectangular","0","\","1771","space","13652","13652","(80, 80, 80)","(0, 122, 0)","(179, 0, 0)","(155, 155, 155)","2","legacy","experiment","[2, 3, 4, 5, 6, 7, 0, 1]","\","2500","3000","0","8","252.758751519","1024","2","48000","-16","main","[(0, -252), (178, -178), (252, 0), (178, 178), (0, 252), (-178, 178), (-252, 0), (-178, -178)]","[]","3","odd","7","487293","568772","568772","380469","379462","1630","406865","406865","1630","1630","394122","643281","1627","568772","641506","640618","640618","NA","883","study_X","0","13652","1","yes","1680"
"undefined","undefined","13652","13652","black","no","legacy","legacy","legacy","0","green","(0, 122, 0)","color","present","lowProb4","rectangular","same","swap","swap","same","red","(179, 0, 0)","highProbColor","highProbColor","rectangular","uniform","0","undefined","0.125","1","1","195.557291667","1","24","37547","0","0","0","0","0","0","0","0","51","0","1","0.125","195.557291667","24","37547","51","51","51","08/10/17 15:22:00","Default description","yes","<openexp._canvas.legacy.legacy object at 0x047C27F0>","<openexp._canvas.legacy.legacy object at 0x047CE7B0>","<openexp._canvas.legacy.legacy object at 0x047BA510>","<openexp._canvas.legacy.legacy object at 0x048B09D0>","<openexp._canvas.legacy.legacy object at 0x048814B0>","<openexp._canvas.legacy.legacy object at 0x047BA030>","<openexp._canvas.legacy.legacy object at 0x04882A50>","75","IndividualPriorityWithDis_v1.osexp","C:/Userdata/Michel/SpatialProb/IndividualPriorityMaps/Experiment2","no","mono","no","18","no","white","no","yes","0.09","98","1050","legacy","315","26","26","1","C:/Userdata/Michel/SpatialProb/IndividualPriorityMaps/Experiment2/data/subject-3.csv","legacy","9","192","25","Jazzy James","3.1.3","yes","598477b2b83f69022949e7e9","47","green","rectangular","red","rectangular","0","None","2500","space","13652","13652","(80, 80, 80)","(0, 122, 0)","(179, 0, 0)","(155, 155, 155)","2","legacy","experiment","[2, 3, 4, 5, 6, 7, 0, 1]","/","2500","3000","0","8","252.758751519","1024","2","48000","-16","main","[(0, -252), (178, -178), (252, 0), (178, 178), (0, 252), (-178, 178), (-252, 0), (-178, -178)]","[]","3","odd","2","487293","568772","568772","380469","379462","1630","406865","406865","1630","1630","394122","647107","1627","568772","644604","643715","643715","NA","883","study_X","0","13652","1","yes","1680"
"undefined","undefined","13652","13652","black","no","legacy","legacy","legacy","0","red","(179, 0, 0)","color","present","lowProb2","rectangular","swap","same","swap","same","green","(0, 122, 0)","lowProb","lowProb6","rectangular","uniform","1","undefined","0.130208333333","1","1","204.796875","1","25","39321","0","0","0","0","0","0","0","0","52","0","1","0.130208333333","204.796875","25","39321","52","52","52","08/10/17 15:22:00","Default description","yes","<openexp._canvas.legacy.legacy object at 0x047C27F0>","<openexp._canvas.legacy.legacy object at 0x047CE7B0>","<openexp._canvas.legacy.legacy object at 0x047BA510>","<openexp._canvas.legacy.legacy object at 0x048B09D0>","<openexp._canvas.legacy.legacy object at 0x048814B0>","<openexp._canvas.legacy.legacy object at 0x047BE0B0>","<openexp._canvas.legacy.legacy object at 0x04882A50>","75","IndividualPriorityWithDis_v1.osexp","C:/Userdata/Michel/SpatialProb/IndividualPriorityMaps/Experiment2","no","mono","no","18","no","white","no","yes","0.09","98","1050","legacy","45","27","27","1","C:/Userdata/Michel/SpatialProb/IndividualPriorityMaps/Experiment2/data/subject-3.csv","legacy","9","192","25","Jazzy James","3.1.3","yes","598477b2b83f69022949e7e9","47","red","rectangular","green","rectangular","0","\","1774","space","13652","13652","(80, 80, 80)","(0, 122, 0)","(179, 0, 0)","(155, 155, 155)","2","legacy","experiment","[2, 3, 4, 5, 6, 7, 0, 1]","\","2500","3000","0","8","252.758751519","1024","2","48000","-16","main","[(0, -252), (178, -178), (252, 0), (178, 178), (0, 252), (-178, 178), (-252, 0), (-178, -178)]","[]","3","odd","1","487293","568772","568772","380469","379462","1630","406865","406865","1630","1630","394122","650200","1627","568772","648423","647534","647534","NA","883","study_X","0","13652","1","yes","1680"
"undefined","undefined","13652","13652","black","no","legacy","legacy","legacy","0","red","(179, 0, 0)","color","present","highProb","rectangular","same","same","same","same","green","(0, 122, 0)","lowProb","lowProb2","rectangular","uniform","1","undefined","0.135416666667","1","1","211.947916667","1","26","40694","0","0","0","0","0","0","0","0","53","0","1","0.135416666667","211.947916667","26","40694","53","53","53","08/10/17 15:22:00","Default description","yes","<openexp._canvas.legacy.legacy object at 0x047C27F0>","<openexp._canvas.legacy.legacy object at 0x047CE7B0>","<openexp._canvas.legacy.legacy object at 0x047BA510>","<openexp._canvas.legacy.legacy object at 0x048B09D0>","<openexp._canvas.legacy.legacy object at 0x048814B0>","<openexp._canvas.legacy.legacy object at 0x047BAF10>","<openexp._canvas.legacy.legacy object at 0x04882A50>","75","IndividualPriorityWithDis_v1.osexp","C:/Userdata/Michel/SpatialProb/IndividualPriorityMaps/Experiment2","no","mono","no","18","no","white","no","yes","0.09","98","1050","legacy","45","28","28","1","C:/Userdata/Michel/SpatialProb/IndividualPriorityMaps/Experiment2/data/subject-3.csv","legacy","9","192","25","Jazzy James","3.1.3","yes","598477b2b83f69022949e7e9","47","red","rectangular","green","rectangular","0","\","1373","space","13652","13652","(80, 80, 80)","(0, 122, 0)","(179, 0, 0)","(155, 155, 155)","2","legacy","experiment","[2, 3, 4, 5, 6, 7, 0, 1]","\","2500","3000","0","8","252.758751519","1024","2","48000","-16","main","[(0, -252), (178, -178), (252, 0), (178, 178), (0, 252), (-178, 178), (-252, 0), (-178, -178)]","[]","3","odd","4","487293","568772","568772","380469","379462","1630","406865","406865","1630","1630","394122","652904","1627","568772","651529","650640","650640","NA","883","study_X","0","13652","1","yes","1680"
"undefined","undefined","13652","13652","black","no","legacy","legacy","legacy","0","red","(179, 0, 0)","shape","present","highProb","circular","same","swap","swap","same","red","(179, 0, 0)","lowProb","lowProb3","rectangular","uniform","1","undefined","0.140625","1","1","217.046875","1","27","41673","0","0","0","0","0","0","0","0","54","0","1","0.140625","217.046875","27","41673","54","54","54","08/10/17 15:22:00","Default description","yes","<openexp._canvas.legacy.legacy object at 0x047C27F0>","<openexp._canvas.legacy.legacy object at 0x047CE7B0>","<openexp._canvas.legacy.legacy object at 0x047BA510>","<openexp._canvas.legacy.legacy object at 0x048B09D0>","<openexp._canvas.legacy.legacy object at 0x048814B0>","<openexp._canvas.legacy.legacy object at 0x048B1850>","<openexp._canvas.legacy.legacy object at 0x04882A50>","75","IndividualPriorityWithDis_v1.osexp","C:/Userdata/Michel/SpatialProb/IndividualPriorityMaps/Experiment2","no","mono","no","18","no","white","no","yes","0.09","98","1050","legacy","315","29","29","1","C:/Userdata/Michel/SpatialProb/IndividualPriorityMaps/Experiment2/data/subject-3.csv","legacy","9","192","25","Jazzy James","3.1.3","yes","598477b2b83f69022949e7e9","47","red","circular","red","rectangular","0","/","979","space","13652","13652","(80, 80, 80)","(0, 122, 0)","(179, 0, 0)","(155, 155, 155)","2","legacy","experiment","[2, 3, 4, 5, 6, 7, 0, 1]","/","2500","3000","0","8","252.758751519","1024","2","48000","-16","main","[(0, -252), (178, -178), (252, 0), (178, 178), (0, 252), (-178, 178), (-252, 0), (-178, -178)]","[]","3","odd","5","487293","568772","568772","380469","379462","1630","406865","406865","1630","1630","394122","655192","1627","568772","654209","653320","653320","NA","883","study_X","0","13652","1","yes","1680"
"undefined","undefined","13652","13652","black","no","legacy","legacy","legacy","0","red","(179, 0, 0)","shape","present","highProb","rectangular","same","swap","same","swap","red","(179, 0, 0)","lowProb","lowProb4","circular","uniform","1","undefined","0.145833333333","1","1","221.5","1","28","42528","0","0","0","0","0","0","0","0","55","0","1","0.145833333333","221.5","28","42528","55","55","55","08/10/17 15:22:00","Default description","yes","<openexp._canvas.legacy.legacy object at 0x047C27F0>","<openexp._canvas.legacy.legacy object at 0x047CE7B0>","<openexp._canvas.legacy.legacy object at 0x047BA510>","<openexp._canvas.legacy.legacy object at 0x048B09D0>","<openexp._canvas.legacy.legacy object at 0x048814B0>","<openexp._canvas.legacy.legacy object at 0x047BE150>","<openexp._canvas.legacy.legacy object at 0x04882A50>","75","IndividualPriorityWithDis_v1.osexp","C:/Userdata/Michel/SpatialProb/IndividualPriorityMaps/Experiment2","no","mono","no","18","no","white","no","yes","0.09","98","1050","legacy","45","30","30","1","C:/Userdata/Michel/SpatialProb/IndividualPriorityMaps/Experiment2/data/subject-3.csv","legacy","9","192","25","Jazzy James","3.1.3","yes","598477b2b83f69022949e7e9","47","red","rectangular","red","circular","0","\","855","space","13652","13652","(80, 80, 80)","(0, 122, 0)","(179, 0, 0)","(155, 155, 155)","2","legacy","experiment","[2, 3, 4, 5, 6, 7, 0, 1]","\","2500","3000","0","8","252.758751519","1024","2","48000","-16","main","[(0, -252), (178, -178), (252, 0), (178, 178), (0, 252), (-178, 178), (-252, 0), (-178, -178)]","[]","3","odd","7","487293","568772","568772","380469","379462","1630","406865","406865","1630","1630","394122","657377","1627","568772","656518","655629","655629","NA","883","study_X","0","13652","1","yes","1680"
"undefined","undefined","13652","13652","black","no","legacy","legacy","legacy","0","red","(179, 0, 0)","shape","present","highProb","rectangular","same","same","same","same","red","(179, 0, 0)","lowProb","lowProb3","circular","uniform","1","undefined","0.151041666667","1","1","228.859375","1","29","43941","0","0","0","0","0","0","0","0","56","0","1","0.151041666667","228.859375","29","43941","56","56","56","08/10/17 15:22:00","Default description","yes","<openexp._canvas.legacy.legacy object at 0x047C27F0>","<openexp._canvas.legacy.legacy object at 0x047CE7B0>","<openexp._canvas.legacy.legacy object at 0x047BA510>","<openexp._canvas.legacy.legacy object at 0x048B09D0>","<openexp._canvas.legacy.legacy object at 0x048814B0>","<openexp._canvas.legacy.legacy object at 0x047BF510>","<openexp._canvas.legacy.legacy object at 0x04882A50>","75","IndividualPriorityWithDis_v1.osexp","C:/Userdata/Michel/SpatialProb/IndividualPriorityMaps/Experiment2","no","mono","no","18","no","white","no","yes","0.09","98","1050","legacy","315","31","31","1","C:/Userdata/Michel/SpatialProb/IndividualPriorityMaps/Experiment2/data/subject-3.csv","legacy","9","192","25","Jazzy James","3.1.3","yes","598477b2b83f69022949e7e9","47","red","rectangular","red","circular","0","/","1413","space","13652","13652","(80, 80, 80)","(0, 122, 0)","(179, 0, 0)","(155, 155, 155)","2","legacy","experiment","[2, 3, 4, 5, 6, 7, 0, 1]","/","2500","3000","0","8","252.758751519","1024","2","48000","-16","main","[(0, -252), (178, -178), (252, 0), (178, 178), (0, 252), (-178, 178), (-252, 0), (-178, -178)]","[]","3","odd","5","487293","568772","568772","380469","379462","1630","406865","406865","1630","1630","394122","660113","1627","568772","658697","657808","657808","NA","883","study_X","0","13652","1","yes","1680"
"undefined","undefined","13652","13652","black","no","legacy","legacy","legacy","0","red","(179, 0, 0)","color","present","highProb","circular","same","swap","swap","same","green","(0, 122, 0)","lowProb","lowProb1","circular","uniform","1","undefined","0.15625","1","1","239.963541667","1","30","46073","0","0","0","0","0","0","0","0","57","0","1","0.15625","239.963541667","30","46073","57","57","57","08/10/17 15:22:00","Default description","yes","<openexp._canvas.legacy.legacy object at 0x047C27F0>","<openexp._canvas.legacy.legacy object at 0x047CE7B0>","<openexp._canvas.legacy.legacy object at 0x047BA510>","<openexp._canvas.legacy.legacy object at 0x048B09D0>","<openexp._canvas.legacy.legacy object at 0x048814B0>","<openexp._canvas.legacy.legacy object at 0x048B02B0>","<openexp._canvas.legacy.legacy object at 0x04882A50>","75","IndividualPriorityWithDis_v1.osexp","C:/Userdata/Michel/SpatialProb/IndividualPriorityMaps/Experiment2","no","mono","no","18","no","white","no","yes","0.09","98","1050","legacy","45","32","32","1","C:/Userdata/Michel/SpatialProb/IndividualPriorityMaps/Experiment2/data/subject-3.csv","legacy","9","192","25","Jazzy James","3.1.3","yes","598477b2b83f69022949e7e9","47","red","circular","green","circular","0","\","2132","space","13652","13652","(80, 80, 80)","(0, 122, 0)","(179, 0, 0)","(155, 155, 155)","2","legacy","experiment","[2, 3, 4, 5, 6, 7, 0, 1]","\","2500","3000","0","8","252.758751519","1024","2","48000","-16","main","[(0, -252), (178, -178), (252, 0), (178, 178), (0, 252), (-178, 178), (-252, 0), (-178, -178)]","[]","3","odd","3","487293","568772","568772","380469","379462","1630","406865","406865","1630","1630","394122","663568","1627","568772","661433","660545","660545","NA","883","study_X","0","13652","1","yes","1680"
"undefined","undefined","13652","13652","black","no","legacy","legacy","legacy","0","green","(0, 122, 0)","color","present","highProbOther","rectangular","swap","swap","swap","swap","red","(179, 0, 0)","lowProb","lowProb3","rectangular","uniform","1","undefined","0.161458333333","1","1","245.729166667","1","31","47180","0","0","0","0","0","0","0","0","58","0","1","0.161458333333","245.729166667","31","47180","58","58","58","08/10/17 15:22:00","Default description","yes","<openexp._canvas.legacy.legacy object at 0x047C27F0>","<openexp._canvas.legacy.legacy object at 0x047CE7B0>","<openexp._canvas.legacy.legacy object at 0x047BA510>","<openexp._canvas.legacy.legacy object at 0x048B09D0>","<openexp._canvas.legacy.legacy object at 0x048814B0>","<openexp._canvas.legacy.legacy object at 0x047BF110>","<openexp._canvas.legacy.legacy object at 0x04882A50>","75","IndividualPriorityWithDis_v1.osexp","C:/Userdata/Michel/SpatialProb/IndividualPriorityMaps/Experiment2","no","mono","no","18","no","white","no","yes","0.09","98","1050","legacy","45","33","33","1","C:/Userdata/Michel/SpatialProb/IndividualPriorityMaps/Experiment2/data/subject-3.csv","legacy","9","192","25","Jazzy James","3.1.3","yes","598477b2b83f69022949e7e9","47","green","rectangular","red","rectangular","0","\","1107","space","13652","13652","(80, 80, 80)","(0, 122, 0)","(179, 0, 0)","(155, 155, 155)","2","legacy","experiment","[2, 3, 4, 5, 6, 7, 0, 1]","\","2500","3000","0","8","252.758751519","1024","2","48000","-16","main","[(0, -252), (178, -178), (252, 0), (178, 178), (0, 252), (-178, 178), (-252, 0), (-178, -178)]","[]","3","odd","5","487293","568772","568772","380469","379462","1630","406865","406865","1630","1630","394122","665992","1627","568772","664882","663993","663993","NA","883","study_X","0","13652","1","yes","1680"
"undefined","undefined","13652","13652","black","no","legacy","legacy","legacy","0","green","(0, 122, 0)","shape","absent","highProb","rectangular","same","same","swap","same","green","(0, 122, 0)","lowProb","lowProb5","rectangular","uniform","1","undefined","0.166666666667","1","1","253.807291667","1","32","48731","0","0","0","0","0","0","0","0","59","0","1","0.166666666667","253.807291667","32","48731","59","59","59","08/10/17 15:22:00","Default description","yes","<openexp._canvas.legacy.legacy object at 0x047C27F0>","<openexp._canvas.legacy.legacy object at 0x047CE7B0>","<openexp._canvas.legacy.legacy object at 0x047BA510>","<openexp._canvas.legacy.legacy object at 0x048B09D0>","<openexp._canvas.legacy.legacy object at 0x048814B0>","<openexp._canvas.legacy.legacy object at 0x047C2AB0>","<openexp._canvas.legacy.legacy object at 0x04882A50>","75","IndividualPriorityWithDis_v1.osexp","C:/Userdata/Michel/SpatialProb/IndividualPriorityMaps/Experiment2","no","mono","no","18","no","white","no","yes","0.09","98","1050","legacy","45","34","34","1","C:/Userdata/Michel/SpatialProb/IndividualPriorityMaps/Experiment2/data/subject-3.csv","legacy","9","192","25","Jazzy James","3.1.3","yes","598477b2b83f69022949e7e9","47","green","rectangular","green","rectangular","0","\","1551","space","13652","13652","(80, 80, 80)","(0, 122, 0)","(179, 0, 0)","(155, 155, 155)","2","legacy","experiment","[2, 3, 4, 5, 6, 7, 0, 1]","\","2500","3000","0","8","252.758751519","1024","2","48000","-16","main","[(0, -252), (178, -178), (252, 0), (178, 178), (0, 252), (-178, 178), (-252, 0), (-178, -178)]","[]","3","odd","0","487293","568772","568772","380469","379462","1630","406865","406865","1630","1630","394122","668864","1627","568772","667310","666421","666421","NA","883","study_X","0","13652","1","yes","1680"
"undefined","undefined","13652","13652","black","no","legacy","legacy","legacy","0","green","(0, 122, 0)","shape","present","highProb","circular","same","swap","same","same","green","(0, 122, 0)","lowProb","lowProb2","rectangular","uniform","1","undefined","0.171875","1","1","259.901041667","1","33","49901","0","0","0","0","0","0","0","0","60","0","1","0.171875","259.901041667","33","49901","60","60","60","08/10/17 15:22:00","Default description","yes","<openexp._canvas.legacy.legacy object at 0x047C27F0>","<openexp._canvas.legacy.legacy object at 0x047CE7B0>","<openexp._canvas.legacy.legacy object at 0x047BA510>","<openexp._canvas.legacy.legacy object at 0x048B09D0>","<openexp._canvas.legacy.legacy object at 0x048814B0>","<openexp._canvas.legacy.legacy object at 0x048B12F0>","<openexp._canvas.legacy.legacy object at 0x04882A50>","75","IndividualPriorityWithDis_v1.osexp","C:/Userdata/Michel/SpatialProb/IndividualPriorityMaps/Experiment2","no","mono","no","18","no","white","no","yes","0.09","98","1050","legacy","315","35","35","1","C:/Userdata/Michel/SpatialProb/IndividualPriorityMaps/Experiment2/data/subject-3.csv","legacy","9","192","25","Jazzy James","3.1.3","yes","598477b2b83f69022949e7e9","47","green","circular","green","rectangular","0","/","1170","space","13652","13652","(80, 80, 80)","(0, 122, 0)","(179, 0, 0)","(155, 155, 155)","2","legacy","experiment","[2, 3, 4, 5, 6, 7, 0, 1]","/","2500","3000","0","8","252.758751519","1024","2","48000","-16","main","[(0, -252), (178, -178), (252, 0), (178, 178), (0, 252), (-178, 178), (-252, 0), (-178, -178)]","[]","3","odd","4","487293","568772","568772","380469","379462","1630","406865","406865","1630","1630","394122","671368","1627","568772","670194","669305","669306","NA","883","study_X","0","13652","1","yes","1680"
"undefined","undefined","13652","13652","black","no","legacy","legacy","legacy","0","green","(0, 122, 0)","color","present","highProb","rectangular","same","swap","swap","same","red","(179, 0, 0)","lowProb","lowProb5","rectangular","uniform","1","undefined","0.177083333333","1","1","265.510416667","1","34","50978","0","0","0","0","0","0","0","0","61","0","1","0.177083333333","265.510416667","34","50978","61","61","61","08/10/17 15:22:00","Default description","yes","<openexp._canvas.legacy.legacy object at 0x047C27F0>","<openexp._canvas.legacy.legacy object at 0x047CE7B0>","<openexp._canvas.legacy.legacy object at 0x047BA510>","<openexp._canvas.legacy.legacy object at 0x048B09D0>","<openexp._canvas.legacy.legacy object at 0x048814B0>","<openexp._canvas.legacy.legacy object at 0x048ABF10>","<openexp._canvas.legacy.legacy object at 0x04882A50>","75","IndividualPriorityWithDis_v1.osexp","C:/Userdata/Michel/SpatialProb/IndividualPriorityMaps/Experiment2","no","mono","no","18","no","white","no","yes","0.09","98","1050","legacy","45","36","36","1","C:/Userdata/Michel/SpatialProb/IndividualPriorityMaps/Experiment2/data/subject-3.csv","legacy","9","192","25","Jazzy James","3.1.3","yes","598477b2b83f69022949e7e9","47","green","rectangular","red","rectangular","0","\","1077","space","13652","13652","(80, 80, 80)","(0, 122, 0)","(179, 0, 0)","(155, 155, 155)","2","legacy","experiment","[2, 3, 4, 5, 6, 7, 0, 1]","\","2500","3000","0","8","252.758751519","1024","2","48000","-16","main","[(0, -252), (178, -178), (252, 0), (178, 178), (0, 252), (-178, 178), (-252, 0), (-178, -178)]","[]","3","odd","0","487293","568772","568772","380469","379462","1630","406865","406865","1630","1630","394122","673752","1627","568772","672671","671782","671782","NA","883","study_X","0","13652","1","yes","1680"
"undefined","undefined","13652","13652","black","no","legacy","legacy","legacy","0","green","(0, 122, 0)","shape","present","highProb","rectangular","same","same","swap","swap","green","(0, 122, 0)","lowProb","lowProb5","circular","uniform","1","undefined","0.182291666667","1","1","268.947916667","1","35","51638","0","0","0","0","0","0","0","0","62","0","1","0.182291666667","268.947916667","35","51638","62","62","62","08/10/17 15:22:00","Default description","yes","<openexp._canvas.legacy.legacy object at 0x047C27F0>","<openexp._canvas.legacy.legacy object at 0x047CE7B0>","<openexp._canvas.legacy.legacy object at 0x047BA510>","<openexp._canvas.legacy.legacy object at 0x048B09D0>","<openexp._canvas.legacy.legacy object at 0x048814B0>","<openexp._canvas.legacy.legacy object at 0x047BE1D0>","<openexp._canvas.legacy.legacy object at 0x04882A50>","75","IndividualPriorityWithDis_v1.osexp","C:/Userdata/Michel/SpatialProb/IndividualPriorityMaps/Experiment2","no","mono","no","18","no","white","no","yes","0.09","98","1050","legacy","45","37","37","1","C:/Userdata/Michel/SpatialProb/IndividualPriorityMaps/Experiment2/data/subject-3.csv","legacy","9","192","25","Jazzy James","3.1.3","yes","598477b2b83f69022949e7e9","47","green","rectangular","green","circular","0","\","660","space","13652","13652","(80, 80, 80)","(0, 122, 0)","(179, 0, 0)","(155, 155, 155)","2","legacy","experiment","[2, 3, 4, 5, 6, 7, 0, 1]","\","2500","3000","0","8","252.758751519","1024","2","48000","-16","main","[(0, -252), (178, -178), (252, 0), (178, 178), (0, 252), (-178, 178), (-252, 0), (-178, -178)]","[]","3","odd","0","487293","568772","568772","380469","379462","1630","406865","406865","1630","1630","394122","675737","1627","568772","675073","674184","674184","NA","883","study_X","0","13652","1","yes","1680"
"undefined","undefined","13652","13652","black","no","legacy","legacy","legacy","0","red","(179, 0, 0)","shape","present","highProb","rectangular","swap","same","swap","same","red","(179, 0, 0)","lowProb","lowProb2","circular","uniform","1","undefined","0.1875","1","1","274.635416667","1","36","52730","0","0","0","0","0","0","0","0","63","0","1","0.1875","274.635416667","36","52730","63","63","63","08/10/17 15:22:00","Default description","yes","<openexp._canvas.legacy.legacy object at 0x047C27F0>","<openexp._canvas.legacy.legacy object at 0x047CE7B0>","<openexp._canvas.legacy.legacy object at 0x047BA510>","<openexp._canvas.legacy.legacy object at 0x048B09D0>","<openexp._canvas.legacy.legacy object at 0x048814B0>","<openexp._canvas.legacy.legacy object at 0x047C24D0>","<openexp._canvas.legacy.legacy object at 0x04882A50>","75","IndividualPriorityWithDis_v1.osexp","C:/Userdata/Michel/SpatialProb/IndividualPriorityMaps/Experiment2","no","mono","no","18","no","white","no","yes","0.09","98","1050","legacy","315","38","38","1","C:/Userdata/Michel/SpatialProb/IndividualPriorityMaps/Experiment2/data/subject-3.csv","legacy","9","192","25","Jazzy James","3.1.3","yes","598477b2b83f69022949e7e9","47","red","rectangular","red","circular","0","/","1092","space","13652","13652","(80, 80, 80)","(0, 122, 0)","(179, 0, 0)","(155, 155, 155)","2","legacy","experiment","[2, 3, 4, 5, 6, 7, 0, 1]","/","2500","3000","0","8","252.758751519","1024","2","48000","-16","main","[(0, -252), (178, -178), (252, 0), (178, 178), (0, 252), (-178, 178), (-252, 0), (-178, -178)]","[]","3","odd","4","487293","568772","568772","380469","379462","1630","406865","406865","1630","1630","394122","678152","1627","568772","677058","676170","676170","NA","883","study_X","0","13652","1","yes","1680"
"undefined","undefined","13652","13652","black","no","legacy","legacy","legacy","0","red","(179, 0, 0)","shape","present","highProb","circular","same","swap","same","swap","red","(179, 0, 0)","lowProb","lowProb6","rectangular","uniform","1","undefined","0.192708333333","1","1","278.46875","1","37","53466","0","0","0","0","0","0","0","0","64","0","1","0.192708333333","278.46875","37","53466","64","64","64","08/10/17 15:22:00","Default description","yes","<openexp._canvas.legacy.legacy object at 0x047C27F0>","<openexp._canvas.legacy.legacy object at 0x047CE7B0>","<openexp._canvas.legacy.legacy object at 0x047BA510>","<openexp._canvas.legacy.legacy object at 0x048B09D0>","<openexp._canvas.legacy.legacy object at 0x048814B0>","<openexp._canvas.legacy.legacy object at 0x047BE230>","<openexp._canvas.legacy.legacy object at 0x04882A50>","75","IndividualPriorityWithDis_v1.osexp","C:/Userdata/Michel/SpatialProb/IndividualPriorityMaps/Experiment2","no","mono","no","18","no","white","no","yes","0.09","98","1050","legacy","315","39","39","1","C:/Userdata/Michel/SpatialProb/IndividualPriorityMaps/Experiment2/data/subject-3.csv","legacy","9","192","25","Jazzy James","3.1.3","yes","598477b2b83f69022949e7e9","47","red","circular","red","rectangular","0","/","736","space","13652","13652","(80, 80, 80)","(0, 122, 0)","(179, 0, 0)","(155, 155, 155)","2","legacy","experiment","[2, 3, 4, 5, 6, 7, 0, 1]","/","2500","3000","0","8","252.758751519","1024","2","48000","-16","main","[(0, -252), (178, -178), (252, 0), (178, 178), (0, 252), (-178, 178), (-252, 0), (-178, -178)]","[]","3","odd","1","487293","568772","568772","380469","379462","1630","406865","406865","1630","1630","394122","680200","1627","568772","679461","678573","678573","NA","883","study_X","0","13652","1","yes","1680"
"undefined","undefined","13652","13652","black","no","legacy","legacy","legacy","0","green","(0, 122, 0)","shape","present","highProb","circular","swap","same","swap","same","green","(0, 122, 0)","lowProb","lowProb3","rectangular","uniform","1","undefined","0.197916666667","1","1","284.234375","1","38","54573","0","0","0","0","0","0","0","0","65","0","1","0.197916666667","284.234375","38","54573","65","65","65","08/10/17 15:22:00","Default description","yes","<openexp._canvas.legacy.legacy object at 0x047C27F0>","<openexp._canvas.legacy.legacy object at 0x047CE7B0>","<openexp._canvas.legacy.legacy object at 0x047BA510>","<openexp._canvas.legacy.legacy object at 0x048B09D0>","<openexp._canvas.legacy.legacy object at 0x048814B0>","<openexp._canvas.legacy.legacy object at 0x047CE1D0>","<openexp._canvas.legacy.legacy object at 0x04882A50>","75","IndividualPriorityWithDis_v1.osexp","C:/Userdata/Michel/SpatialProb/IndividualPriorityMaps/Experiment2","no","mono","no","18","no","white","no","yes","0.09","98","1050","legacy","315","40","40","1","C:/Userdata/Michel/SpatialProb/IndividualPriorityMaps/Experiment2/data/subject-3.csv","legacy","9","192","25","Jazzy James","3.1.3","yes","598477b2b83f69022949e7e9","47","green","circular","green","rectangular","0","/","1107","space","13652","13652","(80, 80, 80)","(0, 122, 0)","(179, 0, 0)","(155, 155, 155)","2","legacy","experiment","[2, 3, 4, 5, 6, 7, 0, 1]","/","2500","3000","0","8","252.758751519","1024","2","48000","-16","main","[(0, -252), (178, -178), (252, 0), (178, 178), (0, 252), (-178, 178), (-252, 0), (-178, -178)]","[]","3","odd","5","487293","568772","568772","380469","379462","1630","406865","406865","1630","1630","394122","682640","1627","568772","681530","680642","680642","NA","883","study_X","0","13652","1","yes","1680"
"undefined","undefined","13652","13652","black","no","legacy","legacy","legacy","0","red","(179, 0, 0)","shape","absent","highProb","circular","swap","same","swap","swap","red","(179, 0, 0)","lowProb","lowProb1","circular","uniform","1","undefined","0.203125","1","1","289.739583333","1","39","55630","0","0","0","0","0","0","0","0","66","0","1","0.203125","289.739583333","39","55630","66","66","66","08/10/17 15:22:00","Default description","yes","<openexp._canvas.legacy.legacy object at 0x047C27F0>","<openexp._canvas.legacy.legacy object at 0x047CE7B0>","<openexp._canvas.legacy.legacy object at 0x047BA510>","<openexp._canvas.legacy.legacy object at 0x048B09D0>","<openexp._canvas.legacy.legacy object at 0x048814B0>","<openexp._canvas.legacy.legacy object at 0x047D8E90>","<openexp._canvas.legacy.legacy object at 0x04882A50>","75","IndividualPriorityWithDis_v1.osexp","C:/Userdata/Michel/SpatialProb/IndividualPriorityMaps/Experiment2","no","mono","no","18","no","white","no","yes","0.09","98","1050","legacy","45","41","41","1","C:/Userdata/Michel/SpatialProb/IndividualPriorityMaps/Experiment2/data/subject-3.csv","legacy","9","192","25","Jazzy James","3.1.3","yes","598477b2b83f69022949e7e9","47","red","circular","red","circular","0","\","1057","space","13652","13652","(80, 80, 80)","(0, 122, 0)","(179, 0, 0)","(155, 155, 155)","2","legacy","experiment","[2, 3, 4, 5, 6, 7, 0, 1]","\","2500","3000","0","8","252.758751519","1024","2","48000","-16","main","[(0, -252), (178, -178), (252, 0), (178, 178), (0, 252), (-178, 178), (-252, 0), (-178, -178)]","[]","3","odd","3","487293","568772","568772","380469","379462","1630","406865","406865","1630","1630","394122","685016","1627","568772","683957","683069","683069","NA","883","study_X","0","13652","1","yes","1680"
"undefined","undefined","13652","13652","black","no","legacy","legacy","legacy","0","green","(0, 122, 0)","shape","present","highProb","circular","swap","same","swap","swap","green","(0, 122, 0)","lowProb","lowProb2","rectangular","uniform","1","undefined","0.208333333333","1","1","295.046875","1","40","56649","0","0","0","0","0","0","0","0","67","0","1","0.208333333333","295.046875","40","56649","67","67","67","08/10/17 15:22:00","Default description","yes","<openexp._canvas.legacy.legacy object at 0x047C27F0>","<openexp._canvas.legacy.legacy object at 0x047CE7B0>","<openexp._canvas.legacy.legacy object at 0x047BA510>","<openexp._canvas.legacy.legacy object at 0x048B09D0>","<openexp._canvas.legacy.legacy object at 0x048814B0>","<openexp._canvas.legacy.legacy object at 0x048B0E90>","<openexp._canvas.legacy.legacy object at 0x04882A50>","75","IndividualPriorityWithDis_v1.osexp","C:/Userdata/Michel/SpatialProb/IndividualPriorityMaps/Experiment2","no","mono","no","18","no","white","no","yes","0.09","98","1050","legacy","315","42","42","1","C:/Userdata/Michel/SpatialProb/IndividualPriorityMaps/Experiment2/data/subject-3.csv","legacy","9","192","25","Jazzy James","3.1.3","yes","598477b2b83f69022949e7e9","47","green","circular","green","rectangular","0","/","1019","space","13652","13652","(80, 80, 80)","(0, 122, 0)","(179, 0, 0)","(155, 155, 155)","2","legacy","experiment","[2, 3, 4, 5, 6, 7, 0, 1]","/","2500","3000","0","8","252.758751519","1024","2","48000","-16","main","[(0, -252), (178, -178), (252, 0), (178, 178), (0, 252), (-178, 178), (-252, 0), (-178, -178)]","[]","3","odd","4","487293","568772","568772","380469","379462","1630","406865","406865","1630","1630","394122","687352","1627","568772","686329","685440","685440","NA","883","study_X","0","13652","1","yes","1680"
"undefined","undefined","13652","13652","black","no","legacy","legacy","legacy","0","green","(0, 122, 0)","color","present","highProb","rectangular","same","swap","swap","same","red","(179, 0, 0)","lowProb","lowProb6","rectangular","uniform","1","undefined","0.213541666667","1","1","304.114583333","1","41","58390","0","0","0","0","0","0","0","0","68","0","1","0.213541666667","304.114583333","41","58390","68","68","68","08/10/17 15:22:00","Default description","yes","<openexp._canvas.legacy.legacy object at 0x047C27F0>","<openexp._canvas.legacy.legacy object at 0x047CE7B0>","<openexp._canvas.legacy.legacy object at 0x047BA510>","<openexp._canvas.legacy.legacy object at 0x048B09D0>","<openexp._canvas.legacy.legacy object at 0x048814B0>","<openexp._canvas.legacy.legacy object at 0x047BE5B0>","<openexp._canvas.legacy.legacy object at 0x04882A50>","75","IndividualPriorityWithDis_v1.osexp","C:/Userdata/Michel/SpatialProb/IndividualPriorityMaps/Experiment2","no","mono","no","18","no","white","no","yes","0.09","98","1050","legacy","45","43","43","1","C:/Userdata/Michel/SpatialProb/IndividualPriorityMaps/Experiment2/data/subject-3.csv","legacy","9","192","25","Jazzy James","3.1.3","yes","598477b2b83f69022949e7e9","47","green","rectangular","red","rectangular","0","\","1741","space","13652","13652","(80, 80, 80)","(0, 122, 0)","(179, 0, 0)","(155, 155, 155)","2","legacy","experiment","[2, 3, 4, 5, 6, 7, 0, 1]","\","2500","3000","0","8","252.758751519","1024","2","48000","-16","main","[(0, -252), (178, -178), (252, 0), (178, 178), (0, 252), (-178, 178), (-252, 0), (-178, -178)]","[]","3","odd","1","487293","568772","568772","380469","379462","1630","406865","406865","1630","1630","394122","690416","1627","568772","688671","687782","687782","NA","883","study_X","0","13652","1","yes","1680"
"undefined","undefined","13652","13652","black","no","legacy","legacy","legacy","0","green","(0, 122, 0)","shape","present","highProb","rectangular","same","same","swap","swap","green","(0, 122, 0)","highProbColor","highProbColor","circular","uniform","1","undefined","0.21875","1","1","308.869791667","1","42","59303","0","0","0","0","0","0","0","0","69","0","1","0.21875","308.869791667","42","59303","69","69","69","08/10/17 15:22:00","Default description","yes","<openexp._canvas.legacy.legacy object at 0x047C27F0>","<openexp._canvas.legacy.legacy object at 0x047CE7B0>","<openexp._canvas.legacy.legacy object at 0x047BA510>","<openexp._canvas.legacy.legacy object at 0x048B09D0>","<openexp._canvas.legacy.legacy object at 0x048814B0>","<openexp._canvas.legacy.legacy object at 0x047CE9B0>","<openexp._canvas.legacy.legacy object at 0x04882A50>","75","IndividualPriorityWithDis_v1.osexp","C:/Userdata/Michel/SpatialProb/IndividualPriorityMaps/Experiment2","no","mono","no","18","no","white","no","yes","0.09","98","1050","legacy","45","44","44","1","C:/Userdata/Michel/SpatialProb/IndividualPriorityMaps/Experiment2/data/subject-3.csv","legacy","9","192","25","Jazzy James","3.1.3","yes","598477b2b83f69022949e7e9","47","green","rectangular","green","circular","0","\","913","space","13652","13652","(80, 80, 80)","(0, 122, 0)","(179, 0, 0)","(155, 155, 155)","2","legacy","experiment","[2, 3, 4, 5, 6, 7, 0, 1]","\","2500","3000","0","8","252.758751519","1024","2","48000","-16","main","[(0, -252), (178, -178), (252, 0), (178, 178), (0, 252), (-178, 178), (-252, 0), (-178, -178)]","[]","3","odd","2","487293","568772","568772","380469","379462","1630","406865","406865","1630","1630","394122","692656","1627","568772","691740","690851","690851","NA","883","study_X","0","13652","1","yes","1680"
"undefined","undefined","13652","13652","black","no","legacy","legacy","legacy","0","red","(179, 0, 0)","shape","present","highProb","circular","swap","swap","swap","swap","red","(179, 0, 0)","lowProb","lowProb5","rectangular","uniform","1","undefined","0.223958333333","1","1","313.489583333","1","43","60190","0","0","0","0","0","0","0","0","70","0","1","0.223958333333","313.489583333","43","60190","70","70","70","08/10/17 15:22:00","Default description","yes","<openexp._canvas.legacy.legacy object at 0x047C27F0>","<openexp._canvas.legacy.legacy object at 0x047CE7B0>","<openexp._canvas.legacy.legacy object at 0x047BA510>","<openexp._canvas.legacy.legacy object at 0x048B09D0>","<openexp._canvas.legacy.legacy object at 0x048814B0>","<openexp._canvas.legacy.legacy object at 0x047CE930>","<openexp._canvas.legacy.legacy object at 0x04882A50>","75","IndividualPriorityWithDis_v1.osexp","C:/Userdata/Michel/SpatialProb/IndividualPriorityMaps/Experiment2","no","mono","no","18","no","white","no","yes","0.09","98","1050","legacy","315","45","45","1","C:/Userdata/Michel/SpatialProb/IndividualPriorityMaps/Experiment2/data/subject-3.csv","legacy","9","192","25","Jazzy James","3.1.3","yes","598477b2b83f69022949e7e9","47","red","circular","red","rectangular","0","/","887","space","13652","13652","(80, 80, 80)","(0, 122, 0)","(179, 0, 0)","(155, 155, 155)","2","legacy","experiment","[2, 3, 4, 5, 6, 7, 0, 1]","/","2500","3000","0","8","252.758751519","1024","2","48000","-16","main","[(0, -252), (178, -178), (252, 0), (178, 178), (0, 252), (-178, 178), (-252, 0), (-178, -178)]","[]","3","odd","0","487293","568772","568772","380469","379462","1630","406865","406865","1630","1630","394122","694856","1627","568772","693966","693077","693077","NA","883","study_X","0","13652","1","yes","1680"
"undefined","undefined","13652","13652","black","no","legacy","legacy","legacy","0","green","(0, 122, 0)","color","absent","lowProb2","rectangular","swap","swap","swap","same","green","(0, 122, 0)","lowProb","lowProb3","rectangular","uniform","1","undefined","0.229166666667","1","1","319.515625","1","44","61347","0","0","0","0","0","0","0","0","71","0","1","0.229166666667","319.515625","44","61347","71","71","71","08/10/17 15:22:00","Default description","yes","<openexp._canvas.legacy.legacy object at 0x047C27F0>","<openexp._canvas.legacy.legacy object at 0x047CE7B0>","<openexp._canvas.legacy.legacy object at 0x047BA510>","<openexp._canvas.legacy.legacy object at 0x048B09D0>","<openexp._canvas.legacy.legacy object at 0x048814B0>","<openexp._canvas.legacy.legacy object at 0x048B0330>","<openexp._canvas.legacy.legacy object at 0x04882A50>","75","IndividualPriorityWithDis_v1.osexp","C:/Userdata/Michel/SpatialProb/IndividualPriorityMaps/Experiment2","no","mono","no","18","no","white","no","yes","0.09","98","1050","legacy","315","46","46","1","C:/Userdata/Michel/SpatialProb/IndividualPriorityMaps/Experiment2/data/subject-3.csv","legacy","9","192","25","Jazzy James","3.1.3","yes","598477b2b83f69022949e7e9","47","green","rectangular","green","rectangular","0","/","1157","space","13652","13652","(80, 80, 80)","(0, 122, 0)","(179, 0, 0)","(155, 155, 155)","2","legacy","experiment","[2, 3, 4, 5, 6, 7, 0, 1]","/","2500","3000","0","8","252.758751519","1024","2","48000","-16","main","[(0, -252), (178, -178), (252, 0), (178, 178), (0, 252), (-178, 178), (-252, 0), (-178, -178)]","[]","3","odd","5","487293","568772","568772","380469","379462","1630","406865","406865","1630","1630","394122","697328","1627","568772","696169","695280","695280","NA","883","study_X","0","13652","1","yes","1680"
"undefined","undefined","13652","13652","black","no","legacy","legacy","legacy","0","green","(0, 122, 0)","shape","present","lowProb2","rectangular","same","same","same","swap","green","(0, 122, 0)","lowProb","lowProb3","circular","uniform","1","undefined","0.234375","1","1","324.817708333","1","45","62365","0","0","0","0","0","0","0","0","72","0","1","0.234375","324.817708333","45","62365","72","72","72","08/10/17 15:22:00","Default description","yes","<openexp._canvas.legacy.legacy object at 0x047C27F0>","<openexp._canvas.legacy.legacy object at 0x047CE7B0>","<openexp._canvas.legacy.legacy object at 0x047BA510>","<openexp._canvas.legacy.legacy object at 0x048B09D0>","<openexp._canvas.legacy.legacy object at 0x048814B0>","<openexp._canvas.legacy.legacy object at 0x048B1270>","<openexp._canvas.legacy.legacy object at 0x04882A50>","75","IndividualPriorityWithDis_v1.osexp","C:/Userdata/Michel/SpatialProb/IndividualPriorityMaps/Experiment2","no","mono","no","18","no","white","no","yes","0.09","98","1050","legacy","45","47","47","1","C:/Userdata/Michel/SpatialProb/IndividualPriorityMaps/Experiment2/data/subject-3.csv","legacy","9","192","25","Jazzy James","3.1.3","yes","598477b2b83f69022949e7e9","47","green","rectangular","green","circular","0","\","1018","space","13652","13652","(80, 80, 80)","(0, 122, 0)","(179, 0, 0)","(155, 155, 155)","2","legacy","experiment","[2, 3, 4, 5, 6, 7, 0, 1]","\","2500","3000","0","8","252.758751519","1024","2","48000","-16","main","[(0, -252), (178, -178), (252, 0), (178, 178), (0, 252), (-178, 178), (-252, 0), (-178, -178)]","[]","3","odd","5","487293","568772","568772","380469","379462","1630","406865","406865","1630","1630","394122","699688","1627","568772","698667","697778","697778","NA","883","study_X","0","13652","1","yes","1680"
"undefined","undefined","13652","13652","black","no","legacy","legacy","legacy","0","green","(0, 122, 0)","color","present","highProb","rectangular","same","same","swap","swap","red","(179, 0, 0)","lowProb","lowProb5","rectangular","uniform","1","undefined","0.239583333333","1","1","328.8125","1","46","63132","0","0","0","0","0","0","0","0","73","0","1","0.239583333333","328.8125","46","63132","73","73","73","08/10/17 15:22:00","Default description","yes","<openexp._canvas.legacy.legacy object at 0x047C27F0>","<openexp._canvas.legacy.legacy object at 0x047CE7B0>","<openexp._canvas.legacy.legacy object at 0x047BA510>","<openexp._canvas.legacy.legacy object at 0x048B09D0>","<openexp._canvas.legacy.legacy object at 0x048814B0>","<openexp._canvas.legacy.legacy object at 0x047CE910>","<openexp._canvas.legacy.legacy object at 0x04882A50>","75","IndividualPriorityWithDis_v1.osexp","C:/Userdata/Michel/SpatialProb/IndividualPriorityMaps/Experiment2","no","mono","no","18","no","white","no","yes","0.09","98","1050","legacy","315","48","48","1","C:/Userdata/Michel/SpatialProb/IndividualPriorityMaps/Experiment2/data/subject-3.csv","legacy","9","192","25","Jazzy James","3.1.3","yes","598477b2b83f69022949e7e9","47","green","rectangular","red","rectangular","0","/","767","space","13652","13652","(80, 80, 80)","(0, 122, 0)","(179, 0, 0)","(155, 155, 155)","2","legacy","experiment","[2, 3, 4, 5, 6, 7, 0, 1]","/","2500","3000","0","8","252.758751519","1024","2","48000","-16","main","[(0, -252), (178, -178), (252, 0), (178, 178), (0, 252), (-178, 178), (-252, 0), (-178, -178)]","[]","3","odd","0","487293","568772","568772","380469","379462","1630","406865","406865","1630","1630","394122","701768","1627","568772","700997","700108","700108","NA","883","study_X","0","13652","1","yes","1680"
"undefined","undefined","13652","13652","black","no","legacy","legacy","legacy","0","red","(179, 0, 0)","shape","present","highProb","circular","swap","swap","same","same","red","(179, 0, 0)","lowProb","lowProb1","rectangular","uniform","1","undefined","0.244791666667","1","1","334.666666667","1","47","64256","0","0","0","0","0","0","0","0","74","0","1","0.244791666667","334.666666667","47","64256","74","74","74","08/10/17 15:22:00","Default description","yes","<openexp._canvas.legacy.legacy object at 0x047C27F0>","<openexp._canvas.legacy.legacy object at 0x047CE7B0>","<openexp._canvas.legacy.legacy object at 0x047BA510>","<openexp._canvas.legacy.legacy object at 0x048B09D0>","<openexp._canvas.legacy.legacy object at 0x048814B0>","<openexp._canvas.legacy.legacy object at 0x047D8630>","<openexp._canvas.legacy.legacy object at 0x04882A50>","75","IndividualPriorityWithDis_v1.osexp","C:/Userdata/Michel/SpatialProb/IndividualPriorityMaps/Experiment2","no","mono","no","18","no","white","no","yes","0.09","98","1050","legacy","45","49","49","1","C:/Userdata/Michel/SpatialProb/IndividualPriorityMaps/Experiment2/data/subject-3.csv","legacy","9","192","25","Jazzy James","3.1.3","yes","598477b2b83f69022949e7e9","47","red","circular","red","rectangular","0","\","1124","space","13652","13652","(80, 80, 80)","(0, 122, 0)","(179, 0, 0)","(155, 155, 155)","2","legacy","experiment","[2, 3, 4, 5, 6, 7, 0, 1]","\","2500","3000","0","8","252.758751519","1024","2","48000","-16","main","[(0, -252), (178, -178), (252, 0), (178, 178), (0, 252), (-178, 178), (-252, 0), (-178, -178)]","[]","3","odd","3","487293","568772","568772","380469","379462","1630","406865","406865","1630","1630","394122","704264","1627","568772","703136","702247","702247","NA","883","study_X","0","13652","1","yes","1680"
"undefined","undefined","13652","13652","black","no","legacy","legacy","legacy","0","red","(179, 0, 0)","color","absent","lowProb3","rectangular","same","swap","same","same","red","(179, 0, 0)","highProbShape","highProbShape","rectangular","uniform","1","undefined","0.25","1","1","342.125","1","48","65688","0","0","0","0","0","0","0","0","75","0","1","0.25","342.125","48","65688","75","75","75","08/10/17 15:22:00","Default description","yes","<openexp._canvas.legacy.legacy object at 0x047C27F0>","<openexp._canvas.legacy.legacy object at 0x047CE7B0>","<openexp._canvas.legacy.legacy object at 0x047BA510>","<openexp._canvas.legacy.legacy object at 0x048B09D0>","<openexp._canvas.legacy.legacy object at 0x048814B0>","<openexp._canvas.legacy.legacy object at 0x047CE390>","<openexp._canvas.legacy.legacy object at 0x04882A50>","75","IndividualPriorityWithDis_v1.osexp","C:/Userdata/Michel/SpatialProb/IndividualPriorityMaps/Experiment2","no","mono","no","18","no","white","no","yes","0.09","98","1050","legacy","45","50","50","1","C:/Userdata/Michel/SpatialProb/IndividualPriorityMaps/Experiment2/data/subject-3.csv","legacy","9","192","25","Jazzy James","3.1.3","yes","598477b2b83f69022949e7e9","47","red","rectangular","red","rectangular","0","\","1432","space","13652","13652","(80, 80, 80)","(0, 122, 0)","(179, 0, 0)","(155, 155, 155)","2","legacy","experiment","[2, 3, 4, 5, 6, 7, 0, 1]","\","2500","3000","0","8","252.758751519","1024","2","48000","-16","main","[(0, -252), (178, -178), (252, 0), (178, 178), (0, 252), (-178, 178), (-252, 0), (-178, -178)]","[]","3","odd","6","487293","568772","568772","380469","379462","1630","406865","406865","1630","1630","394122","707024","1627","568772","705589","704700","704700","NA","883","study_X","0","13652","1","yes","1680"
"undefined","undefined","13652","13652","black","no","legacy","legacy","legacy","0","red","(179, 0, 0)","shape","present","highProb","circular","same","swap","same","same","red","(179, 0, 0)","lowProb","lowProb5","rectangular","uniform","1","undefined","0.255208333333","1","1","347.817708333","1","49","66781","0","0","0","0","0","0","0","0","76","0","1","0.255208333333","347.817708333","49","66781","76","76","76","08/10/17 15:22:00","Default description","yes","<openexp._canvas.legacy.legacy object at 0x047C27F0>","<openexp._canvas.legacy.legacy object at 0x047CE7B0>","<openexp._canvas.legacy.legacy object at 0x047BA510>","<openexp._canvas.legacy.legacy object at 0x048B09D0>","<openexp._canvas.legacy.legacy object at 0x048814B0>","<openexp._canvas.legacy.legacy object at 0x047C2730>","<openexp._canvas.legacy.legacy object at 0x04882A50>","75","IndividualPriorityWithDis_v1.osexp","C:/Userdata/Michel/SpatialProb/IndividualPriorityMaps/Experiment2","no","mono","no","18","no","white","no","yes","0.09","98","1050","legacy","315","51","51","1","C:/Userdata/Michel/SpatialProb/IndividualPriorityMaps/Experiment2/data/subject-3.csv","legacy","9","192","25","Jazzy James","3.1.3","yes","598477b2b83f69022949e7e9","47","red","circular","red","rectangular","0","/","1093","space","13652","13652","(80, 80, 80)","(0, 122, 0)","(179, 0, 0)","(155, 155, 155)","2","legacy","experiment","[2, 3, 4, 5, 6, 7, 0, 1]","/","2500","3000","0","8","252.758751519","1024","2","48000","-16","main","[(0, -252), (178, -178), (252, 0), (178, 178), (0, 252), (-178, 178), (-252, 0), (-178, -178)]","[]","3","odd","0","487293","568772","568772","380469","379462","1630","406865","406865","1630","1630","394122","709423","1627","568772","708327","707438","707438","NA","883","study_X","0","13652","1","yes","1680"
"undefined","undefined","13652","13652","black","no","legacy","legacy","legacy","0","red","(179, 0, 0)","color","present","highProb","rectangular","same","swap","swap","same","green","(0, 122, 0)","lowProb","lowProb3","rectangular","uniform","1","undefined","0.260416666667","1","1","353.84375","1","50","67938","0","0","0","0","0","0","0","0","77","0","1","0.260416666667","353.84375","50","67938","77","77","77","08/10/17 15:22:00","Default description","yes","<openexp._canvas.legacy.legacy object at 0x047C27F0>","<openexp._canvas.legacy.legacy object at 0x047CE7B0>","<openexp._canvas.legacy.legacy object at 0x047BA510>","<openexp._canvas.legacy.legacy object at 0x048B09D0>","<openexp._canvas.legacy.legacy object at 0x048814B0>","<openexp._canvas.legacy.legacy object at 0x047BF630>","<openexp._canvas.legacy.legacy object at 0x04882A50>","75","IndividualPriorityWithDis_v1.osexp","C:/Userdata/Michel/SpatialProb/IndividualPriorityMaps/Experiment2","no","mono","no","18","no","white","no","yes","0.09","98","1050","legacy","315","52","52","1","C:/Userdata/Michel/SpatialProb/IndividualPriorityMaps/Experiment2/data/subject-3.csv","legacy","9","192","25","Jazzy James","3.1.3","yes","598477b2b83f69022949e7e9","47","red","rectangular","green","rectangular","0","/","1157","space","13652","13652","(80, 80, 80)","(0, 122, 0)","(179, 0, 0)","(155, 155, 155)","2","legacy","experiment","[2, 3, 4, 5, 6, 7, 0, 1]","/","2500","3000","0","8","252.758751519","1024","2","48000","-16","main","[(0, -252), (178, -178), (252, 0), (178, 178), (0, 252), (-178, 178), (-252, 0), (-178, -178)]","[]","3","odd","5","487293","568772","568772","380469","379462","1630","406865","406865","1630","1630","394122","711912","1627","568772","710752","709863","709863","NA","883","study_X","0","13652","1","yes","1680"
"undefined","undefined","13652","13652","black","no","legacy","legacy","legacy","0","red","(179, 0, 0)","color","present","highProb","rectangular","same","same","same","same","green","(0, 122, 0)","lowProb","lowProb3","rectangular","uniform","1","undefined","0.265625","1","1","358.28125","1","51","68790","0","0","0","0","0","0","0","0","78","0","1","0.265625","358.28125","51","68790","78","78","78","08/10/17 15:22:00","Default description","yes","<openexp._canvas.legacy.legacy object at 0x047C27F0>","<openexp._canvas.legacy.legacy object at 0x047CE7B0>","<openexp._canvas.legacy.legacy object at 0x047BA510>","<openexp._canvas.legacy.legacy object at 0x048B09D0>","<openexp._canvas.legacy.legacy object at 0x048814B0>","<openexp._canvas.legacy.legacy object at 0x047BE150>","<openexp._canvas.legacy.legacy object at 0x04882A50>","75","IndividualPriorityWithDis_v1.osexp","C:/Userdata/Michel/SpatialProb/IndividualPriorityMaps/Experiment2","no","mono","no","18","no","white","no","yes","0.09","98","1050","legacy","45","53","53","1","C:/Userdata/Michel/SpatialProb/IndividualPriorityMaps/Experiment2/data/subject-3.csv","legacy","9","192","25","Jazzy James","3.1.3","yes","598477b2b83f69022949e7e9","47","red","rectangular","green","rectangular","0","\","852","space","13652","13652","(80, 80, 80)","(0, 122, 0)","(179, 0, 0)","(155, 155, 155)","2","legacy","experiment","[2, 3, 4, 5, 6, 7, 0, 1]","\","2500","3000","0","8","252.758751519","1024","2","48000","-16","main","[(0, -252), (178, -178), (252, 0), (178, 178), (0, 252), (-178, 178), (-252, 0), (-178, -178)]","[]","3","odd","5","487293","568772","568772","380469","379462","1630","406865","406865","1630","1630","394122","714104","1627","568772","713249","712360","712360","NA","883","study_X","0","13652","1","yes","1680"
