"acc","accuracy","average_response_time","avg_rt","background","bidi","canvas_backend","clock_backend","color_backend","compensation","cond_disColor","cond_disColorRGB","cond_disFeature","cond_disPresent","cond_disProbability","cond_disShape","cond_primingDisColor","cond_primingDisShape","cond_primingTarColor","cond_primingTarShape","cond_tarColor","cond_tarColorRGB","cond_tarLocation","cond_tarLocationLong","cond_tarShape","coordinates","correct","correct_continuePress","count_blockAcc","count_blockFeed","count_blockLoop","count_blockRT","count_blockSeq","count_blockSumCorrect","count_blockSumRT","count_continuePress","count_example","count_expSettings","count_exp_mainLoop","count_experiment","count_instructions","count_instructions1","count_instructions2","count_log","count_main","count_prepCanvas","count_totalAcc","count_totalRT","count_totalSumCorrect","count_totalSumRT","count_trialResp","count_trialSeq","count_trialTask","datetime","description","disable_garbage_collection","dispBlank","dispBlockStart","dispFeedBlock","dispFix","dispInstructions","dispSearch","dispStartScreen","distance2screen","experiment_file","experiment_path","font_bold","font_family","font_italic","font_size","font_underline","foreground","form_clicks","fullscreen","gaborFreq","gaborSize","height","keyboard_backend","lineOriTar","live_row","live_row_blockLoop","live_row_exp_mainLoop","logfile","mouse_backend","noExpBlocks","noExpTrials","noPracTrials","opensesame_codename","opensesame_version","osf_always_upload_experiment","osf_id","physical_screensize","previousDisColor","previousDisShape","previousTarColor","previousTarShape","repeat_cycle","response","responseTime","response_continuePress","response_time","response_time_continuePress","rgb_gray","rgb_green","rgb_red","rgb_white","round_decimals","sampler_backend","set_blockType","set_counterPositions","set_respCorrect","set_respTimeoutExp","set_respTimeoutPrac","set_rotation","set_setSize","sizeImaginary","sound_buf_size","sound_channels","sound_freq","sound_sample_size","start","stimPositions","stimuli","subject_nr","subject_parity","tarIdx","time_blockFeed","time_blockLoop","time_blockSeq","time_continuePress","time_example","time_expSettings","time_exp_mainLoop","time_experiment","time_instructions","time_instructions1","time_instructions2","time_log","time_main","time_prepCanvas","time_trialResp","time_trialSeq","time_trialTask","timing_EEGwait","timing_fix","title","total_correct","total_response_time","total_responses","uniform_coordinates","width"
"undefined","undefined","10069","10069","black","no","legacy","legacy","legacy","0","red","(179, 0, 0)","color","present","highProb","rectangular","same","swap","same","swap","green","(0, 122, 0)","lowProb","lowProb4","rectangular","uniform","1","undefined","0.00520833333333","1","1","6.40104166667","1","1","1229","0","0","0","0","0","0","0","0","25","0","1","0.00520833333333","6.40104166667","1","1229","25","25","25","08/21/17 09:43:58","Default description","yes","<openexp._canvas.legacy.legacy object at 0x049627F0>","<openexp._canvas.legacy.legacy object at 0x0496E7B0>","<openexp._canvas.legacy.legacy object at 0x0495A410>","<openexp._canvas.legacy.legacy object at 0x04A509D0>","<openexp._canvas.legacy.legacy object at 0x04A214B0>","<openexp._canvas.legacy.legacy object at 0x0495E550>","<openexp._canvas.legacy.legacy object at 0x04A22A50>","75","IndividualPriorityWithDis_v1.osexp","C:/Userdata/Michel/SpatialProb/IndividualPriorityMaps/Experiment2","no","mono","no","18","no","white","no","yes","0.09","98","1050","legacy","45","0","0","1","C:/Userdata/Michel/SpatialProb/IndividualPriorityMaps/Experiment2/data/subject-9.csv","legacy","9","192","25","Jazzy James","3.1.3","yes","598477b2b83f69022949e7e9","47","red","rectangular","green","rectangular","0","\","1229","space","10069","10069","(80, 80, 80)","(0, 122, 0)","(179, 0, 0)","(155, 155, 155)","2","legacy","experiment","[0, 1, 2, 3, 4, 5, 6, 7]","\","2500","3000","0","8","252.758751519","1024","2","48000","-16","main","[(0, -252), (178, -178), (252, 0), (178, 178), (0, 252), (-178, 178), (-252, 0), (-178, -178)]","[]","9","odd","5","690616","755017","755016","602656","601649","1559","623309","623309","1559","1559","612726","762509","1558","755017","761277","755404","755404","NA","797","study_X","0","10069","1","yes","1680"
"undefined","undefined","10069","10069","black","no","legacy","legacy","legacy","0","green","(0, 122, 0)","color","present","highProb","rectangular","swap","same","swap","same","red","(179, 0, 0)","lowProb","lowProb6","rectangular","uniform","1","undefined","0.0104166666667","1","1","11.046875","1","2","2121","0","0","0","0","0","0","0","0","26","0","1","0.0104166666667","11.046875","2","2121","26","26","26","08/21/17 09:43:58","Default description","yes","<openexp._canvas.legacy.legacy object at 0x049627F0>","<openexp._canvas.legacy.legacy object at 0x0496E7B0>","<openexp._canvas.legacy.legacy object at 0x0495A410>","<openexp._canvas.legacy.legacy object at 0x04A509D0>","<openexp._canvas.legacy.legacy object at 0x04A214B0>","<openexp._canvas.legacy.legacy object at 0x0496EFB0>","<openexp._canvas.legacy.legacy object at 0x04A22A50>","75","IndividualPriorityWithDis_v1.osexp","C:/Userdata/Michel/SpatialProb/IndividualPriorityMaps/Experiment2","no","mono","no","18","no","white","no","yes","0.09","98","1050","legacy","315","1","1","1","C:/Userdata/Michel/SpatialProb/IndividualPriorityMaps/Experiment2/data/subject-9.csv","legacy","9","192","25","Jazzy James","3.1.3","yes","598477b2b83f69022949e7e9","47","green","rectangular","red","rectangular","0","/","892","space","10069","10069","(80, 80, 80)","(0, 122, 0)","(179, 0, 0)","(155, 155, 155)","2","legacy","experiment","[0, 1, 2, 3, 4, 5, 6, 7]","/","2500","3000","0","8","252.758751519","1024","2","48000","-16","main","[(0, -252), (178, -178), (252, 0), (178, 178), (0, 252), (-178, 178), (-252, 0), (-178, -178)]","[]","9","odd","7","690616","755017","755016","602656","601649","1559","623309","623309","1559","1559","612726","764637","1558","755017","763743","762940","762940","NA","797","study_X","0","10069","1","yes","1680"
"undefined","undefined","10069","10069","black","no","legacy","legacy","legacy","0","green","(0, 122, 0)","color","absent","highProbOther","circular","same","swap","swap","swap","green","(0, 122, 0)","lowProb","lowProb5","circular","uniform","1","undefined","0.015625","1","1","15.3333333333","1","3","2944","0","0","0","0","0","0","0","0","27","0","1","0.015625","15.3333333333","3","2944","27","27","27","08/21/17 09:43:58","Default description","yes","<openexp._canvas.legacy.legacy object at 0x049627F0>","<openexp._canvas.legacy.legacy object at 0x0496E7B0>","<openexp._canvas.legacy.legacy object at 0x0495A410>","<openexp._canvas.legacy.legacy object at 0x04A509D0>","<openexp._canvas.legacy.legacy object at 0x04A214B0>","<openexp._canvas.legacy.legacy object at 0x0495F950>","<openexp._canvas.legacy.legacy object at 0x04A22A50>","75","IndividualPriorityWithDis_v1.osexp","C:/Userdata/Michel/SpatialProb/IndividualPriorityMaps/Experiment2","no","mono","no","18","no","white","no","yes","0.09","98","1050","legacy","45","2","2","1","C:/Userdata/Michel/SpatialProb/IndividualPriorityMaps/Experiment2/data/subject-9.csv","legacy","9","192","25","Jazzy James","3.1.3","yes","598477b2b83f69022949e7e9","47","green","circular","green","circular","0","\","823","space","10069","10069","(80, 80, 80)","(0, 122, 0)","(179, 0, 0)","(155, 155, 155)","2","legacy","experiment","[0, 1, 2, 3, 4, 5, 6, 7]","\","2500","3000","0","8","252.758751519","1024","2","48000","-16","main","[(0, -252), (178, -178), (252, 0), (178, 178), (0, 252), (-178, 178), (-252, 0), (-178, -178)]","[]","9","odd","6","690616","755017","755016","602656","601649","1559","623309","623309","1559","1559","612726","766709","1558","755017","765882","765079","765079","NA","797","study_X","0","10069","1","yes","1680"
"undefined","undefined","10069","10069","black","no","legacy","legacy","legacy","0","green","(0, 122, 0)","shape","absent","lowProb6","rectangular","same","swap","same","swap","green","(0, 122, 0)","highProbColor","highProbColor","rectangular","uniform","1","undefined","0.0208333333333","1","1","21.8385416667","1","4","4193","0","0","0","0","0","0","0","0","28","0","1","0.0208333333333","21.8385416667","4","4193","28","28","28","08/21/17 09:43:58","Default description","yes","<openexp._canvas.legacy.legacy object at 0x049627F0>","<openexp._canvas.legacy.legacy object at 0x0496E7B0>","<openexp._canvas.legacy.legacy object at 0x0495A410>","<openexp._canvas.legacy.legacy object at 0x04A509D0>","<openexp._canvas.legacy.legacy object at 0x04A214B0>","<openexp._canvas.legacy.legacy object at 0x0495A250>","<openexp._canvas.legacy.legacy object at 0x04A22A50>","75","IndividualPriorityWithDis_v1.osexp","C:/Userdata/Michel/SpatialProb/IndividualPriorityMaps/Experiment2","no","mono","no","18","no","white","no","yes","0.09","98","1050","legacy","45","3","3","1","C:/Userdata/Michel/SpatialProb/IndividualPriorityMaps/Experiment2/data/subject-9.csv","legacy","9","192","25","Jazzy James","3.1.3","yes","598477b2b83f69022949e7e9","47","green","rectangular","green","rectangular","0","\","1249","space","10069","10069","(80, 80, 80)","(0, 122, 0)","(179, 0, 0)","(155, 155, 155)","2","legacy","experiment","[0, 1, 2, 3, 4, 5, 6, 7]","\","2500","3000","0","8","252.758751519","1024","2","48000","-16","main","[(0, -252), (178, -178), (252, 0), (178, 178), (0, 252), (-178, 178), (-252, 0), (-178, -178)]","[]","9","odd","0","690616","755017","755016","602656","601649","1559","623309","623309","1559","1559","612726","769173","1558","755017","767920","767117","767117","NA","797","study_X","0","10069","1","yes","1680"
"undefined","undefined","10069","10069","black","no","legacy","legacy","legacy","0","red","(179, 0, 0)","shape","present","highProb","circular","swap","swap","swap","same","red","(179, 0, 0)","highProbColor","highProbColor","rectangular","uniform","1","undefined","0.0260416666667","1","1","24.8958333333","1","5","4780","0","0","0","0","0","0","0","0","29","0","1","0.0260416666667","24.8958333333","5","4780","29","29","29","08/21/17 09:43:58","Default description","yes","<openexp._canvas.legacy.legacy object at 0x049627F0>","<openexp._canvas.legacy.legacy object at 0x0496E7B0>","<openexp._canvas.legacy.legacy object at 0x0495A410>","<openexp._canvas.legacy.legacy object at 0x04A509D0>","<openexp._canvas.legacy.legacy object at 0x04A214B0>","<openexp._canvas.legacy.legacy object at 0x0495FF50>","<openexp._canvas.legacy.legacy object at 0x04A22A50>","75","IndividualPriorityWithDis_v1.osexp","C:/Userdata/Michel/SpatialProb/IndividualPriorityMaps/Experiment2","no","mono","no","18","no","white","no","yes","0.09","98","1050","legacy","45","4","4","1","C:/Userdata/Michel/SpatialProb/IndividualPriorityMaps/Experiment2/data/subject-9.csv","legacy","9","192","25","Jazzy James","3.1.3","yes","598477b2b83f69022949e7e9","47","red","circular","red","rectangular","0","\","587","space","10069","10069","(80, 80, 80)","(0, 122, 0)","(179, 0, 0)","(155, 155, 155)","2","legacy","experiment","[0, 1, 2, 3, 4, 5, 6, 7]","\","2500","3000","0","8","252.758751519","1024","2","48000","-16","main","[(0, -252), (178, -178), (252, 0), (178, 178), (0, 252), (-178, 178), (-252, 0), (-178, -178)]","[]","9","odd","0","690616","755017","755016","602656","601649","1559","623309","623309","1559","1559","612726","770997","1558","755017","770406","769603","769603","NA","797","study_X","0","10069","1","yes","1680"
"undefined","undefined","10069","10069","black","no","legacy","legacy","legacy","0","red","(179, 0, 0)","shape","present","highProb","rectangular","same","swap","same","swap","red","(179, 0, 0)","lowProb","lowProb2","circular","uniform","1","undefined","0.03125","1","1","29.8802083333","1","6","5737","0","0","0","0","0","0","0","0","30","0","1","0.03125","29.8802083333","6","5737","30","30","30","08/21/17 09:43:58","Default description","yes","<openexp._canvas.legacy.legacy object at 0x049627F0>","<openexp._canvas.legacy.legacy object at 0x0496E7B0>","<openexp._canvas.legacy.legacy object at 0x0495A410>","<openexp._canvas.legacy.legacy object at 0x04A509D0>","<openexp._canvas.legacy.legacy object at 0x04A214B0>","<openexp._canvas.legacy.legacy object at 0x04A502B0>","<openexp._canvas.legacy.legacy object at 0x04A22A50>","75","IndividualPriorityWithDis_v1.osexp","C:/Userdata/Michel/SpatialProb/IndividualPriorityMaps/Experiment2","no","mono","no","18","no","white","no","yes","0.09","98","1050","legacy","315","5","5","1","C:/Userdata/Michel/SpatialProb/IndividualPriorityMaps/Experiment2/data/subject-9.csv","legacy","9","192","25","Jazzy James","3.1.3","yes","598477b2b83f69022949e7e9","47","red","rectangular","red","circular","0","/","957","space","10069","10069","(80, 80, 80)","(0, 122, 0)","(179, 0, 0)","(155, 155, 155)","2","legacy","experiment","[0, 1, 2, 3, 4, 5, 6, 7]","/","2500","3000","0","8","252.758751519","1024","2","48000","-16","main","[(0, -252), (178, -178), (252, 0), (178, 178), (0, 252), (-178, 178), (-252, 0), (-178, -178)]","[]","9","odd","2","690616","755017","755016","602656","601649","1559","623309","623309","1559","1559","612726","773172","1558","755017","772212","771410","771410","NA","797","study_X","0","10069","1","yes","1680"
"undefined","undefined","10069","10069","black","no","legacy","legacy","legacy","0","green","(0, 122, 0)","shape","present","highProb","circular","swap","swap","swap","swap","green","(0, 122, 0)","lowProb","lowProb3","rectangular","uniform","1","undefined","0.0364583333333","1","1","35.0989583333","1","7","6739","0","0","0","0","0","0","0","0","31","0","1","0.0364583333333","35.0989583333","7","6739","31","31","31","08/21/17 09:43:58","Default description","yes","<openexp._canvas.legacy.legacy object at 0x049627F0>","<openexp._canvas.legacy.legacy object at 0x0496E7B0>","<openexp._canvas.legacy.legacy object at 0x0495A410>","<openexp._canvas.legacy.legacy object at 0x04A509D0>","<openexp._canvas.legacy.legacy object at 0x04A214B0>","<openexp._canvas.legacy.legacy object at 0x0495AED0>","<openexp._canvas.legacy.legacy object at 0x04A22A50>","75","IndividualPriorityWithDis_v1.osexp","C:/Userdata/Michel/SpatialProb/IndividualPriorityMaps/Experiment2","no","mono","no","18","no","white","no","yes","0.09","98","1050","legacy","45","6","6","1","C:/Userdata/Michel/SpatialProb/IndividualPriorityMaps/Experiment2/data/subject-9.csv","legacy","9","192","25","Jazzy James","3.1.3","yes","598477b2b83f69022949e7e9","47","green","circular","green","rectangular","0","\","1002","space","10069","10069","(80, 80, 80)","(0, 122, 0)","(179, 0, 0)","(155, 155, 155)","2","legacy","experiment","[0, 1, 2, 3, 4, 5, 6, 7]","\","2500","3000","0","8","252.758751519","1024","2","48000","-16","main","[(0, -252), (178, -178), (252, 0), (178, 178), (0, 252), (-178, 178), (-252, 0), (-178, -178)]","[]","9","odd","3","690616","755017","755016","602656","601649","1559","623309","623309","1559","1559","612726","775380","1558","755017","774375","773572","773572","NA","797","study_X","0","10069","1","yes","1680"
"undefined","undefined","10069","10069","black","no","legacy","legacy","legacy","0","red","(179, 0, 0)","shape","absent","lowProb1","circular","swap","same","swap","swap","red","(179, 0, 0)","lowProb","lowProb1","circular","uniform","1","undefined","0.0416666666667","1","1","40.0208333333","1","8","7684","0","0","0","0","0","0","0","0","32","0","1","0.0416666666667","40.0208333333","8","7684","32","32","32","08/21/17 09:43:58","Default description","yes","<openexp._canvas.legacy.legacy object at 0x049627F0>","<openexp._canvas.legacy.legacy object at 0x0496E7B0>","<openexp._canvas.legacy.legacy object at 0x0495A410>","<openexp._canvas.legacy.legacy object at 0x04A509D0>","<openexp._canvas.legacy.legacy object at 0x04A214B0>","<openexp._canvas.legacy.legacy object at 0x0495E550>","<openexp._canvas.legacy.legacy object at 0x04A22A50>","75","IndividualPriorityWithDis_v1.osexp","C:/Userdata/Michel/SpatialProb/IndividualPriorityMaps/Experiment2","no","mono","no","18","no","white","no","yes","0.09","98","1050","legacy","45","7","7","1","C:/Userdata/Michel/SpatialProb/IndividualPriorityMaps/Experiment2/data/subject-9.csv","legacy","9","192","25","Jazzy James","3.1.3","yes","598477b2b83f69022949e7e9","47","red","circular","red","circular","0","\","945","space","10069","10069","(80, 80, 80)","(0, 122, 0)","(179, 0, 0)","(155, 155, 155)","2","legacy","experiment","[0, 1, 2, 3, 4, 5, 6, 7]","\","2500","3000","0","8","252.758751519","1024","2","48000","-16","main","[(0, -252), (178, -178), (252, 0), (178, 178), (0, 252), (-178, 178), (-252, 0), (-178, -178)]","[]","9","odd","1","690616","755017","755016","602656","601649","1559","623309","623309","1559","1559","612726","777548","1558","755017","776600","775797","775797","NA","797","study_X","0","10069","1","yes","1680"
"undefined","undefined","10069","10069","black","no","legacy","legacy","legacy","0","red","(179, 0, 0)","color","present","highProb","rectangular","same","swap","swap","swap","green","(0, 122, 0)","lowProb","lowProb5","rectangular","uniform","1","undefined","0.046875","1","1","45.34375","1","9","8706","0","0","0","0","0","0","0","0","33","0","1","0.046875","45.34375","9","8706","33","33","33","08/21/17 09:43:58","Default description","yes","<openexp._canvas.legacy.legacy object at 0x049627F0>","<openexp._canvas.legacy.legacy object at 0x0496E7B0>","<openexp._canvas.legacy.legacy object at 0x0495A410>","<openexp._canvas.legacy.legacy object at 0x04A509D0>","<openexp._canvas.legacy.legacy object at 0x04A214B0>","<openexp._canvas.legacy.legacy object at 0x04A50AB0>","<openexp._canvas.legacy.legacy object at 0x04A22A50>","75","IndividualPriorityWithDis_v1.osexp","C:/Userdata/Michel/SpatialProb/IndividualPriorityMaps/Experiment2","no","mono","no","18","no","white","no","yes","0.09","98","1050","legacy","45","8","8","1","C:/Userdata/Michel/SpatialProb/IndividualPriorityMaps/Experiment2/data/subject-9.csv","legacy","9","192","25","Jazzy James","3.1.3","yes","598477b2b83f69022949e7e9","47","red","rectangular","green","rectangular","0","\","1022","space","10069","10069","(80, 80, 80)","(0, 122, 0)","(179, 0, 0)","(155, 155, 155)","2","legacy","experiment","[0, 1, 2, 3, 4, 5, 6, 7]","\","2500","3000","0","8","252.758751519","1024","2","48000","-16","main","[(0, -252), (178, -178), (252, 0), (178, 178), (0, 252), (-178, 178), (-252, 0), (-178, -178)]","[]","9","odd","6","690616","755017","755016","602656","601649","1559","623309","623309","1559","1559","612726","779789","1558","755017","778764","777961","777961","NA","797","study_X","0","10069","1","yes","1680"
"undefined","undefined","10069","10069","black","no","legacy","legacy","legacy","0","red","(179, 0, 0)","shape","present","highProb","circular","same","swap","swap","same","red","(179, 0, 0)","lowProb","lowProb3","rectangular","uniform","1","undefined","0.0520833333333","1","1","54.6927083333","1","10","10501","0","0","0","0","0","0","0","0","34","0","1","0.0520833333333","54.6927083333","10","10501","34","34","34","08/21/17 09:43:58","Default description","yes","<openexp._canvas.legacy.legacy object at 0x049627F0>","<openexp._canvas.legacy.legacy object at 0x0496E7B0>","<openexp._canvas.legacy.legacy object at 0x0495A410>","<openexp._canvas.legacy.legacy object at 0x04A509D0>","<openexp._canvas.legacy.legacy object at 0x04A214B0>","<openexp._canvas.legacy.legacy object at 0x04A50250>","<openexp._canvas.legacy.legacy object at 0x04A22A50>","75","IndividualPriorityWithDis_v1.osexp","C:/Userdata/Michel/SpatialProb/IndividualPriorityMaps/Experiment2","no","mono","no","18","no","white","no","yes","0.09","98","1050","legacy","45","9","9","1","C:/Userdata/Michel/SpatialProb/IndividualPriorityMaps/Experiment2/data/subject-9.csv","legacy","9","192","25","Jazzy James","3.1.3","yes","598477b2b83f69022949e7e9","47","red","circular","red","rectangular","0","\","1795","space","10069","10069","(80, 80, 80)","(0, 122, 0)","(179, 0, 0)","(155, 155, 155)","2","legacy","experiment","[0, 1, 2, 3, 4, 5, 6, 7]","\","2500","3000","0","8","252.758751519","1024","2","48000","-16","main","[(0, -252), (178, -178), (252, 0), (178, 178), (0, 252), (-178, 178), (-252, 0), (-178, -178)]","[]","9","odd","3","690616","755017","755016","602656","601649","1559","623309","623309","1559","1559","612726","782797","1558","755017","780998","780195","780195","NA","797","study_X","0","10069","1","yes","1680"
"undefined","undefined","10069","10069","black","no","legacy","legacy","legacy","0","red","(179, 0, 0)","shape","present","highProb","circular","same","same","same","same","red","(179, 0, 0)","lowProb","lowProb1","rectangular","uniform","1","undefined","0.0572916666667","1","1","58.125","1","11","11160","0","0","0","0","0","0","0","0","35","0","1","0.0572916666667","58.125","11","11160","35","35","35","08/21/17 09:43:58","Default description","yes","<openexp._canvas.legacy.legacy object at 0x049627F0>","<openexp._canvas.legacy.legacy object at 0x0496E7B0>","<openexp._canvas.legacy.legacy object at 0x0495A410>","<openexp._canvas.legacy.legacy object at 0x04A509D0>","<openexp._canvas.legacy.legacy object at 0x04A214B0>","<openexp._canvas.legacy.legacy object at 0x0495A790>","<openexp._canvas.legacy.legacy object at 0x04A22A50>","75","IndividualPriorityWithDis_v1.osexp","C:/Userdata/Michel/SpatialProb/IndividualPriorityMaps/Experiment2","no","mono","no","18","no","white","no","yes","0.09","98","1050","legacy","315","10","10","1","C:/Userdata/Michel/SpatialProb/IndividualPriorityMaps/Experiment2/data/subject-9.csv","legacy","9","192","25","Jazzy James","3.1.3","yes","598477b2b83f69022949e7e9","47","red","circular","red","rectangular","0","/","659","space","10069","10069","(80, 80, 80)","(0, 122, 0)","(179, 0, 0)","(155, 155, 155)","2","legacy","experiment","[0, 1, 2, 3, 4, 5, 6, 7]","/","2500","3000","0","8","252.758751519","1024","2","48000","-16","main","[(0, -252), (178, -178), (252, 0), (178, 178), (0, 252), (-178, 178), (-252, 0), (-178, -178)]","[]","9","odd","1","690616","755017","755016","602656","601649","1559","623309","623309","1559","1559","612726","784669","1558","755017","784006","783203","783203","NA","797","study_X","0","10069","1","yes","1680"
"undefined","undefined","10069","10069","black","no","legacy","legacy","legacy","0","green","(0, 122, 0)","shape","present","highProb","rectangular","swap","swap","swap","swap","green","(0, 122, 0)","lowProb","lowProb4","circular","uniform","1","undefined","0.0625","1","1","64.3177083333","1","12","12349","0","0","0","0","0","0","0","0","36","0","1","0.0625","64.3177083333","12","12349","36","36","36","08/21/17 09:43:58","Default description","yes","<openexp._canvas.legacy.legacy object at 0x049627F0>","<openexp._canvas.legacy.legacy object at 0x0496E7B0>","<openexp._canvas.legacy.legacy object at 0x0495A410>","<openexp._canvas.legacy.legacy object at 0x04A509D0>","<openexp._canvas.legacy.legacy object at 0x04A214B0>","<openexp._canvas.legacy.legacy object at 0x0495AC90>","<openexp._canvas.legacy.legacy object at 0x04A22A50>","75","IndividualPriorityWithDis_v1.osexp","C:/Userdata/Michel/SpatialProb/IndividualPriorityMaps/Experiment2","no","mono","no","18","no","white","no","yes","0.09","98","1050","legacy","45","11","11","1","C:/Userdata/Michel/SpatialProb/IndividualPriorityMaps/Experiment2/data/subject-9.csv","legacy","9","192","25","Jazzy James","3.1.3","yes","598477b2b83f69022949e7e9","47","green","rectangular","green","circular","0","\","1189","space","10069","10069","(80, 80, 80)","(0, 122, 0)","(179, 0, 0)","(155, 155, 155)","2","legacy","experiment","[0, 1, 2, 3, 4, 5, 6, 7]","\","2500","3000","0","8","252.758751519","1024","2","48000","-16","main","[(0, -252), (178, -178), (252, 0), (178, 178), (0, 252), (-178, 178), (-252, 0), (-178, -178)]","[]","9","odd","5","690616","755017","755016","602656","601649","1559","623309","623309","1559","1559","612726","787085","1558","755017","785892","785089","785089","NA","797","study_X","0","10069","1","yes","1680"
"undefined","undefined","10069","10069","black","no","legacy","legacy","legacy","0","green","(0, 122, 0)","color","present","lowProb4","circular","same","swap","swap","same","red","(179, 0, 0)","lowProb","lowProb6","circular","uniform","1","undefined","0.0677083333333","1","1","67.671875","1","13","12993","0","0","0","0","0","0","0","0","37","0","1","0.0677083333333","67.671875","13","12993","37","37","37","08/21/17 09:43:58","Default description","yes","<openexp._canvas.legacy.legacy object at 0x049627F0>","<openexp._canvas.legacy.legacy object at 0x0496E7B0>","<openexp._canvas.legacy.legacy object at 0x0495A410>","<openexp._canvas.legacy.legacy object at 0x04A509D0>","<openexp._canvas.legacy.legacy object at 0x04A214B0>","<openexp._canvas.legacy.legacy object at 0x04A508B0>","<openexp._canvas.legacy.legacy object at 0x04A22A50>","75","IndividualPriorityWithDis_v1.osexp","C:/Userdata/Michel/SpatialProb/IndividualPriorityMaps/Experiment2","no","mono","no","18","no","white","no","yes","0.09","98","1050","legacy","315","12","12","1","C:/Userdata/Michel/SpatialProb/IndividualPriorityMaps/Experiment2/data/subject-9.csv","legacy","9","192","25","Jazzy James","3.1.3","yes","598477b2b83f69022949e7e9","47","green","circular","red","circular","0","/","644","space","10069","10069","(80, 80, 80)","(0, 122, 0)","(179, 0, 0)","(155, 155, 155)","2","legacy","experiment","[0, 1, 2, 3, 4, 5, 6, 7]","/","2500","3000","0","8","252.758751519","1024","2","48000","-16","main","[(0, -252), (178, -178), (252, 0), (178, 178), (0, 252), (-178, 178), (-252, 0), (-178, -178)]","[]","9","odd","7","690616","755017","755016","602656","601649","1559","623309","623309","1559","1559","612726","788948","1558","755017","788301","787498","787498","NA","797","study_X","0","10069","1","yes","1680"
"undefined","undefined","10069","10069","black","no","legacy","legacy","legacy","0","red","(179, 0, 0)","shape","present","highProb","rectangular","swap","swap","same","same","red","(179, 0, 0)","lowProb","lowProb3","circular","uniform","1","undefined","0.0729166666667","1","1","74.375","1","14","14280","0","0","0","0","0","0","0","0","38","0","1","0.0729166666667","74.375","14","14280","38","38","38","08/21/17 09:43:58","Default description","yes","<openexp._canvas.legacy.legacy object at 0x049627F0>","<openexp._canvas.legacy.legacy object at 0x0496E7B0>","<openexp._canvas.legacy.legacy object at 0x0495A410>","<openexp._canvas.legacy.legacy object at 0x04A509D0>","<openexp._canvas.legacy.legacy object at 0x04A214B0>","<openexp._canvas.legacy.legacy object at 0x0496EE70>","<openexp._canvas.legacy.legacy object at 0x04A22A50>","75","IndividualPriorityWithDis_v1.osexp","C:/Userdata/Michel/SpatialProb/IndividualPriorityMaps/Experiment2","no","mono","no","18","no","white","no","yes","0.09","98","1050","legacy","45","13","13","1","C:/Userdata/Michel/SpatialProb/IndividualPriorityMaps/Experiment2/data/subject-9.csv","legacy","9","192","25","Jazzy James","3.1.3","yes","598477b2b83f69022949e7e9","47","red","rectangular","red","circular","0","\","1287","space","10069","10069","(80, 80, 80)","(0, 122, 0)","(179, 0, 0)","(155, 155, 155)","2","legacy","experiment","[0, 1, 2, 3, 4, 5, 6, 7]","\","2500","3000","0","8","252.758751519","1024","2","48000","-16","main","[(0, -252), (178, -178), (252, 0), (178, 178), (0, 252), (-178, 178), (-252, 0), (-178, -178)]","[]","9","odd","3","690616","755017","755016","602656","601649","1559","623309","623309","1559","1559","612726","791452","1558","755017","790162","789359","789359","NA","797","study_X","0","10069","1","yes","1680"
"undefined","undefined","10069","10069","black","no","legacy","legacy","legacy","0","red","(179, 0, 0)","shape","present","highProb","rectangular","same","same","same","same","red","(179, 0, 0)","lowProb","lowProb5","circular","uniform","1","undefined","0.078125","1","1","77.7708333333","1","15","14932","0","0","0","0","0","0","0","0","39","0","1","0.078125","77.7708333333","15","14932","39","39","39","08/21/17 09:43:58","Default description","yes","<openexp._canvas.legacy.legacy object at 0x049627F0>","<openexp._canvas.legacy.legacy object at 0x0496E7B0>","<openexp._canvas.legacy.legacy object at 0x0495A410>","<openexp._canvas.legacy.legacy object at 0x04A509D0>","<openexp._canvas.legacy.legacy object at 0x04A214B0>","<openexp._canvas.legacy.legacy object at 0x04A4BB10>","<openexp._canvas.legacy.legacy object at 0x04A22A50>","75","IndividualPriorityWithDis_v1.osexp","C:/Userdata/Michel/SpatialProb/IndividualPriorityMaps/Experiment2","no","mono","no","18","no","white","no","yes","0.09","98","1050","legacy","45","14","14","1","C:/Userdata/Michel/SpatialProb/IndividualPriorityMaps/Experiment2/data/subject-9.csv","legacy","9","192","25","Jazzy James","3.1.3","yes","598477b2b83f69022949e7e9","47","red","rectangular","red","circular","0","\","652","space","10069","10069","(80, 80, 80)","(0, 122, 0)","(179, 0, 0)","(155, 155, 155)","2","legacy","experiment","[0, 1, 2, 3, 4, 5, 6, 7]","\","2500","3000","0","8","252.758751519","1024","2","48000","-16","main","[(0, -252), (178, -178), (252, 0), (178, 178), (0, 252), (-178, 178), (-252, 0), (-178, -178)]","[]","9","odd","6","690616","755017","755016","602656","601649","1559","623309","623309","1559","1559","612726","793332","1558","755017","792677","791875","791875","NA","797","study_X","0","10069","1","yes","1680"
"undefined","undefined","10069","10069","black","no","legacy","legacy","legacy","0","red","(179, 0, 0)","color","present","highProb","rectangular","same","same","swap","swap","green","(0, 122, 0)","lowProb","lowProb6","rectangular","uniform","1","undefined","0.0833333333333","1","1","81.1666666667","1","16","15584","0","0","0","0","0","0","0","0","40","0","1","0.0833333333333","81.1666666667","16","15584","40","40","40","08/21/17 09:43:58","Default description","yes","<openexp._canvas.legacy.legacy object at 0x049627F0>","<openexp._canvas.legacy.legacy object at 0x0496E7B0>","<openexp._canvas.legacy.legacy object at 0x0495A410>","<openexp._canvas.legacy.legacy object at 0x04A509D0>","<openexp._canvas.legacy.legacy object at 0x04A214B0>","<openexp._canvas.legacy.legacy object at 0x0495EE70>","<openexp._canvas.legacy.legacy object at 0x04A22A50>","75","IndividualPriorityWithDis_v1.osexp","C:/Userdata/Michel/SpatialProb/IndividualPriorityMaps/Experiment2","no","mono","no","18","no","white","no","yes","0.09","98","1050","legacy","45","15","15","1","C:/Userdata/Michel/SpatialProb/IndividualPriorityMaps/Experiment2/data/subject-9.csv","legacy","9","192","25","Jazzy James","3.1.3","yes","598477b2b83f69022949e7e9","47","red","rectangular","green","rectangular","0","\","652","space","10069","10069","(80, 80, 80)","(0, 122, 0)","(179, 0, 0)","(155, 155, 155)","2","legacy","experiment","[0, 1, 2, 3, 4, 5, 6, 7]","\","2500","3000","0","8","252.758751519","1024","2","48000","-16","main","[(0, -252), (178, -178), (252, 0), (178, 178), (0, 252), (-178, 178), (-252, 0), (-178, -178)]","[]","9","odd","7","690616","755017","755016","602656","601649","1559","623309","623309","1559","1559","612726","795196","1558","755017","794541","793738","793738","NA","797","study_X","0","10069","1","yes","1680"
"undefined","undefined","10069","10069","black","no","legacy","legacy","legacy","0","red","(179, 0, 0)","color","present","lowProb6","circular","same","swap","same","swap","green","(0, 122, 0)","highProbShape","highProbShape","circular","uniform","1","undefined","0.0885416666667","1","1","88.0364583333","1","17","16903","0","0","0","0","0","0","0","0","41","0","1","0.0885416666667","88.0364583333","17","16903","41","41","41","08/21/17 09:43:58","Default description","yes","<openexp._canvas.legacy.legacy object at 0x049627F0>","<openexp._canvas.legacy.legacy object at 0x0496E7B0>","<openexp._canvas.legacy.legacy object at 0x0495A410>","<openexp._canvas.legacy.legacy object at 0x04A509D0>","<openexp._canvas.legacy.legacy object at 0x04A214B0>","<openexp._canvas.legacy.legacy object at 0x0495E490>","<openexp._canvas.legacy.legacy object at 0x04A22A50>","75","IndividualPriorityWithDis_v1.osexp","C:/Userdata/Michel/SpatialProb/IndividualPriorityMaps/Experiment2","no","mono","no","18","no","white","no","yes","0.09","98","1050","legacy","45","16","16","1","C:/Userdata/Michel/SpatialProb/IndividualPriorityMaps/Experiment2/data/subject-9.csv","legacy","9","192","25","Jazzy James","3.1.3","yes","598477b2b83f69022949e7e9","47","red","circular","green","circular","0","\","1319","space","10069","10069","(80, 80, 80)","(0, 122, 0)","(179, 0, 0)","(155, 155, 155)","2","legacy","experiment","[0, 1, 2, 3, 4, 5, 6, 7]","\","2500","3000","0","8","252.758751519","1024","2","48000","-16","main","[(0, -252), (178, -178), (252, 0), (178, 178), (0, 252), (-178, 178), (-252, 0), (-178, -178)]","[]","9","odd","4","690616","755017","755016","602656","601649","1559","623309","623309","1559","1559","612726","797741","1558","755017","796418","795616","795616","NA","797","study_X","0","10069","1","yes","1680"
"undefined","undefined","10069","10069","black","no","legacy","legacy","legacy","0","green","(0, 122, 0)","shape","present","highProb","rectangular","swap","swap","same","same","green","(0, 122, 0)","lowProb","lowProb3","circular","uniform","1","undefined","0.09375","1","1","92.5416666667","1","18","17768","0","0","0","0","0","0","0","0","42","0","1","0.09375","92.5416666667","18","17768","42","42","42","08/21/17 09:43:58","Default description","yes","<openexp._canvas.legacy.legacy object at 0x049627F0>","<openexp._canvas.legacy.legacy object at 0x0496E7B0>","<openexp._canvas.legacy.legacy object at 0x0495A410>","<openexp._canvas.legacy.legacy object at 0x04A509D0>","<openexp._canvas.legacy.legacy object at 0x04A214B0>","<openexp._canvas.legacy.legacy object at 0x0496E930>","<openexp._canvas.legacy.legacy object at 0x04A22A50>","75","IndividualPriorityWithDis_v1.osexp","C:/Userdata/Michel/SpatialProb/IndividualPriorityMaps/Experiment2","no","mono","no","18","no","white","no","yes","0.09","98","1050","legacy","315","17","17","1","C:/Userdata/Michel/SpatialProb/IndividualPriorityMaps/Experiment2/data/subject-9.csv","legacy","9","192","25","Jazzy James","3.1.3","yes","598477b2b83f69022949e7e9","47","green","rectangular","green","circular","0","/","865","space","10069","10069","(80, 80, 80)","(0, 122, 0)","(179, 0, 0)","(155, 155, 155)","2","legacy","experiment","[0, 1, 2, 3, 4, 5, 6, 7]","/","2500","3000","0","8","252.758751519","1024","2","48000","-16","main","[(0, -252), (178, -178), (252, 0), (178, 178), (0, 252), (-178, 178), (-252, 0), (-178, -178)]","[]","9","odd","3","690616","755017","755016","602656","601649","1559","623309","623309","1559","1559","612726","799829","1558","755017","798961","798158","798158","NA","797","study_X","0","10069","1","yes","1680"
"undefined","undefined","10069","10069","black","no","legacy","legacy","legacy","0","red","(179, 0, 0)","color","present","highProb","circular","swap","swap","same","same","green","(0, 122, 0)","lowProb","lowProb1","circular","uniform","1","undefined","0.0989583333333","1","1","96.703125","1","19","18567","0","0","0","0","0","0","0","0","43","0","1","0.0989583333333","96.703125","19","18567","43","43","43","08/21/17 09:43:58","Default description","yes","<openexp._canvas.legacy.legacy object at 0x049627F0>","<openexp._canvas.legacy.legacy object at 0x0496E7B0>","<openexp._canvas.legacy.legacy object at 0x0495A410>","<openexp._canvas.legacy.legacy object at 0x04A509D0>","<openexp._canvas.legacy.legacy object at 0x04A214B0>","<openexp._canvas.legacy.legacy object at 0x04972650>","<openexp._canvas.legacy.legacy object at 0x04A22A50>","75","IndividualPriorityWithDis_v1.osexp","C:/Userdata/Michel/SpatialProb/IndividualPriorityMaps/Experiment2","no","mono","no","18","no","white","no","yes","0.09","98","1050","legacy","45","18","18","1","C:/Userdata/Michel/SpatialProb/IndividualPriorityMaps/Experiment2/data/subject-9.csv","legacy","9","192","25","Jazzy James","3.1.3","yes","598477b2b83f69022949e7e9","47","red","circular","green","circular","0","\","799","space","10069","10069","(80, 80, 80)","(0, 122, 0)","(179, 0, 0)","(155, 155, 155)","2","legacy","experiment","[0, 1, 2, 3, 4, 5, 6, 7]","\","2500","3000","0","8","252.758751519","1024","2","48000","-16","main","[(0, -252), (178, -178), (252, 0), (178, 178), (0, 252), (-178, 178), (-252, 0), (-178, -178)]","[]","9","odd","1","690616","755017","755016","602656","601649","1559","623309","623309","1559","1559","612726","801877","1558","755017","801074","800271","800272","NA","797","study_X","0","10069","1","yes","1680"
"undefined","undefined","10069","10069","black","no","legacy","legacy","legacy","0","green","(0, 122, 0)","color","present","lowProb5","circular","swap","same","swap","same","red","(179, 0, 0)","lowProb","lowProb1","circular","uniform","1","undefined","0.104166666667","1","1","99.484375","1","20","19101","0","0","0","0","0","0","0","0","44","0","1","0.104166666667","99.484375","20","19101","44","44","44","08/21/17 09:43:58","Default description","yes","<openexp._canvas.legacy.legacy object at 0x049627F0>","<openexp._canvas.legacy.legacy object at 0x0496E7B0>","<openexp._canvas.legacy.legacy object at 0x0495A410>","<openexp._canvas.legacy.legacy object at 0x04A509D0>","<openexp._canvas.legacy.legacy object at 0x04A214B0>","<openexp._canvas.legacy.legacy object at 0x0495AF50>","<openexp._canvas.legacy.legacy object at 0x04A22A50>","75","IndividualPriorityWithDis_v1.osexp","C:/Userdata/Michel/SpatialProb/IndividualPriorityMaps/Experiment2","no","mono","no","18","no","white","no","yes","0.09","98","1050","legacy","315","19","19","1","C:/Userdata/Michel/SpatialProb/IndividualPriorityMaps/Experiment2/data/subject-9.csv","legacy","9","192","25","Jazzy James","3.1.3","yes","598477b2b83f69022949e7e9","47","green","circular","red","circular","0","/","534","space","10069","10069","(80, 80, 80)","(0, 122, 0)","(179, 0, 0)","(155, 155, 155)","2","legacy","experiment","[0, 1, 2, 3, 4, 5, 6, 7]","/","2500","3000","0","8","252.758751519","1024","2","48000","-16","main","[(0, -252), (178, -178), (252, 0), (178, 178), (0, 252), (-178, 178), (-252, 0), (-178, -178)]","[]","9","odd","1","690616","755017","755016","602656","601649","1559","623309","623309","1559","1559","612726","803652","1558","755017","803115","802312","802312","NA","797","study_X","0","10069","1","yes","1680"
"undefined","undefined","10069","10069","black","no","legacy","legacy","legacy","0","red","(179, 0, 0)","color","present","highProb","rectangular","swap","swap","swap","swap","green","(0, 122, 0)","lowProb","lowProb3","rectangular","uniform","1","undefined","0.109375","1","1","104.682291667","1","21","20099","0","0","0","0","0","0","0","0","45","0","1","0.109375","104.682291667","21","20099","45","45","45","08/21/17 09:43:58","Default description","yes","<openexp._canvas.legacy.legacy object at 0x049627F0>","<openexp._canvas.legacy.legacy object at 0x0496E7B0>","<openexp._canvas.legacy.legacy object at 0x0495A410>","<openexp._canvas.legacy.legacy object at 0x04A509D0>","<openexp._canvas.legacy.legacy object at 0x04A214B0>","<openexp._canvas.legacy.legacy object at 0x0495E130>","<openexp._canvas.legacy.legacy object at 0x04A22A50>","75","IndividualPriorityWithDis_v1.osexp","C:/Userdata/Michel/SpatialProb/IndividualPriorityMaps/Experiment2","no","mono","no","18","no","white","no","yes","0.09","98","1050","legacy","45","20","20","1","C:/Userdata/Michel/SpatialProb/IndividualPriorityMaps/Experiment2/data/subject-9.csv","legacy","9","192","25","Jazzy James","3.1.3","yes","598477b2b83f69022949e7e9","47","red","rectangular","green","rectangular","0","\","998","space","10069","10069","(80, 80, 80)","(0, 122, 0)","(179, 0, 0)","(155, 155, 155)","2","legacy","experiment","[0, 1, 2, 3, 4, 5, 6, 7]","\","2500","3000","0","8","252.758751519","1024","2","48000","-16","main","[(0, -252), (178, -178), (252, 0), (178, 178), (0, 252), (-178, 178), (-252, 0), (-178, -178)]","[]","9","odd","3","690616","755017","755016","602656","601649","1559","623309","623309","1559","1559","612726","805860","1558","755017","804859","804056","804056","NA","797","study_X","0","10069","1","yes","1680"
"undefined","undefined","10069","10069","black","no","legacy","legacy","legacy","0","green","(0, 122, 0)","color","present","highProb","circular","swap","swap","swap","swap","red","(179, 0, 0)","lowProb","lowProb2","circular","uniform","1","undefined","0.114583333333","1","1","109.666666667","1","22","21056","0","0","0","0","0","0","0","0","46","0","1","0.114583333333","109.666666667","22","21056","46","46","46","08/21/17 09:43:58","Default description","yes","<openexp._canvas.legacy.legacy object at 0x049627F0>","<openexp._canvas.legacy.legacy object at 0x0496E7B0>","<openexp._canvas.legacy.legacy object at 0x0495A410>","<openexp._canvas.legacy.legacy object at 0x04A509D0>","<openexp._canvas.legacy.legacy object at 0x04A214B0>","<openexp._canvas.legacy.legacy object at 0x0496E3F0>","<openexp._canvas.legacy.legacy object at 0x04A22A50>","75","IndividualPriorityWithDis_v1.osexp","C:/Userdata/Michel/SpatialProb/IndividualPriorityMaps/Experiment2","no","mono","no","18","no","white","no","yes","0.09","98","1050","legacy","45","21","21","1","C:/Userdata/Michel/SpatialProb/IndividualPriorityMaps/Experiment2/data/subject-9.csv","legacy","9","192","25","Jazzy James","3.1.3","yes","598477b2b83f69022949e7e9","47","green","circular","red","circular","0","\","957","space","10069","10069","(80, 80, 80)","(0, 122, 0)","(179, 0, 0)","(155, 155, 155)","2","legacy","experiment","[0, 1, 2, 3, 4, 5, 6, 7]","\","2500","3000","0","8","252.758751519","1024","2","48000","-16","main","[(0, -252), (178, -178), (252, 0), (178, 178), (0, 252), (-178, 178), (-252, 0), (-178, -178)]","[]","9","odd","2","690616","755017","755016","602656","601649","1559","623309","623309","1559","1559","612726","808036","1558","755017","807076","806274","806274","NA","797","study_X","0","10069","1","yes","1680"
"undefined","undefined","10069","10069","black","no","legacy","legacy","legacy","0","red","(179, 0, 0)","shape","present","lowProb6","rectangular","swap","swap","same","same","red","(179, 0, 0)","lowProb","lowProb1","circular","uniform","1","undefined","0.119791666667","1","1","112.895833333","1","23","21676","0","0","0","0","0","0","0","0","47","0","1","0.119791666667","112.895833333","23","21676","47","47","47","08/21/17 09:43:58","Default description","yes","<openexp._canvas.legacy.legacy object at 0x049627F0>","<openexp._canvas.legacy.legacy object at 0x0496E7B0>","<openexp._canvas.legacy.legacy object at 0x0495A410>","<openexp._canvas.legacy.legacy object at 0x04A509D0>","<openexp._canvas.legacy.legacy object at 0x04A214B0>","<openexp._canvas.legacy.legacy object at 0x04A502D0>","<openexp._canvas.legacy.legacy object at 0x04A22A50>","75","IndividualPriorityWithDis_v1.osexp","C:/Userdata/Michel/SpatialProb/IndividualPriorityMaps/Experiment2","no","mono","no","18","no","white","no","yes","0.09","98","1050","legacy","315","22","22","1","C:/Userdata/Michel/SpatialProb/IndividualPriorityMaps/Experiment2/data/subject-9.csv","legacy","9","192","25","Jazzy James","3.1.3","yes","598477b2b83f69022949e7e9","47","red","rectangular","red","circular","0","/","620","space","10069","10069","(80, 80, 80)","(0, 122, 0)","(179, 0, 0)","(155, 155, 155)","2","legacy","experiment","[0, 1, 2, 3, 4, 5, 6, 7]","/","2500","3000","0","8","252.758751519","1024","2","48000","-16","main","[(0, -252), (178, -178), (252, 0), (178, 178), (0, 252), (-178, 178), (-252, 0), (-178, -178)]","[]","9","odd","1","690616","755017","755016","602656","601649","1559","623309","623309","1559","1559","612726","809892","1558","755017","809269","808467","808467","NA","797","study_X","0","10069","1","yes","1680"
"undefined","undefined","10069","10069","black","no","legacy","legacy","legacy","0","green","(0, 122, 0)","color","present","lowProb6","circular","swap","swap","same","same","red","(179, 0, 0)","lowProb","lowProb5","circular","uniform","1","undefined","0.125","1","1","117.265625","1","24","22515","0","0","0","0","0","0","0","0","48","0","1","0.125","117.265625","24","22515","48","48","48","08/21/17 09:43:58","Default description","yes","<openexp._canvas.legacy.legacy object at 0x049627F0>","<openexp._canvas.legacy.legacy object at 0x0496E7B0>","<openexp._canvas.legacy.legacy object at 0x0495A410>","<openexp._canvas.legacy.legacy object at 0x04A509D0>","<openexp._canvas.legacy.legacy object at 0x04A214B0>","<openexp._canvas.legacy.legacy object at 0x04A4BFD0>","<openexp._canvas.legacy.legacy object at 0x04A22A50>","75","IndividualPriorityWithDis_v1.osexp","C:/Userdata/Michel/SpatialProb/IndividualPriorityMaps/Experiment2","no","mono","no","18","no","white","no","yes","0.09","98","1050","legacy","45","23","23","1","C:/Userdata/Michel/SpatialProb/IndividualPriorityMaps/Experiment2/data/subject-9.csv","legacy","9","192","25","Jazzy James","3.1.3","yes","598477b2b83f69022949e7e9","47","green","circular","red","circular","0","\","839","space","10069","10069","(80, 80, 80)","(0, 122, 0)","(179, 0, 0)","(155, 155, 155)","2","legacy","experiment","[0, 1, 2, 3, 4, 5, 6, 7]","\","2500","3000","0","8","252.758751519","1024","2","48000","-16","main","[(0, -252), (178, -178), (252, 0), (178, 178), (0, 252), (-178, 178), (-252, 0), (-178, -178)]","[]","9","odd","6","690616","755017","755016","602656","601649","1559","623309","623309","1559","1559","612726","811948","1558","755017","811106","810303","810303","NA","797","study_X","0","10069","1","yes","1680"
"undefined","undefined","10069","10069","black","no","legacy","legacy","legacy","0","red","(179, 0, 0)","color","present","highProb","circular","swap","same","swap","same","green","(0, 122, 0)","highProbShape","highProbShape","circular","uniform","1","undefined","0.130208333333","1","1","122.395833333","1","25","23500","0","0","0","0","0","0","0","0","49","0","1","0.130208333333","122.395833333","25","23500","49","49","49","08/21/17 09:43:58","Default description","yes","<openexp._canvas.legacy.legacy object at 0x049627F0>","<openexp._canvas.legacy.legacy object at 0x0496E7B0>","<openexp._canvas.legacy.legacy object at 0x0495A410>","<openexp._canvas.legacy.legacy object at 0x04A509D0>","<openexp._canvas.legacy.legacy object at 0x04A214B0>","<openexp._canvas.legacy.legacy object at 0x04969DD0>","<openexp._canvas.legacy.legacy object at 0x04A22A50>","75","IndividualPriorityWithDis_v1.osexp","C:/Userdata/Michel/SpatialProb/IndividualPriorityMaps/Experiment2","no","mono","no","18","no","white","no","yes","0.09","98","1050","legacy","315","24","24","1","C:/Userdata/Michel/SpatialProb/IndividualPriorityMaps/Experiment2/data/subject-9.csv","legacy","9","192","25","Jazzy James","3.1.3","yes","598477b2b83f69022949e7e9","47","red","circular","green","circular","0","/","985","space","10069","10069","(80, 80, 80)","(0, 122, 0)","(179, 0, 0)","(155, 155, 155)","2","legacy","experiment","[0, 1, 2, 3, 4, 5, 6, 7]","/","2500","3000","0","8","252.758751519","1024","2","48000","-16","main","[(0, -252), (178, -178), (252, 0), (178, 178), (0, 252), (-178, 178), (-252, 0), (-178, -178)]","[]","9","odd","4","690616","755017","755016","602656","601649","1559","623309","623309","1559","1559","612726","814148","1558","755017","813159","812356","812356","NA","797","study_X","0","10069","1","yes","1680"
"undefined","undefined","10069","10069","black","no","legacy","legacy","legacy","0","green","(0, 122, 0)","shape","present","highProb","circular","swap","same","same","swap","green","(0, 122, 0)","lowProb","lowProb1","rectangular","uniform","1","undefined","0.135416666667","1","1","128.557291667","1","26","24683","0","0","0","0","0","0","0","0","50","0","1","0.135416666667","128.557291667","26","24683","50","50","50","08/21/17 09:43:58","Default description","yes","<openexp._canvas.legacy.legacy object at 0x049627F0>","<openexp._canvas.legacy.legacy object at 0x0496E7B0>","<openexp._canvas.legacy.legacy object at 0x0495A410>","<openexp._canvas.legacy.legacy object at 0x04A509D0>","<openexp._canvas.legacy.legacy object at 0x04A214B0>","<openexp._canvas.legacy.legacy object at 0x04A507D0>","<openexp._canvas.legacy.legacy object at 0x04A22A50>","75","IndividualPriorityWithDis_v1.osexp","C:/Userdata/Michel/SpatialProb/IndividualPriorityMaps/Experiment2","no","mono","no","18","no","white","no","yes","0.09","98","1050","legacy","45","25","25","1","C:/Userdata/Michel/SpatialProb/IndividualPriorityMaps/Experiment2/data/subject-9.csv","legacy","9","192","25","Jazzy James","3.1.3","yes","598477b2b83f69022949e7e9","47","green","circular","green","rectangular","0","\","1183","space","10069","10069","(80, 80, 80)","(0, 122, 0)","(179, 0, 0)","(155, 155, 155)","2","legacy","experiment","[0, 1, 2, 3, 4, 5, 6, 7]","\","2500","3000","0","8","252.758751519","1024","2","48000","-16","main","[(0, -252), (178, -178), (252, 0), (178, 178), (0, 252), (-178, 178), (-252, 0), (-178, -178)]","[]","9","odd","1","690616","755017","755016","602656","601649","1559","623309","623309","1559","1559","612726","816557","1558","755017","815370","814567","814567","NA","797","study_X","0","10069","1","yes","1680"
"undefined","undefined","10069","10069","black","no","legacy","legacy","legacy","0","green","(0, 122, 0)","shape","present","highProb","rectangular","same","swap","same","swap","green","(0, 122, 0)","lowProb","lowProb3","circular","uniform","1","undefined","0.140625","1","1","134.963541667","1","27","25913","0","0","0","0","0","0","0","0","51","0","1","0.140625","134.963541667","27","25913","51","51","51","08/21/17 09:43:58","Default description","yes","<openexp._canvas.legacy.legacy object at 0x049627F0>","<openexp._canvas.legacy.legacy object at 0x0496E7B0>","<openexp._canvas.legacy.legacy object at 0x0495A410>","<openexp._canvas.legacy.legacy object at 0x04A509D0>","<openexp._canvas.legacy.legacy object at 0x04A214B0>","<openexp._canvas.legacy.legacy object at 0x0495EA30>","<openexp._canvas.legacy.legacy object at 0x04A22A50>","75","IndividualPriorityWithDis_v1.osexp","C:/Userdata/Michel/SpatialProb/IndividualPriorityMaps/Experiment2","no","mono","no","18","no","white","no","yes","0.09","98","1050","legacy","315","26","26","1","C:/Userdata/Michel/SpatialProb/IndividualPriorityMaps/Experiment2/data/subject-9.csv","legacy","9","192","25","Jazzy James","3.1.3","yes","598477b2b83f69022949e7e9","47","green","rectangular","green","circular","0","/","1230","space","10069","10069","(80, 80, 80)","(0, 122, 0)","(179, 0, 0)","(155, 155, 155)","2","legacy","experiment","[0, 1, 2, 3, 4, 5, 6, 7]","/","2500","3000","0","8","252.758751519","1024","2","48000","-16","main","[(0, -252), (178, -178), (252, 0), (178, 178), (0, 252), (-178, 178), (-252, 0), (-178, -178)]","[]","9","odd","3","690616","755017","755016","602656","601649","1559","623309","623309","1559","1559","612726","819012","1558","755017","817779","816977","816977","NA","797","study_X","0","10069","1","yes","1680"
"undefined","undefined","10069","10069","black","no","legacy","legacy","legacy","0","green","(0, 122, 0)","color","present","lowProb3","rectangular","same","same","swap","swap","red","(179, 0, 0)","highProbShape","highProbShape","rectangular","uniform","1","undefined","0.145833333333","1","1","142.651041667","1","28","27389","0","0","0","0","0","0","0","0","52","0","1","0.145833333333","142.651041667","28","27389","52","52","52","08/21/17 09:43:58","Default description","yes","<openexp._canvas.legacy.legacy object at 0x049627F0>","<openexp._canvas.legacy.legacy object at 0x0496E7B0>","<openexp._canvas.legacy.legacy object at 0x0495A410>","<openexp._canvas.legacy.legacy object at 0x04A509D0>","<openexp._canvas.legacy.legacy object at 0x04A214B0>","<openexp._canvas.legacy.legacy object at 0x04A50850>","<openexp._canvas.legacy.legacy object at 0x04A22A50>","75","IndividualPriorityWithDis_v1.osexp","C:/Userdata/Michel/SpatialProb/IndividualPriorityMaps/Experiment2","no","mono","no","18","no","white","no","yes","0.09","98","1050","legacy","315","27","27","1","C:/Userdata/Michel/SpatialProb/IndividualPriorityMaps/Experiment2/data/subject-9.csv","legacy","9","192","25","Jazzy James","3.1.3","yes","598477b2b83f69022949e7e9","47","green","rectangular","red","rectangular","0","/","1476","space","10069","10069","(80, 80, 80)","(0, 122, 0)","(179, 0, 0)","(155, 155, 155)","2","legacy","experiment","[0, 1, 2, 3, 4, 5, 6, 7]","/","2500","3000","0","8","252.758751519","1024","2","48000","-16","main","[(0, -252), (178, -178), (252, 0), (178, 178), (0, 252), (-178, 178), (-252, 0), (-178, -178)]","[]","9","odd","4","690616","755017","755016","602656","601649","1559","623309","623309","1559","1559","612726","821708","1558","755017","820229","819426","819426","NA","797","study_X","0","10069","1","yes","1680"
"undefined","undefined","10069","10069","black","no","legacy","legacy","legacy","0","green","(0, 122, 0)","shape","present","highProb","rectangular","same","same","swap","swap","green","(0, 122, 0)","lowProb","lowProb5","circular","uniform","1","undefined","0.151041666667","1","1","151.979166667","1","29","29180","0","0","0","0","0","0","0","0","53","0","1","0.151041666667","151.979166667","29","29180","53","53","53","08/21/17 09:43:58","Default description","yes","<openexp._canvas.legacy.legacy object at 0x049627F0>","<openexp._canvas.legacy.legacy object at 0x0496E7B0>","<openexp._canvas.legacy.legacy object at 0x0495A410>","<openexp._canvas.legacy.legacy object at 0x04A509D0>","<openexp._canvas.legacy.legacy object at 0x04A214B0>","<openexp._canvas.legacy.legacy object at 0x04A51BB0>","<openexp._canvas.legacy.legacy object at 0x04A22A50>","75","IndividualPriorityWithDis_v1.osexp","C:/Userdata/Michel/SpatialProb/IndividualPriorityMaps/Experiment2","no","mono","no","18","no","white","no","yes","0.09","98","1050","legacy","315","28","28","1","C:/Userdata/Michel/SpatialProb/IndividualPriorityMaps/Experiment2/data/subject-9.csv","legacy","9","192","25","Jazzy James","3.1.3","yes","598477b2b83f69022949e7e9","47","green","rectangular","green","circular","0","/","1791","space","10069","10069","(80, 80, 80)","(0, 122, 0)","(179, 0, 0)","(155, 155, 155)","2","legacy","experiment","[0, 1, 2, 3, 4, 5, 6, 7]","/","2500","3000","0","8","252.758751519","1024","2","48000","-16","main","[(0, -252), (178, -178), (252, 0), (178, 178), (0, 252), (-178, 178), (-252, 0), (-178, -178)]","[]","9","odd","6","690616","755017","755016","602656","601649","1559","623309","623309","1559","1559","612726","824716","1558","755017","822922","822119","822119","NA","797","study_X","0","10069","1","yes","1680"
"undefined","undefined","10069","10069","black","no","legacy","legacy","legacy","0","green","(0, 122, 0)","color","present","lowProb3","circular","same","swap","swap","same","red","(179, 0, 0)","lowProb","lowProb4","circular","uniform","1","undefined","0.15625","1","1","155.59375","1","30","29874","0","0","0","0","0","0","0","0","54","0","1","0.15625","155.59375","30","29874","54","54","54","08/21/17 09:43:58","Default description","yes","<openexp._canvas.legacy.legacy object at 0x049627F0>","<openexp._canvas.legacy.legacy object at 0x0496E7B0>","<openexp._canvas.legacy.legacy object at 0x0495A410>","<openexp._canvas.legacy.legacy object at 0x04A509D0>","<openexp._canvas.legacy.legacy object at 0x04A214B0>","<openexp._canvas.legacy.legacy object at 0x0495FF30>","<openexp._canvas.legacy.legacy object at 0x04A22A50>","75","IndividualPriorityWithDis_v1.osexp","C:/Userdata/Michel/SpatialProb/IndividualPriorityMaps/Experiment2","no","mono","no","18","no","white","no","yes","0.09","98","1050","legacy","45","29","29","1","C:/Userdata/Michel/SpatialProb/IndividualPriorityMaps/Experiment2/data/subject-9.csv","legacy","9","192","25","Jazzy James","3.1.3","yes","598477b2b83f69022949e7e9","47","green","circular","red","circular","0","\","694","space","10069","10069","(80, 80, 80)","(0, 122, 0)","(179, 0, 0)","(155, 155, 155)","2","legacy","experiment","[0, 1, 2, 3, 4, 5, 6, 7]","\","2500","3000","0","8","252.758751519","1024","2","48000","-16","main","[(0, -252), (178, -178), (252, 0), (178, 178), (0, 252), (-178, 178), (-252, 0), (-178, -178)]","[]","9","odd","5","690616","755017","755016","602656","601649","1559","623309","623309","1559","1559","612726","826628","1558","755017","825932","825129","825129","NA","797","study_X","0","10069","1","yes","1680"
"undefined","undefined","10069","10069","black","no","legacy","legacy","legacy","0","red","(179, 0, 0)","color","present","highProbOther","rectangular","swap","swap","swap","swap","green","(0, 122, 0)","lowProb","lowProb1","rectangular","uniform","1","undefined","0.161458333333","1","1","160.59375","1","31","30834","0","0","0","0","0","0","0","0","55","0","1","0.161458333333","160.59375","31","30834","55","55","55","08/21/17 09:43:58","Default description","yes","<openexp._canvas.legacy.legacy object at 0x049627F0>","<openexp._canvas.legacy.legacy object at 0x0496E7B0>","<openexp._canvas.legacy.legacy object at 0x0495A410>","<openexp._canvas.legacy.legacy object at 0x04A509D0>","<openexp._canvas.legacy.legacy object at 0x04A214B0>","<openexp._canvas.legacy.legacy object at 0x0495A9B0>","<openexp._canvas.legacy.legacy object at 0x04A22A50>","75","IndividualPriorityWithDis_v1.osexp","C:/Userdata/Michel/SpatialProb/IndividualPriorityMaps/Experiment2","no","mono","no","18","no","white","no","yes","0.09","98","1050","legacy","45","30","30","1","C:/Userdata/Michel/SpatialProb/IndividualPriorityMaps/Experiment2/data/subject-9.csv","legacy","9","192","25","Jazzy James","3.1.3","yes","598477b2b83f69022949e7e9","47","red","rectangular","green","rectangular","0","\","960","space","10069","10069","(80, 80, 80)","(0, 122, 0)","(179, 0, 0)","(155, 155, 155)","2","legacy","experiment","[0, 1, 2, 3, 4, 5, 6, 7]","\","2500","3000","0","8","252.758751519","1024","2","48000","-16","main","[(0, -252), (178, -178), (252, 0), (178, 178), (0, 252), (-178, 178), (-252, 0), (-178, -178)]","[]","9","odd","1","690616","755017","755016","602656","601649","1559","623309","623309","1559","1559","612726","828796","1558","755017","827833","827030","827031","NA","797","study_X","0","10069","1","yes","1680"
"undefined","undefined","10069","10069","black","no","legacy","legacy","legacy","0","green","(0, 122, 0)","color","present","highProb","circular","swap","swap","swap","swap","red","(179, 0, 0)","lowProb","lowProb6","circular","uniform","1","undefined","0.166666666667","1","1","164.416666667","1","32","31568","0","0","0","0","0","0","0","0","56","0","1","0.166666666667","164.416666667","32","31568","56","56","56","08/21/17 09:43:58","Default description","yes","<openexp._canvas.legacy.legacy object at 0x049627F0>","<openexp._canvas.legacy.legacy object at 0x0496E7B0>","<openexp._canvas.legacy.legacy object at 0x0495A410>","<openexp._canvas.legacy.legacy object at 0x04A509D0>","<openexp._canvas.legacy.legacy object at 0x04A214B0>","<openexp._canvas.legacy.legacy object at 0x04972370>","<openexp._canvas.legacy.legacy object at 0x04A22A50>","75","IndividualPriorityWithDis_v1.osexp","C:/Userdata/Michel/SpatialProb/IndividualPriorityMaps/Experiment2","no","mono","no","18","no","white","no","yes","0.09","98","1050","legacy","315","31","31","1","C:/Userdata/Michel/SpatialProb/IndividualPriorityMaps/Experiment2/data/subject-9.csv","legacy","9","192","25","Jazzy James","3.1.3","yes","598477b2b83f69022949e7e9","47","green","circular","red","circular","0","/","734","space","10069","10069","(80, 80, 80)","(0, 122, 0)","(179, 0, 0)","(155, 155, 155)","2","legacy","experiment","[0, 1, 2, 3, 4, 5, 6, 7]","/","2500","3000","0","8","252.758751519","1024","2","48000","-16","main","[(0, -252), (178, -178), (252, 0), (178, 178), (0, 252), (-178, 178), (-252, 0), (-178, -178)]","[]","9","odd","7","690616","755017","755016","602656","601649","1559","623309","623309","1559","1559","612726","830756","1558","755017","830018","829215","829215","NA","797","study_X","0","10069","1","yes","1680"
"undefined","undefined","10069","10069","black","no","legacy","legacy","legacy","0","green","(0, 122, 0)","color","present","highProb","rectangular","same","swap","same","swap","red","(179, 0, 0)","highProbShape","highProbShape","rectangular","uniform","1","undefined","0.171875","1","1","167.880208333","1","33","32233","0","0","0","0","0","0","0","0","57","0","1","0.171875","167.880208333","33","32233","57","57","57","08/21/17 09:43:58","Default description","yes","<openexp._canvas.legacy.legacy object at 0x049627F0>","<openexp._canvas.legacy.legacy object at 0x0496E7B0>","<openexp._canvas.legacy.legacy object at 0x0495A410>","<openexp._canvas.legacy.legacy object at 0x04A509D0>","<openexp._canvas.legacy.legacy object at 0x04A214B0>","<openexp._canvas.legacy.legacy object at 0x04972DF0>","<openexp._canvas.legacy.legacy object at 0x04A22A50>","75","IndividualPriorityWithDis_v1.osexp","C:/Userdata/Michel/SpatialProb/IndividualPriorityMaps/Experiment2","no","mono","no","18","no","white","no","yes","0.09","98","1050","legacy","315","32","32","1","C:/Userdata/Michel/SpatialProb/IndividualPriorityMaps/Experiment2/data/subject-9.csv","legacy","9","192","25","Jazzy James","3.1.3","yes","598477b2b83f69022949e7e9","47","green","rectangular","red","rectangular","0","/","665","space","10069","10069","(80, 80, 80)","(0, 122, 0)","(179, 0, 0)","(155, 155, 155)","2","legacy","experiment","[0, 1, 2, 3, 4, 5, 6, 7]","/","2500","3000","0","8","252.758751519","1024","2","48000","-16","main","[(0, -252), (178, -178), (252, 0), (178, 178), (0, 252), (-178, 178), (-252, 0), (-178, -178)]","[]","9","odd","4","690616","755017","755016","602656","601649","1559","623309","623309","1559","1559","612726","832629","1558","755017","831960","831158","831158","NA","797","study_X","0","10069","1","yes","1680"
"undefined","undefined","10069","10069","black","no","legacy","legacy","legacy","0","green","(0, 122, 0)","color","present","highProb","rectangular","same","same","same","same","red","(179, 0, 0)","lowProb","lowProb5","rectangular","uniform","1","undefined","0.177083333333","1","1","171.510416667","1","34","32930","0","0","0","0","0","0","0","0","58","0","1","0.177083333333","171.510416667","34","32930","58","58","58","08/21/17 09:43:58","Default description","yes","<openexp._canvas.legacy.legacy object at 0x049627F0>","<openexp._canvas.legacy.legacy object at 0x0496E7B0>","<openexp._canvas.legacy.legacy object at 0x0495A410>","<openexp._canvas.legacy.legacy object at 0x04A509D0>","<openexp._canvas.legacy.legacy object at 0x04A214B0>","<openexp._canvas.legacy.legacy object at 0x0495EBB0>","<openexp._canvas.legacy.legacy object at 0x04A22A50>","75","IndividualPriorityWithDis_v1.osexp","C:/Userdata/Michel/SpatialProb/IndividualPriorityMaps/Experiment2","no","mono","no","18","no","white","no","yes","0.09","98","1050","legacy","45","33","33","1","C:/Userdata/Michel/SpatialProb/IndividualPriorityMaps/Experiment2/data/subject-9.csv","legacy","9","192","25","Jazzy James","3.1.3","yes","598477b2b83f69022949e7e9","47","green","rectangular","red","rectangular","0","\","697","space","10069","10069","(80, 80, 80)","(0, 122, 0)","(179, 0, 0)","(155, 155, 155)","2","legacy","experiment","[0, 1, 2, 3, 4, 5, 6, 7]","\","2500","3000","0","8","252.758751519","1024","2","48000","-16","main","[(0, -252), (178, -178), (252, 0), (178, 178), (0, 252), (-178, 178), (-252, 0), (-178, -178)]","[]","9","odd","6","690616","755017","755016","602656","601649","1559","623309","623309","1559","1559","612726","834540","1558","755017","833840","833037","833037","NA","797","study_X","0","10069","1","yes","1680"
"undefined","undefined","10069","10069","black","no","legacy","legacy","legacy","0","green","(0, 122, 0)","color","present","highProb","circular","same","swap","same","swap","red","(179, 0, 0)","lowProb","lowProb1","circular","uniform","1","undefined","0.182291666667","1","1","174.932291667","1","35","33587","0","0","0","0","0","0","0","0","59","0","1","0.182291666667","174.932291667","35","33587","59","59","59","08/21/17 09:43:58","Default description","yes","<openexp._canvas.legacy.legacy object at 0x049627F0>","<openexp._canvas.legacy.legacy object at 0x0496E7B0>","<openexp._canvas.legacy.legacy object at 0x0495A410>","<openexp._canvas.legacy.legacy object at 0x04A509D0>","<openexp._canvas.legacy.legacy object at 0x04A214B0>","<openexp._canvas.legacy.legacy object at 0x0496E950>","<openexp._canvas.legacy.legacy object at 0x04A22A50>","75","IndividualPriorityWithDis_v1.osexp","C:/Userdata/Michel/SpatialProb/IndividualPriorityMaps/Experiment2","no","mono","no","18","no","white","no","yes","0.09","98","1050","legacy","315","34","34","1","C:/Userdata/Michel/SpatialProb/IndividualPriorityMaps/Experiment2/data/subject-9.csv","legacy","9","192","25","Jazzy James","3.1.3","yes","598477b2b83f69022949e7e9","47","green","circular","red","circular","0","/","657","space","10069","10069","(80, 80, 80)","(0, 122, 0)","(179, 0, 0)","(155, 155, 155)","2","legacy","experiment","[0, 1, 2, 3, 4, 5, 6, 7]","/","2500","3000","0","8","252.758751519","1024","2","48000","-16","main","[(0, -252), (178, -178), (252, 0), (178, 178), (0, 252), (-178, 178), (-252, 0), (-178, -178)]","[]","9","odd","1","690616","755017","755016","602656","601649","1559","623309","623309","1559","1559","612726","836420","1558","755017","835760","834957","834957","NA","797","study_X","0","10069","1","yes","1680"
"undefined","undefined","10069","10069","black","no","legacy","legacy","legacy","0","green","(0, 122, 0)","color","present","highProb","circular","same","same","same","same","red","(179, 0, 0)","lowProb","lowProb5","circular","uniform","1","undefined","0.1875","1","1","178.619791667","1","36","34295","0","0","0","0","0","0","0","0","60","0","1","0.1875","178.619791667","36","34295","60","60","60","08/21/17 09:43:58","Default description","yes","<openexp._canvas.legacy.legacy object at 0x049627F0>","<openexp._canvas.legacy.legacy object at 0x0496E7B0>","<openexp._canvas.legacy.legacy object at 0x0495A410>","<openexp._canvas.legacy.legacy object at 0x04A509D0>","<openexp._canvas.legacy.legacy object at 0x04A214B0>","<openexp._canvas.legacy.legacy object at 0x04962D30>","<openexp._canvas.legacy.legacy object at 0x04A22A50>","75","IndividualPriorityWithDis_v1.osexp","C:/Userdata/Michel/SpatialProb/IndividualPriorityMaps/Experiment2","no","mono","no","18","no","white","no","yes","0.09","98","1050","legacy","45","35","35","1","C:/Userdata/Michel/SpatialProb/IndividualPriorityMaps/Experiment2/data/subject-9.csv","legacy","9","192","25","Jazzy James","3.1.3","yes","598477b2b83f69022949e7e9","47","green","circular","red","circular","0","\","708","space","10069","10069","(80, 80, 80)","(0, 122, 0)","(179, 0, 0)","(155, 155, 155)","2","legacy","experiment","[0, 1, 2, 3, 4, 5, 6, 7]","\","2500","3000","0","8","252.758751519","1024","2","48000","-16","main","[(0, -252), (178, -178), (252, 0), (178, 178), (0, 252), (-178, 178), (-252, 0), (-178, -178)]","[]","9","odd","6","690616","755017","755016","602656","601649","1559","623309","623309","1559","1559","612726","838348","1558","755017","837637","836834","836834","NA","797","study_X","0","10069","1","yes","1680"
"undefined","undefined","10069","10069","black","no","legacy","legacy","legacy","0","green","(0, 122, 0)","color","present","highProb","circular","same","same","same","same","red","(179, 0, 0)","lowProb","lowProb1","circular","uniform","1","undefined","0.192708333333","1","1","182.390625","1","37","35019","0","0","0","0","0","0","0","0","61","0","1","0.192708333333","182.390625","37","35019","61","61","61","08/21/17 09:43:58","Default description","yes","<openexp._canvas.legacy.legacy object at 0x049627F0>","<openexp._canvas.legacy.legacy object at 0x0496E7B0>","<openexp._canvas.legacy.legacy object at 0x0495A410>","<openexp._canvas.legacy.legacy object at 0x04A509D0>","<openexp._canvas.legacy.legacy object at 0x04A214B0>","<openexp._canvas.legacy.legacy object at 0x0495EFF0>","<openexp._canvas.legacy.legacy object at 0x04A22A50>","75","IndividualPriorityWithDis_v1.osexp","C:/Userdata/Michel/SpatialProb/IndividualPriorityMaps/Experiment2","no","mono","no","18","no","white","no","yes","0.09","98","1050","legacy","45","36","36","1","C:/Userdata/Michel/SpatialProb/IndividualPriorityMaps/Experiment2/data/subject-9.csv","legacy","9","192","25","Jazzy James","3.1.3","yes","598477b2b83f69022949e7e9","47","green","circular","red","circular","0","\","724","space","10069","10069","(80, 80, 80)","(0, 122, 0)","(179, 0, 0)","(155, 155, 155)","2","legacy","experiment","[0, 1, 2, 3, 4, 5, 6, 7]","\","2500","3000","0","8","252.758751519","1024","2","48000","-16","main","[(0, -252), (178, -178), (252, 0), (178, 178), (0, 252), (-178, 178), (-252, 0), (-178, -178)]","[]","9","odd","1","690616","755017","755016","602656","601649","1559","623309","623309","1559","1559","612726","840300","1558","755017","839573","838770","838770","NA","797","study_X","0","10069","1","yes","1680"
"undefined","undefined","10069","10069","black","no","legacy","legacy","legacy","0","red","(179, 0, 0)","color","absent","highProb","rectangular","swap","swap","same","swap","red","(179, 0, 0)","lowProb","lowProb4","rectangular","uniform","1","undefined","0.197916666667","1","1","186.057291667","1","38","35723","0","0","0","0","0","0","0","0","62","0","1","0.197916666667","186.057291667","38","35723","62","62","62","08/21/17 09:43:58","Default description","yes","<openexp._canvas.legacy.legacy object at 0x049627F0>","<openexp._canvas.legacy.legacy object at 0x0496E7B0>","<openexp._canvas.legacy.legacy object at 0x0495A410>","<openexp._canvas.legacy.legacy object at 0x04A509D0>","<openexp._canvas.legacy.legacy object at 0x04A214B0>","<openexp._canvas.legacy.legacy object at 0x04979610>","<openexp._canvas.legacy.legacy object at 0x04A22A50>","75","IndividualPriorityWithDis_v1.osexp","C:/Userdata/Michel/SpatialProb/IndividualPriorityMaps/Experiment2","no","mono","no","18","no","white","no","yes","0.09","98","1050","legacy","45","37","37","1","C:/Userdata/Michel/SpatialProb/IndividualPriorityMaps/Experiment2/data/subject-9.csv","legacy","9","192","25","Jazzy James","3.1.3","yes","598477b2b83f69022949e7e9","47","red","rectangular","red","rectangular","0","\","704","space","10069","10069","(80, 80, 80)","(0, 122, 0)","(179, 0, 0)","(155, 155, 155)","2","legacy","experiment","[0, 1, 2, 3, 4, 5, 6, 7]","\","2500","3000","0","8","252.758751519","1024","2","48000","-16","main","[(0, -252), (178, -178), (252, 0), (178, 178), (0, 252), (-178, 178), (-252, 0), (-178, -178)]","[]","9","odd","5","690616","755017","755016","602656","601649","1559","623309","623309","1559","1559","612726","842212","1558","755017","841505","840702","840702","NA","797","study_X","0","10069","1","yes","1680"
"undefined","undefined","10069","10069","black","no","legacy","legacy","legacy","0","green","(0, 122, 0)","shape","present","highProb","rectangular","swap","same","swap","swap","green","(0, 122, 0)","highProbColor","highProbColor","circular","uniform","1","undefined","0.203125","1","1","195.552083333","1","39","37546","0","0","0","0","0","0","0","0","63","0","1","0.203125","195.552083333","39","37546","63","63","63","08/21/17 09:43:58","Default description","yes","<openexp._canvas.legacy.legacy object at 0x049627F0>","<openexp._canvas.legacy.legacy object at 0x0496E7B0>","<openexp._canvas.legacy.legacy object at 0x0495A410>","<openexp._canvas.legacy.legacy object at 0x04A509D0>","<openexp._canvas.legacy.legacy object at 0x04A214B0>","<openexp._canvas.legacy.legacy object at 0x04A51B30>","<openexp._canvas.legacy.legacy object at 0x04A22A50>","75","IndividualPriorityWithDis_v1.osexp","C:/Userdata/Michel/SpatialProb/IndividualPriorityMaps/Experiment2","no","mono","no","18","no","white","no","yes","0.09","98","1050","legacy","45","38","38","1","C:/Userdata/Michel/SpatialProb/IndividualPriorityMaps/Experiment2/data/subject-9.csv","legacy","9","192","25","Jazzy James","3.1.3","yes","598477b2b83f69022949e7e9","47","green","rectangular","green","circular","0","\","1823","space","10069","10069","(80, 80, 80)","(0, 122, 0)","(179, 0, 0)","(155, 155, 155)","2","legacy","experiment","[0, 1, 2, 3, 4, 5, 6, 7]","\","2500","3000","0","8","252.758751519","1024","2","48000","-16","main","[(0, -252), (178, -178), (252, 0), (178, 178), (0, 252), (-178, 178), (-252, 0), (-178, -178)]","[]","9","odd","0","690616","755017","755016","602656","601649","1559","623309","623309","1559","1559","612726","845260","1558","755017","843433","842630","842630","NA","797","study_X","0","10069","1","yes","1680"
"undefined","undefined","10069","10069","black","no","legacy","legacy","legacy","0","green","(0, 122, 0)","color","present","highProb","circular","same","swap","swap","same","red","(179, 0, 0)","lowProb","lowProb1","circular","uniform","1","undefined","0.208333333333","1","1","199.234375","1","40","38253","0","0","0","0","0","0","0","0","64","0","1","0.208333333333","199.234375","40","38253","64","64","64","08/21/17 09:43:58","Default description","yes","<openexp._canvas.legacy.legacy object at 0x049627F0>","<openexp._canvas.legacy.legacy object at 0x0496E7B0>","<openexp._canvas.legacy.legacy object at 0x0495A410>","<openexp._canvas.legacy.legacy object at 0x04A509D0>","<openexp._canvas.legacy.legacy object at 0x04A214B0>","<openexp._canvas.legacy.legacy object at 0x049729F0>","<openexp._canvas.legacy.legacy object at 0x04A22A50>","75","IndividualPriorityWithDis_v1.osexp","C:/Userdata/Michel/SpatialProb/IndividualPriorityMaps/Experiment2","no","mono","no","18","no","white","no","yes","0.09","98","1050","legacy","315","39","39","1","C:/Userdata/Michel/SpatialProb/IndividualPriorityMaps/Experiment2/data/subject-9.csv","legacy","9","192","25","Jazzy James","3.1.3","yes","598477b2b83f69022949e7e9","47","green","circular","red","circular","0","/","707","space","10069","10069","(80, 80, 80)","(0, 122, 0)","(179, 0, 0)","(155, 155, 155)","2","legacy","experiment","[0, 1, 2, 3, 4, 5, 6, 7]","/","2500","3000","0","8","252.758751519","1024","2","48000","-16","main","[(0, -252), (178, -178), (252, 0), (178, 178), (0, 252), (-178, 178), (-252, 0), (-178, -178)]","[]","9","odd","1","690616","755017","755016","602656","601649","1559","623309","623309","1559","1559","612726","847188","1558","755017","846477","845674","845674","NA","797","study_X","0","10069","1","yes","1680"
"undefined","undefined","10069","10069","black","no","legacy","legacy","legacy","0","red","(179, 0, 0)","color","present","highProb","rectangular","swap","swap","swap","swap","green","(0, 122, 0)","lowProb","lowProb6","rectangular","uniform","1","undefined","0.213541666667","1","1","204.135416667","1","41","39194","0","0","0","0","0","0","0","0","65","0","1","0.213541666667","204.135416667","41","39194","65","65","65","08/21/17 09:43:58","Default description","yes","<openexp._canvas.legacy.legacy object at 0x049627F0>","<openexp._canvas.legacy.legacy object at 0x0496E7B0>","<openexp._canvas.legacy.legacy object at 0x0495A410>","<openexp._canvas.legacy.legacy object at 0x04A509D0>","<openexp._canvas.legacy.legacy object at 0x04A214B0>","<openexp._canvas.legacy.legacy object at 0x04A50990>","<openexp._canvas.legacy.legacy object at 0x04A22A50>","75","IndividualPriorityWithDis_v1.osexp","C:/Userdata/Michel/SpatialProb/IndividualPriorityMaps/Experiment2","no","mono","no","18","no","white","no","yes","0.09","98","1050","legacy","45","40","40","1","C:/Userdata/Michel/SpatialProb/IndividualPriorityMaps/Experiment2/data/subject-9.csv","legacy","9","192","25","Jazzy James","3.1.3","yes","598477b2b83f69022949e7e9","47","red","rectangular","green","rectangular","0","\","941","space","10069","10069","(80, 80, 80)","(0, 122, 0)","(179, 0, 0)","(155, 155, 155)","2","legacy","experiment","[0, 1, 2, 3, 4, 5, 6, 7]","\","2500","3000","0","8","252.758751519","1024","2","48000","-16","main","[(0, -252), (178, -178), (252, 0), (178, 178), (0, 252), (-178, 178), (-252, 0), (-178, -178)]","[]","9","odd","7","690616","755017","755016","602656","601649","1559","623309","623309","1559","1559","612726","849340","1558","755017","848395","847592","847592","NA","797","study_X","0","10069","1","yes","1680"
"undefined","undefined","10069","10069","black","no","legacy","legacy","legacy","0","green","(0, 122, 0)","color","absent","lowProb1","rectangular","swap","same","same","same","green","(0, 122, 0)","highProbShape","highProbShape","rectangular","uniform","1","undefined","0.21875","1","1","209.375","1","42","40200","0","0","0","0","0","0","0","0","66","0","1","0.21875","209.375","42","40200","66","66","66","08/21/17 09:43:58","Default description","yes","<openexp._canvas.legacy.legacy object at 0x049627F0>","<openexp._canvas.legacy.legacy object at 0x0496E7B0>","<openexp._canvas.legacy.legacy object at 0x0495A410>","<openexp._canvas.legacy.legacy object at 0x04A509D0>","<openexp._canvas.legacy.legacy object at 0x04A214B0>","<openexp._canvas.legacy.legacy object at 0x049793F0>","<openexp._canvas.legacy.legacy object at 0x04A22A50>","75","IndividualPriorityWithDis_v1.osexp","C:/Userdata/Michel/SpatialProb/IndividualPriorityMaps/Experiment2","no","mono","no","18","no","white","no","yes","0.09","98","1050","legacy","315","41","41","1","C:/Userdata/Michel/SpatialProb/IndividualPriorityMaps/Experiment2/data/subject-9.csv","legacy","9","192","25","Jazzy James","3.1.3","yes","598477b2b83f69022949e7e9","47","green","rectangular","green","rectangular","0","/","1006","space","10069","10069","(80, 80, 80)","(0, 122, 0)","(179, 0, 0)","(155, 155, 155)","2","legacy","experiment","[0, 1, 2, 3, 4, 5, 6, 7]","/","2500","3000","0","8","252.758751519","1024","2","48000","-16","main","[(0, -252), (178, -178), (252, 0), (178, 178), (0, 252), (-178, 178), (-252, 0), (-178, -178)]","[]","9","odd","4","690616","755017","755016","602656","601649","1559","623309","623309","1559","1559","612726","851572","1558","755017","850563","849760","849761","NA","797","study_X","0","10069","1","yes","1680"
"undefined","undefined","10069","10069","black","no","legacy","legacy","legacy","0","red","(179, 0, 0)","color","present","lowProb2","circular","swap","swap","same","swap","green","(0, 122, 0)","lowProb","lowProb1","circular","uniform","1","undefined","0.223958333333","1","1","213.885416667","1","43","41066","0","0","0","0","0","0","0","0","67","0","1","0.223958333333","213.885416667","43","41066","67","67","67","08/21/17 09:43:58","Default description","yes","<openexp._canvas.legacy.legacy object at 0x049627F0>","<openexp._canvas.legacy.legacy object at 0x0496E7B0>","<openexp._canvas.legacy.legacy object at 0x0495A410>","<openexp._canvas.legacy.legacy object at 0x04A509D0>","<openexp._canvas.legacy.legacy object at 0x04A214B0>","<openexp._canvas.legacy.legacy object at 0x04A51990>","<openexp._canvas.legacy.legacy object at 0x04A22A50>","75","IndividualPriorityWithDis_v1.osexp","C:/Userdata/Michel/SpatialProb/IndividualPriorityMaps/Experiment2","no","mono","no","18","no","white","no","yes","0.09","98","1050","legacy","315","42","42","1","C:/Userdata/Michel/SpatialProb/IndividualPriorityMaps/Experiment2/data/subject-9.csv","legacy","9","192","25","Jazzy James","3.1.3","yes","598477b2b83f69022949e7e9","47","red","circular","green","circular","0","/","866","space","10069","10069","(80, 80, 80)","(0, 122, 0)","(179, 0, 0)","(155, 155, 155)","2","legacy","experiment","[0, 1, 2, 3, 4, 5, 6, 7]","/","2500","3000","0","8","252.758751519","1024","2","48000","-16","main","[(0, -252), (178, -178), (252, 0), (178, 178), (0, 252), (-178, 178), (-252, 0), (-178, -178)]","[]","9","odd","1","690616","755017","755016","602656","601649","1559","623309","623309","1559","1559","612726","853660","1558","755017","852791","851988","851988","NA","797","study_X","0","10069","1","yes","1680"
"undefined","undefined","10069","10069","black","no","legacy","legacy","legacy","0","red","(179, 0, 0)","color","present","lowProb1","circular","same","same","same","same","green","(0, 122, 0)","lowProb","lowProb4","circular","uniform","1","undefined","0.229166666667","1","1","220.869791667","1","44","42407","0","0","0","0","0","0","0","0","68","0","1","0.229166666667","220.869791667","44","42407","68","68","68","08/21/17 09:43:58","Default description","yes","<openexp._canvas.legacy.legacy object at 0x049627F0>","<openexp._canvas.legacy.legacy object at 0x0496E7B0>","<openexp._canvas.legacy.legacy object at 0x0495A410>","<openexp._canvas.legacy.legacy object at 0x04A509D0>","<openexp._canvas.legacy.legacy object at 0x04A214B0>","<openexp._canvas.legacy.legacy object at 0x04972950>","<openexp._canvas.legacy.legacy object at 0x04A22A50>","75","IndividualPriorityWithDis_v1.osexp","C:/Userdata/Michel/SpatialProb/IndividualPriorityMaps/Experiment2","no","mono","no","18","no","white","no","yes","0.09","98","1050","legacy","45","43","43","1","C:/Userdata/Michel/SpatialProb/IndividualPriorityMaps/Experiment2/data/subject-9.csv","legacy","9","192","25","Jazzy James","3.1.3","yes","598477b2b83f69022949e7e9","47","red","circular","green","circular","0","\","1341","space","10069","10069","(80, 80, 80)","(0, 122, 0)","(179, 0, 0)","(155, 155, 155)","2","legacy","experiment","[0, 1, 2, 3, 4, 5, 6, 7]","\","2500","3000","0","8","252.758751519","1024","2","48000","-16","main","[(0, -252), (178, -178), (252, 0), (178, 178), (0, 252), (-178, 178), (-252, 0), (-178, -178)]","[]","9","odd","5","690616","755017","755016","602656","601649","1559","623309","623309","1559","1559","612726","856220","1558","755017","854876","854074","854074","NA","797","study_X","0","10069","1","yes","1680"
"undefined","undefined","10069","10069","black","no","legacy","legacy","legacy","0","green","(0, 122, 0)","shape","absent","lowProb5","circular","swap","same","same","same","green","(0, 122, 0)","lowProb","lowProb4","circular","uniform","1","undefined","0.234375","1","1","224.71875","1","45","43146","0","0","0","0","0","0","0","0","69","0","1","0.234375","224.71875","45","43146","69","69","69","08/21/17 09:43:58","Default description","yes","<openexp._canvas.legacy.legacy object at 0x049627F0>","<openexp._canvas.legacy.legacy object at 0x0496E7B0>","<openexp._canvas.legacy.legacy object at 0x0495A410>","<openexp._canvas.legacy.legacy object at 0x04A509D0>","<openexp._canvas.legacy.legacy object at 0x04A214B0>","<openexp._canvas.legacy.legacy object at 0x04A4BC70>","<openexp._canvas.legacy.legacy object at 0x04A22A50>","75","IndividualPriorityWithDis_v1.osexp","C:/Userdata/Michel/SpatialProb/IndividualPriorityMaps/Experiment2","no","mono","no","18","no","white","no","yes","0.09","98","1050","legacy","315","44","44","1","C:/Userdata/Michel/SpatialProb/IndividualPriorityMaps/Experiment2/data/subject-9.csv","legacy","9","192","25","Jazzy James","3.1.3","yes","598477b2b83f69022949e7e9","47","green","circular","green","circular","0","/","739","space","10069","10069","(80, 80, 80)","(0, 122, 0)","(179, 0, 0)","(155, 155, 155)","2","legacy","experiment","[0, 1, 2, 3, 4, 5, 6, 7]","/","2500","3000","0","8","252.758751519","1024","2","48000","-16","main","[(0, -252), (178, -178), (252, 0), (178, 178), (0, 252), (-178, 178), (-252, 0), (-178, -178)]","[]","9","odd","5","690616","755017","755016","602656","601649","1559","623309","623309","1559","1559","612726","858196","1558","755017","857454","856651","856651","NA","797","study_X","0","10069","1","yes","1680"
"undefined","undefined","10069","10069","black","no","legacy","legacy","legacy","0","red","(179, 0, 0)","shape","present","highProb","rectangular","swap","swap","swap","same","red","(179, 0, 0)","lowProb","lowProb3","circular","uniform","1","undefined","0.239583333333","1","1","231.828125","1","46","44511","0","0","0","0","0","0","0","0","70","0","1","0.239583333333","231.828125","46","44511","70","70","70","08/21/17 09:43:58","Default description","yes","<openexp._canvas.legacy.legacy object at 0x049627F0>","<openexp._canvas.legacy.legacy object at 0x0496E7B0>","<openexp._canvas.legacy.legacy object at 0x0495A410>","<openexp._canvas.legacy.legacy object at 0x04A509D0>","<openexp._canvas.legacy.legacy object at 0x04A214B0>","<openexp._canvas.legacy.legacy object at 0x04A51230>","<openexp._canvas.legacy.legacy object at 0x04A22A50>","75","IndividualPriorityWithDis_v1.osexp","C:/Userdata/Michel/SpatialProb/IndividualPriorityMaps/Experiment2","no","mono","no","18","no","white","no","yes","0.09","98","1050","legacy","315","45","45","1","C:/Userdata/Michel/SpatialProb/IndividualPriorityMaps/Experiment2/data/subject-9.csv","legacy","9","192","25","Jazzy James","3.1.3","yes","598477b2b83f69022949e7e9","47","red","rectangular","red","circular","0","/","1365","space","10069","10069","(80, 80, 80)","(0, 122, 0)","(179, 0, 0)","(155, 155, 155)","2","legacy","experiment","[0, 1, 2, 3, 4, 5, 6, 7]","/","2500","3000","0","8","252.758751519","1024","2","48000","-16","main","[(0, -252), (178, -178), (252, 0), (178, 178), (0, 252), (-178, 178), (-252, 0), (-178, -178)]","[]","9","odd","3","690616","755017","755016","602656","601649","1559","623309","623309","1559","1559","612726","860780","1558","755017","859411","858608","858608","NA","797","study_X","0","10069","1","yes","1680"
"undefined","undefined","10069","10069","black","no","legacy","legacy","legacy","0","red","(179, 0, 0)","color","present","highProb","circular","same","swap","swap","same","green","(0, 122, 0)","lowProb","lowProb3","circular","uniform","1","undefined","0.244791666667","1","1","236.260416667","1","47","45362","0","0","0","0","0","0","0","0","71","0","1","0.244791666667","236.260416667","47","45362","71","71","71","08/21/17 09:43:58","Default description","yes","<openexp._canvas.legacy.legacy object at 0x049627F0>","<openexp._canvas.legacy.legacy object at 0x0496E7B0>","<openexp._canvas.legacy.legacy object at 0x0495A410>","<openexp._canvas.legacy.legacy object at 0x04A509D0>","<openexp._canvas.legacy.legacy object at 0x04A214B0>","<openexp._canvas.legacy.legacy object at 0x04A4BB10>","<openexp._canvas.legacy.legacy object at 0x04A22A50>","75","IndividualPriorityWithDis_v1.osexp","C:/Userdata/Michel/SpatialProb/IndividualPriorityMaps/Experiment2","no","mono","no","18","no","white","no","yes","0.09","98","1050","legacy","315","46","46","1","C:/Userdata/Michel/SpatialProb/IndividualPriorityMaps/Experiment2/data/subject-9.csv","legacy","9","192","25","Jazzy James","3.1.3","yes","598477b2b83f69022949e7e9","47","red","circular","green","circular","0","/","851","space","10069","10069","(80, 80, 80)","(0, 122, 0)","(179, 0, 0)","(155, 155, 155)","2","legacy","experiment","[0, 1, 2, 3, 4, 5, 6, 7]","/","2500","3000","0","8","252.758751519","1024","2","48000","-16","main","[(0, -252), (178, -178), (252, 0), (178, 178), (0, 252), (-178, 178), (-252, 0), (-178, -178)]","[]","9","odd","3","690616","755017","755016","602656","601649","1559","623309","623309","1559","1559","612726","862844","1558","755017","861989","861187","861187","NA","797","study_X","0","10069","1","yes","1680"
"undefined","undefined","10069","10069","black","no","legacy","legacy","legacy","0","green","(0, 122, 0)","shape","present","highProb","circular","swap","same","same","swap","green","(0, 122, 0)","lowProb","lowProb3","rectangular","uniform","1","undefined","0.25","1","1","246.817708333","1","48","47389","0","0","0","0","0","0","0","0","72","0","1","0.25","246.817708333","48","47389","72","72","72","08/21/17 09:43:58","Default description","yes","<openexp._canvas.legacy.legacy object at 0x049627F0>","<openexp._canvas.legacy.legacy object at 0x0496E7B0>","<openexp._canvas.legacy.legacy object at 0x0495A410>","<openexp._canvas.legacy.legacy object at 0x04A509D0>","<openexp._canvas.legacy.legacy object at 0x04A214B0>","<openexp._canvas.legacy.legacy object at 0x04A4BF50>","<openexp._canvas.legacy.legacy object at 0x04A22A50>","75","IndividualPriorityWithDis_v1.osexp","C:/Userdata/Michel/SpatialProb/IndividualPriorityMaps/Experiment2","no","mono","no","18","no","white","no","yes","0.09","98","1050","legacy","45","47","47","1","C:/Userdata/Michel/SpatialProb/IndividualPriorityMaps/Experiment2/data/subject-9.csv","legacy","9","192","25","Jazzy James","3.1.3","yes","598477b2b83f69022949e7e9","47","green","circular","green","rectangular","0","\","2027","space","10069","10069","(80, 80, 80)","(0, 122, 0)","(179, 0, 0)","(155, 155, 155)","2","legacy","experiment","[0, 1, 2, 3, 4, 5, 6, 7]","\","2500","3000","0","8","252.758751519","1024","2","48000","-16","main","[(0, -252), (178, -178), (252, 0), (178, 178), (0, 252), (-178, 178), (-252, 0), (-178, -178)]","[]","9","odd","3","690616","755017","755016","602656","601649","1559","623309","623309","1559","1559","612726","866147","1558","755017","864117","863314","863314","NA","797","study_X","0","10069","1","yes","1680"
"undefined","undefined","10069","10069","black","no","legacy","legacy","legacy","0","red","(179, 0, 0)","shape","present","highProb","circular","swap","same","swap","same","red","(179, 0, 0)","lowProb","lowProb6","rectangular","uniform","1","undefined","0.255208333333","1","1","252.255208333","1","49","48433","0","0","0","0","0","0","0","0","73","0","1","0.255208333333","252.255208333","49","48433","73","73","73","08/21/17 09:43:58","Default description","yes","<openexp._canvas.legacy.legacy object at 0x049627F0>","<openexp._canvas.legacy.legacy object at 0x0496E7B0>","<openexp._canvas.legacy.legacy object at 0x0495A410>","<openexp._canvas.legacy.legacy object at 0x04A509D0>","<openexp._canvas.legacy.legacy object at 0x04A214B0>","<openexp._canvas.legacy.legacy object at 0x0495E870>","<openexp._canvas.legacy.legacy object at 0x04A22A50>","75","IndividualPriorityWithDis_v1.osexp","C:/Userdata/Michel/SpatialProb/IndividualPriorityMaps/Experiment2","no","mono","no","18","no","white","no","yes","0.09","98","1050","legacy","45","48","48","1","C:/Userdata/Michel/SpatialProb/IndividualPriorityMaps/Experiment2/data/subject-9.csv","legacy","9","192","25","Jazzy James","3.1.3","yes","598477b2b83f69022949e7e9","47","red","circular","red","rectangular","0","\","1044","space","10069","10069","(80, 80, 80)","(0, 122, 0)","(179, 0, 0)","(155, 155, 155)","2","legacy","experiment","[0, 1, 2, 3, 4, 5, 6, 7]","\","2500","3000","0","8","252.758751519","1024","2","48000","-16","main","[(0, -252), (178, -178), (252, 0), (178, 178), (0, 252), (-178, 178), (-252, 0), (-178, -178)]","[]","9","odd","7","690616","755017","755016","602656","601649","1559","623309","623309","1559","1559","612726","868396","1558","755017","867349","866546","866546","NA","797","study_X","0","10069","1","yes","1680"
"undefined","undefined","10069","10069","black","no","legacy","legacy","legacy","0","red","(179, 0, 0)","shape","present","highProb","circular","same","same","same","same","red","(179, 0, 0)","lowProb","lowProb6","rectangular","uniform","1","undefined","0.260416666667","1","1","254.744791667","1","50","48911","0","0","0","0","0","0","0","0","74","0","1","0.260416666667","254.744791667","50","48911","74","74","74","08/21/17 09:43:58","Default description","yes","<openexp._canvas.legacy.legacy object at 0x049627F0>","<openexp._canvas.legacy.legacy object at 0x0496E7B0>","<openexp._canvas.legacy.legacy object at 0x0495A410>","<openexp._canvas.legacy.legacy object at 0x04A509D0>","<openexp._canvas.legacy.legacy object at 0x04A214B0>","<openexp._canvas.legacy.legacy object at 0x04974C50>","<openexp._canvas.legacy.legacy object at 0x04A22A50>","75","IndividualPriorityWithDis_v1.osexp","C:/Userdata/Michel/SpatialProb/IndividualPriorityMaps/Experiment2","no","mono","no","18","no","white","no","yes","0.09","98","1050","legacy","45","49","49","1","C:/Userdata/Michel/SpatialProb/IndividualPriorityMaps/Experiment2/data/subject-9.csv","legacy","9","192","25","Jazzy James","3.1.3","yes","598477b2b83f69022949e7e9","47","red","circular","red","rectangular","0","\","478","space","10069","10069","(80, 80, 80)","(0, 122, 0)","(179, 0, 0)","(155, 155, 155)","2","legacy","experiment","[0, 1, 2, 3, 4, 5, 6, 7]","\","2500","3000","0","8","252.758751519","1024","2","48000","-16","main","[(0, -252), (178, -178), (252, 0), (178, 178), (0, 252), (-178, 178), (-252, 0), (-178, -178)]","[]","9","odd","7","690616","755017","755016","602656","601649","1559","623309","623309","1559","1559","612726","870100","1558","755017","869619","868816","868816","NA","797","study_X","0","10069","1","yes","1680"
"undefined","undefined","10069","10069","black","no","legacy","legacy","legacy","0","green","(0, 122, 0)","color","present","lowProb1","circular","swap","same","same","swap","red","(179, 0, 0)","highProbColor","highProbColor","circular","uniform","1","undefined","0.265625","1","1","259.625","1","51","49848","0","0","0","0","0","0","0","0","75","0","1","0.265625","259.625","51","49848","75","75","75","08/21/17 09:43:58","Default description","yes","<openexp._canvas.legacy.legacy object at 0x049627F0>","<openexp._canvas.legacy.legacy object at 0x0496E7B0>","<openexp._canvas.legacy.legacy object at 0x0495A410>","<openexp._canvas.legacy.legacy object at 0x04A509D0>","<openexp._canvas.legacy.legacy object at 0x04A214B0>","<openexp._canvas.legacy.legacy object at 0x0495E5B0>","<openexp._canvas.legacy.legacy object at 0x04A22A50>","75","IndividualPriorityWithDis_v1.osexp","C:/Userdata/Michel/SpatialProb/IndividualPriorityMaps/Experiment2","no","mono","no","18","no","white","no","yes","0.09","98","1050","legacy","45","50","50","1","C:/Userdata/Michel/SpatialProb/IndividualPriorityMaps/Experiment2/data/subject-9.csv","legacy","9","192","25","Jazzy James","3.1.3","yes","598477b2b83f69022949e7e9","47","green","circular","red","circular","0","\","937","space","10069","10069","(80, 80, 80)","(0, 122, 0)","(179, 0, 0)","(155, 155, 155)","2","legacy","experiment","[0, 1, 2, 3, 4, 5, 6, 7]","\","2500","3000","0","8","252.758751519","1024","2","48000","-16","main","[(0, -252), (178, -178), (252, 0), (178, 178), (0, 252), (-178, 178), (-252, 0), (-178, -178)]","[]","9","odd","0","690616","755017","755016","602656","601649","1559","623309","623309","1559","1559","612726","872260","1558","755017","871321","870518","870518","NA","797","study_X","0","10069","1","yes","1680"
"undefined","undefined","10069","10069","black","no","legacy","legacy","legacy","0","green","(0, 122, 0)","shape","present","highProb","rectangular","same","swap","swap","same","green","(0, 122, 0)","lowProb","lowProb2","circular","uniform","1","undefined","0.270833333333","1","1","267.135416667","1","52","51290","0","0","0","0","0","0","0","0","76","0","1","0.270833333333","267.135416667","52","51290","76","76","76","08/21/17 09:43:58","Default description","yes","<openexp._canvas.legacy.legacy object at 0x049627F0>","<openexp._canvas.legacy.legacy object at 0x0496E7B0>","<openexp._canvas.legacy.legacy object at 0x0495A410>","<openexp._canvas.legacy.legacy object at 0x04A509D0>","<openexp._canvas.legacy.legacy object at 0x04A214B0>","<openexp._canvas.legacy.legacy object at 0x04972630>","<openexp._canvas.legacy.legacy object at 0x04A22A50>","75","IndividualPriorityWithDis_v1.osexp","C:/Userdata/Michel/SpatialProb/IndividualPriorityMaps/Experiment2","no","mono","no","18","no","white","no","yes","0.09","98","1050","legacy","45","51","51","1","C:/Userdata/Michel/SpatialProb/IndividualPriorityMaps/Experiment2/data/subject-9.csv","legacy","9","192","25","Jazzy James","3.1.3","yes","598477b2b83f69022949e7e9","47","green","rectangular","green","circular","0","\","1442","space","10069","10069","(80, 80, 80)","(0, 122, 0)","(179, 0, 0)","(155, 155, 155)","2","legacy","experiment","[0, 1, 2, 3, 4, 5, 6, 7]","\","2500","3000","0","8","252.758751519","1024","2","48000","-16","main","[(0, -252), (178, -178), (252, 0), (178, 178), (0, 252), (-178, 178), (-252, 0), (-178, -178)]","[]","9","odd","2","690616","755017","755016","602656","601649","1559","623309","623309","1559","1559","612726","874924","1558","755017","873479","872676","872676","NA","797","study_X","0","10069","1","yes","1680"
"undefined","undefined","10069","10069","black","no","legacy","legacy","legacy","0","green","(0, 122, 0)","shape","present","highProbOther","circular","same","swap","same","swap","green","(0, 122, 0)","lowProb","lowProb4","rectangular","uniform","1","undefined","0.276041666667","1","1","272.395833333","1","53","52300","0","0","0","0","0","0","0","0","77","0","1","0.276041666667","272.395833333","53","52300","77","77","77","08/21/17 09:43:58","Default description","yes","<openexp._canvas.legacy.legacy object at 0x049627F0>","<openexp._canvas.legacy.legacy object at 0x0496E7B0>","<openexp._canvas.legacy.legacy object at 0x0495A410>","<openexp._canvas.legacy.legacy object at 0x04A509D0>","<openexp._canvas.legacy.legacy object at 0x04A214B0>","<openexp._canvas.legacy.legacy object at 0x049690D0>","<openexp._canvas.legacy.legacy object at 0x04A22A50>","75","IndividualPriorityWithDis_v1.osexp","C:/Userdata/Michel/SpatialProb/IndividualPriorityMaps/Experiment2","no","mono","no","18","no","white","no","yes","0.09","98","1050","legacy","315","52","52","1","C:/Userdata/Michel/SpatialProb/IndividualPriorityMaps/Experiment2/data/subject-9.csv","legacy","9","192","25","Jazzy James","3.1.3","yes","598477b2b83f69022949e7e9","47","green","circular","green","rectangular","0","/","1010","space","10069","10069","(80, 80, 80)","(0, 122, 0)","(179, 0, 0)","(155, 155, 155)","2","legacy","experiment","[0, 1, 2, 3, 4, 5, 6, 7]","/","2500","3000","0","8","252.758751519","1024","2","48000","-16","main","[(0, -252), (178, -178), (252, 0), (178, 178), (0, 252), (-178, 178), (-252, 0), (-178, -178)]","[]","9","odd","5","690616","755017","755016","602656","601649","1559","623309","623309","1559","1559","612726","877148","1558","755017","876134","875331","875331","NA","797","study_X","0","10069","1","yes","1680"
"undefined","undefined","10069","10069","black","no","legacy","legacy","legacy","0","red","(179, 0, 0)","shape","absent","lowProb3","rectangular","swap","swap","swap","same","red","(179, 0, 0)","lowProb","lowProb3","rectangular","uniform","1","undefined","0.28125","1","1","276.453125","1","54","53079","0","0","0","0","0","0","0","0","78","0","1","0.28125","276.453125","54","53079","78","78","78","08/21/17 09:43:58","Default description","yes","<openexp._canvas.legacy.legacy object at 0x049627F0>","<openexp._canvas.legacy.legacy object at 0x0496E7B0>","<openexp._canvas.legacy.legacy object at 0x0495A410>","<openexp._canvas.legacy.legacy object at 0x04A509D0>","<openexp._canvas.legacy.legacy object at 0x04A214B0>","<openexp._canvas.legacy.legacy object at 0x04972750>","<openexp._canvas.legacy.legacy object at 0x04A22A50>","75","IndividualPriorityWithDis_v1.osexp","C:/Userdata/Michel/SpatialProb/IndividualPriorityMaps/Experiment2","no","mono","no","18","no","white","no","yes","0.09","98","1050","legacy","315","53","53","1","C:/Userdata/Michel/SpatialProb/IndividualPriorityMaps/Experiment2/data/subject-9.csv","legacy","9","192","25","Jazzy James","3.1.3","yes","598477b2b83f69022949e7e9","47","red","rectangular","red","rectangular","0","/","779","space","10069","10069","(80, 80, 80)","(0, 122, 0)","(179, 0, 0)","(155, 155, 155)","2","legacy","experiment","[0, 1, 2, 3, 4, 5, 6, 7]","/","2500","3000","0","8","252.758751519","1024","2","48000","-16","main","[(0, -252), (178, -178), (252, 0), (178, 178), (0, 252), (-178, 178), (-252, 0), (-178, -178)]","[]","9","odd","3","690616","755017","755016","602656","601649","1559","623309","623309","1559","1559","612726","879140","1558","755017","878357","877554","877554","NA","797","study_X","0","10069","1","yes","1680"
