acc,accuracy,answerQ1,answerQ2,answerQ3,average_response_time,avg_rt,background,bidi,canvas_backend,clock_backend,color_backend,compensation,cond_disColor,cond_disColorRGB,cond_disFeature,cond_disPresent,cond_disProbability,cond_disShape,cond_primingDisColor,cond_primingDisShape,cond_primingTarColor,cond_primingTarShape,cond_tarColor,cond_tarColorRGB,cond_tarLocation,cond_tarLocationLong,cond_tarShape,coordinates,correct,correct_continuePress,count_Questions,count_blockAcc,count_blockFeed,count_blockLoop,count_blockRT,count_blockSeq,count_blockSumCorrect,count_blockSumRT,count_continuePress,count_example,count_expSettings,count_exp_mainLoop,count_experiment,count_instructions,count_instructions1,count_instructions2,count_log,count_main,count_prepCanvas,count_totalAcc,count_totalRT,count_totalSumCorrect,count_totalSumRT,count_trialResp,count_trialSeq,count_trialTask,datetime,description,disable_garbage_collection,dispBlank,dispBlockStart,dispFeedBlock,dispFix,dispInstructions,dispQuestions,dispSearch,dispStartScreen,distance2screen,experiment_file,experiment_path,font_bold,font_family,font_italic,font_size,font_underline,foreground,form_clicks,fullscreen,gaborFreq,gaborSize,height,keyboard_backend,lineOriTar,live_row,live_row_blockLoop,live_row_exp_mainLoop,logfile,mouse_backend,noExpBlocks,noExpTrials,noPracTrials,opensesame_codename,opensesame_version,osf_always_upload_experiment,osf_id,physical_screensize,previousDisColor,previousDisShape,previousTarColor,previousTarShape,repeat_cycle,response,responseTime,response_continuePress,response_time,response_time_continuePress,rgb_gray,rgb_green,rgb_red,rgb_white,round_decimals,sampler_backend,set_blockType,set_counterPositions,set_respCorrect,set_respTimeoutExp,set_respTimeoutPrac,set_rotation,set_setSize,sizeImaginary,sound_buf_size,sound_channels,sound_freq,sound_sample_size,start,stimPositions,stimuli,subject_nr,subject_parity,tarIdx,time_Questions,time_blockFeed,time_blockLoop,time_blockSeq,time_continuePress,time_example,time_expSettings,time_exp_mainLoop,time_experiment,time_instructions,time_instructions1,time_instructions2,time_log,time_main,time_prepCanvas,time_trialResp,time_trialSeq,time_trialTask,timing_EEGwait,timing_fix,title,total_correct,total_response_time,total_responses,uniform_coordinates,width
undefined,undefined,NA,NA,NA,14388,14388,black,no,legacy,legacy,legacy,0,green,"(0, 123, 0)",color,present,highProb,rectangular,swap,swap,same,same,red,"(177, 0, 0)",lowProb,lowProb5,rectangular,uniform,1,undefined,0,0.005208333,1,1,4.96875,1,1,954,0,0,0,0,0,0,0,0,26,0,1,0.005208333,4.96875,1,954,25,25,25,11/22/2018 14:35,Default description,yes,<openexp._canvas.legacy.Legacy object at 0x0533D690>,<openexp._canvas.legacy.Legacy object at 0x05338CF0>,<openexp._canvas.legacy.Legacy object at 0x0511F9F0>,<openexp._canvas.legacy.Legacy object at 0x05367590>,<openexp._canvas.legacy.Legacy object at 0x05102290>,<openexp._canvas.legacy.Legacy object at 0x05333350>,<openexp._canvas.legacy.Legacy object at 0x05415F90>,<openexp._canvas.legacy.Legacy object at 0x0511FA30>,75,SpatProbMultiple3.osexp,C:/Userdata/Michel/SpatProbMultiple3,no,mono,no,18,no,white,no,yes,0.09,98,1050,legacy,315,0,0,1,C:/Userdata/Michel/SpatProbMultiple3/beh/subject-5.csv,legacy,9,192,25,Kafkaesque Koffka,3.2.5,yes,598477b2b83f69022949e7e9,47,green,rectangular,red,rectangular,0,/,954,space,14388,14388,"(80, 80, 80)","(0, 123, 0)","(177, 0, 0)","(155, 155, 155)",2,legacy,experiment,"[4, 5, 6, 7, 0, 1, 2, 3]",/,2500,3000,0,8,252.7587515,1024,2,48000,-16,main,"[(0, -252), (178, -178), (252, 0), (178, 178), (0, 252), (-178, 178), (-252, 0), (-178, -178)]",[],29,odd,2,NA,3214929,3310972,3310972,3113787,3112776,2285,3149282,3149282,2285,2285,3128176,3318214,2283,3310972,3317257,3311377,3311377,NA,715,study_X,0,14388,1,yes,1680
undefined,undefined,NA,NA,NA,14388,14388,black,no,legacy,legacy,legacy,0,red,"(177, 0, 0)",color,present,lowProb5,rectangular,swap,same,swap,same,green,"(0, 123, 0)",lowProb,lowProb6,rectangular,uniform,1,undefined,0,0.010416667,1,1,9.401041667,1,2,1805,0,0,0,0,0,0,0,0,27,0,1,0.010416667,9.401041667,2,1805,26,26,26,11/22/2018 14:35,Default description,yes,<openexp._canvas.legacy.Legacy object at 0x0533D690>,<openexp._canvas.legacy.Legacy object at 0x05338CF0>,<openexp._canvas.legacy.Legacy object at 0x0511F9F0>,<openexp._canvas.legacy.Legacy object at 0x05367590>,<openexp._canvas.legacy.Legacy object at 0x05102290>,<openexp._canvas.legacy.Legacy object at 0x05333350>,<openexp._canvas.legacy.Legacy object at 0x0537E670>,<openexp._canvas.legacy.Legacy object at 0x0511FA30>,75,SpatProbMultiple3.osexp,C:/Userdata/Michel/SpatProbMultiple3,no,mono,no,18,no,white,no,yes,0.09,98,1050,legacy,315,1,1,1,C:/Userdata/Michel/SpatProbMultiple3/beh/subject-5.csv,legacy,9,192,25,Kafkaesque Koffka,3.2.5,yes,598477b2b83f69022949e7e9,47,red,rectangular,green,rectangular,0,/,851,space,14388,14388,"(80, 80, 80)","(0, 123, 0)","(177, 0, 0)","(155, 155, 155)",2,legacy,experiment,"[4, 5, 6, 7, 0, 1, 2, 3]",/,2500,3000,0,8,252.7587515,1024,2,48000,-16,main,"[(0, -252), (178, -178), (252, 0), (178, 178), (0, 252), (-178, 178), (-252, 0), (-178, -178)]",[],29,odd,3,NA,3214929,3310972,3310972,3113787,3112776,2285,3149282,3149282,2285,2285,3128176,3320246,2283,3310972,3319392,3318668,3318668,NA,715,study_X,0,14388,1,yes,1680
undefined,undefined,NA,NA,NA,14388,14388,black,no,legacy,legacy,legacy,0,green,"(0, 123, 0)",shape,present,highProb,circular,swap,swap,same,same,green,"(0, 123, 0)",lowProb,lowProb1,rectangular,uniform,1,undefined,0,0.015625,1,1,12.828125,1,3,2463,0,0,0,0,0,0,0,0,28,0,1,0.015625,12.828125,3,2463,27,27,27,11/22/2018 14:35,Default description,yes,<openexp._canvas.legacy.Legacy object at 0x0533D690>,<openexp._canvas.legacy.Legacy object at 0x05338CF0>,<openexp._canvas.legacy.Legacy object at 0x0511F9F0>,<openexp._canvas.legacy.Legacy object at 0x05367590>,<openexp._canvas.legacy.Legacy object at 0x05102290>,<openexp._canvas.legacy.Legacy object at 0x05333350>,<openexp._canvas.legacy.Legacy object at 0x05367BD0>,<openexp._canvas.legacy.Legacy object at 0x0511FA30>,75,SpatProbMultiple3.osexp,C:/Userdata/Michel/SpatProbMultiple3,no,mono,no,18,no,white,no,yes,0.09,98,1050,legacy,315,2,2,1,C:/Userdata/Michel/SpatProbMultiple3/beh/subject-5.csv,legacy,9,192,25,Kafkaesque Koffka,3.2.5,yes,598477b2b83f69022949e7e9,47,green,circular,green,rectangular,0,/,658,space,14388,14388,"(80, 80, 80)","(0, 123, 0)","(177, 0, 0)","(155, 155, 155)",2,legacy,experiment,"[4, 5, 6, 7, 0, 1, 2, 3]",/,2500,3000,0,8,252.7587515,1024,2,48000,-16,main,"[(0, -252), (178, -178), (252, 0), (178, 178), (0, 252), (-178, 178), (-252, 0), (-178, -178)]",[],29,odd,5,NA,3214929,3310972,3310972,3113787,3112776,2285,3149282,3149282,2285,2285,3128176,3322094,2283,3310972,3321433,3320708,3320708,NA,715,study_X,0,14388,1,yes,1680
undefined,undefined,NA,NA,NA,14388,14388,black,no,legacy,legacy,legacy,0,red,"(177, 0, 0)",color,present,highProb,rectangular,swap,swap,same,same,green,"(0, 123, 0)",lowProb,lowProb6,rectangular,uniform,1,undefined,0,0.020833333,1,1,15.734375,1,4,3021,0,0,0,0,0,0,0,0,29,0,1,0.020833333,15.734375,4,3021,28,28,28,11/22/2018 14:35,Default description,yes,<openexp._canvas.legacy.Legacy object at 0x0533D690>,<openexp._canvas.legacy.Legacy object at 0x05338CF0>,<openexp._canvas.legacy.Legacy object at 0x0511F9F0>,<openexp._canvas.legacy.Legacy object at 0x05367590>,<openexp._canvas.legacy.Legacy object at 0x05102290>,<openexp._canvas.legacy.Legacy object at 0x05333350>,<openexp._canvas.legacy.Legacy object at 0x0537EC30>,<openexp._canvas.legacy.Legacy object at 0x0511FA30>,75,SpatProbMultiple3.osexp,C:/Userdata/Michel/SpatProbMultiple3,no,mono,no,18,no,white,no,yes,0.09,98,1050,legacy,315,3,3,1,C:/Userdata/Michel/SpatProbMultiple3/beh/subject-5.csv,legacy,9,192,25,Kafkaesque Koffka,3.2.5,yes,598477b2b83f69022949e7e9,47,red,rectangular,green,rectangular,0,/,558,space,14388,14388,"(80, 80, 80)","(0, 123, 0)","(177, 0, 0)","(155, 155, 155)",2,legacy,experiment,"[4, 5, 6, 7, 0, 1, 2, 3]",/,2500,3000,0,8,252.7587515,1024,2,48000,-16,main,"[(0, -252), (178, -178), (252, 0), (178, 178), (0, 252), (-178, 178), (-252, 0), (-178, -178)]",[],29,odd,3,NA,3214929,3310972,3310972,3113787,3112776,2285,3149282,3149282,2285,2285,3128176,3323814,2283,3310972,3323254,3322529,3322529,NA,715,study_X,0,14388,1,yes,1680
undefined,undefined,NA,NA,NA,14388,14388,black,no,legacy,legacy,legacy,0,red,"(177, 0, 0)",shape,absent,lowProb2,circular,same,swap,swap,swap,red,"(177, 0, 0)",lowProb,lowProb3,circular,uniform,1,undefined,0,0.026041667,1,1,21.44270833,1,5,4117,0,0,0,0,0,0,0,0,30,0,1,0.026041667,21.44270833,5,4117,29,29,29,11/22/2018 14:35,Default description,yes,<openexp._canvas.legacy.Legacy object at 0x0533D690>,<openexp._canvas.legacy.Legacy object at 0x05338CF0>,<openexp._canvas.legacy.Legacy object at 0x0511F9F0>,<openexp._canvas.legacy.Legacy object at 0x05367590>,<openexp._canvas.legacy.Legacy object at 0x05102290>,<openexp._canvas.legacy.Legacy object at 0x05333350>,<openexp._canvas.legacy.Legacy object at 0x053719B0>,<openexp._canvas.legacy.Legacy object at 0x0511FA30>,75,SpatProbMultiple3.osexp,C:/Userdata/Michel/SpatProbMultiple3,no,mono,no,18,no,white,no,yes,0.09,98,1050,legacy,315,4,4,1,C:/Userdata/Michel/SpatProbMultiple3/beh/subject-5.csv,legacy,9,192,25,Kafkaesque Koffka,3.2.5,yes,598477b2b83f69022949e7e9,47,red,circular,red,circular,0,/,1096,space,14388,14388,"(80, 80, 80)","(0, 123, 0)","(177, 0, 0)","(155, 155, 155)",2,legacy,experiment,"[4, 5, 6, 7, 0, 1, 2, 3]",/,2500,3000,0,8,252.7587515,1024,2,48000,-16,main,"[(0, -252), (178, -178), (252, 0), (178, 178), (0, 252), (-178, 178), (-252, 0), (-178, -178)]",[],29,odd,7,NA,3214929,3310972,3310972,3113787,3112776,2285,3149282,3149282,2285,2285,3128176,3326078,2283,3310972,3324979,3324255,3324255,NA,715,study_X,0,14388,1,yes,1680
undefined,undefined,NA,NA,NA,14388,14388,black,no,legacy,legacy,legacy,0,red,"(177, 0, 0)",shape,present,lowProb1,circular,same,same,same,swap,red,"(177, 0, 0)",lowProb,lowProb3,rectangular,uniform,1,undefined,0,0.03125,1,1,25.23958333,1,6,4846,0,0,0,0,0,0,0,0,31,0,1,0.03125,25.23958333,6,4846,30,30,30,11/22/2018 14:35,Default description,yes,<openexp._canvas.legacy.Legacy object at 0x0533D690>,<openexp._canvas.legacy.Legacy object at 0x05338CF0>,<openexp._canvas.legacy.Legacy object at 0x0511F9F0>,<openexp._canvas.legacy.Legacy object at 0x05367590>,<openexp._canvas.legacy.Legacy object at 0x05102290>,<openexp._canvas.legacy.Legacy object at 0x05333350>,<openexp._canvas.legacy.Legacy object at 0x05367DD0>,<openexp._canvas.legacy.Legacy object at 0x0511FA30>,75,SpatProbMultiple3.osexp,C:/Userdata/Michel/SpatProbMultiple3,no,mono,no,18,no,white,no,yes,0.09,98,1050,legacy,45,5,5,1,C:/Userdata/Michel/SpatProbMultiple3/beh/subject-5.csv,legacy,9,192,25,Kafkaesque Koffka,3.2.5,yes,598477b2b83f69022949e7e9,47,red,circular,red,rectangular,0,\,729,space,14388,14388,"(80, 80, 80)","(0, 123, 0)","(177, 0, 0)","(155, 155, 155)",2,legacy,experiment,"[4, 5, 6, 7, 0, 1, 2, 3]",\,2500,3000,0,8,252.7587515,1024,2,48000,-16,main,"[(0, -252), (178, -178), (252, 0), (178, 178), (0, 252), (-178, 178), (-252, 0), (-178, -178)]",[],29,odd,7,NA,3214929,3310972,3310972,3113787,3112776,2285,3149282,3149282,2285,2285,3128176,3327982,2283,3310972,3327249,3326524,3326524,NA,715,study_X,0,14388,1,yes,1680
undefined,undefined,NA,NA,NA,14388,14388,black,no,legacy,legacy,legacy,0,red,"(177, 0, 0)",shape,present,highProb,rectangular,same,swap,same,swap,red,"(177, 0, 0)",lowProb,lowProb5,circular,uniform,1,undefined,0,0.036458333,1,1,32.15625,1,7,6174,0,0,0,0,0,0,0,0,32,0,1,0.036458333,32.15625,7,6174,31,31,31,11/22/2018 14:35,Default description,yes,<openexp._canvas.legacy.Legacy object at 0x0533D690>,<openexp._canvas.legacy.Legacy object at 0x05338CF0>,<openexp._canvas.legacy.Legacy object at 0x0511F9F0>,<openexp._canvas.legacy.Legacy object at 0x05367590>,<openexp._canvas.legacy.Legacy object at 0x05102290>,<openexp._canvas.legacy.Legacy object at 0x05333350>,<openexp._canvas.legacy.Legacy object at 0x054158F0>,<openexp._canvas.legacy.Legacy object at 0x0511FA30>,75,SpatProbMultiple3.osexp,C:/Userdata/Michel/SpatProbMultiple3,no,mono,no,18,no,white,no,yes,0.09,98,1050,legacy,315,6,6,1,C:/Userdata/Michel/SpatProbMultiple3/beh/subject-5.csv,legacy,9,192,25,Kafkaesque Koffka,3.2.5,yes,598477b2b83f69022949e7e9,47,red,rectangular,red,circular,0,/,1328,space,14388,14388,"(80, 80, 80)","(0, 123, 0)","(177, 0, 0)","(155, 155, 155)",2,legacy,experiment,"[4, 5, 6, 7, 0, 1, 2, 3]",/,2500,3000,0,8,252.7587515,1024,2,48000,-16,main,"[(0, -252), (178, -178), (252, 0), (178, 178), (0, 252), (-178, 178), (-252, 0), (-178, -178)]",[],29,odd,2,NA,3214929,3310972,3310972,3113787,3112776,2285,3149282,3149282,2285,2285,3128176,3330470,2283,3310972,3329138,3328413,3328413,NA,715,study_X,0,14388,1,yes,1680
undefined,undefined,NA,NA,NA,14388,14388,black,no,legacy,legacy,legacy,0,red,"(177, 0, 0)",color,present,lowProb5,circular,same,swap,swap,same,green,"(0, 123, 0)",lowProb,lowProb6,circular,uniform,1,undefined,0,0.041666667,1,1,37.078125,1,8,7119,0,0,0,0,0,0,0,0,33,0,1,0.041666667,37.078125,8,7119,32,32,32,11/22/2018 14:35,Default description,yes,<openexp._canvas.legacy.Legacy object at 0x0533D690>,<openexp._canvas.legacy.Legacy object at 0x05338CF0>,<openexp._canvas.legacy.Legacy object at 0x0511F9F0>,<openexp._canvas.legacy.Legacy object at 0x05367590>,<openexp._canvas.legacy.Legacy object at 0x05102290>,<openexp._canvas.legacy.Legacy object at 0x05333350>,<openexp._canvas.legacy.Legacy object at 0x0531F650>,<openexp._canvas.legacy.Legacy object at 0x0511FA30>,75,SpatProbMultiple3.osexp,C:/Userdata/Michel/SpatProbMultiple3,no,mono,no,18,no,white,no,yes,0.09,98,1050,legacy,315,7,7,1,C:/Userdata/Michel/SpatProbMultiple3/beh/subject-5.csv,legacy,9,192,25,Kafkaesque Koffka,3.2.5,yes,598477b2b83f69022949e7e9,47,red,circular,green,circular,0,/,945,space,14388,14388,"(80, 80, 80)","(0, 123, 0)","(177, 0, 0)","(155, 155, 155)",2,legacy,experiment,"[4, 5, 6, 7, 0, 1, 2, 3]",/,2500,3000,0,8,252.7587515,1024,2,48000,-16,main,"[(0, -252), (178, -178), (252, 0), (178, 178), (0, 252), (-178, 178), (-252, 0), (-178, -178)]",[],29,odd,3,NA,3214929,3310972,3310972,3113787,3112776,2285,3149282,3149282,2285,2285,3128176,3332583,2283,3310972,3331634,3330909,3330909,NA,715,study_X,0,14388,1,yes,1680
undefined,undefined,NA,NA,NA,14388,14388,black,no,legacy,legacy,legacy,0,green,"(0, 123, 0)",shape,present,highProb,rectangular,swap,swap,same,same,green,"(0, 123, 0)",lowProb,lowProb5,circular,uniform,1,undefined,0,0.046875,1,1,40.80208333,1,9,7834,0,0,0,0,0,0,0,0,34,0,1,0.046875,40.80208333,9,7834,33,33,33,11/22/2018 14:35,Default description,yes,<openexp._canvas.legacy.Legacy object at 0x0533D690>,<openexp._canvas.legacy.Legacy object at 0x05338CF0>,<openexp._canvas.legacy.Legacy object at 0x0511F9F0>,<openexp._canvas.legacy.Legacy object at 0x05367590>,<openexp._canvas.legacy.Legacy object at 0x05102290>,<openexp._canvas.legacy.Legacy object at 0x05333350>,<openexp._canvas.legacy.Legacy object at 0x05367410>,<openexp._canvas.legacy.Legacy object at 0x0511FA30>,75,SpatProbMultiple3.osexp,C:/Userdata/Michel/SpatProbMultiple3,no,mono,no,18,no,white,no,yes,0.09,98,1050,legacy,315,8,8,1,C:/Userdata/Michel/SpatProbMultiple3/beh/subject-5.csv,legacy,9,192,25,Kafkaesque Koffka,3.2.5,yes,598477b2b83f69022949e7e9,47,green,rectangular,green,circular,0,/,715,space,14388,14388,"(80, 80, 80)","(0, 123, 0)","(177, 0, 0)","(155, 155, 155)",2,legacy,experiment,"[4, 5, 6, 7, 0, 1, 2, 3]",/,2500,3000,0,8,252.7587515,1024,2,48000,-16,main,"[(0, -252), (178, -178), (252, 0), (178, 178), (0, 252), (-178, 178), (-252, 0), (-178, -178)]",[],29,odd,2,NA,3214929,3310972,3310972,3113787,3112776,2285,3149282,3149282,2285,2285,3128176,3334478,2283,3310972,3333760,3333035,3333035,NA,715,study_X,0,14388,1,yes,1680
undefined,undefined,NA,NA,NA,14388,14388,black,no,legacy,legacy,legacy,0,green,"(0, 123, 0)",shape,absent,lowProb4,circular,same,swap,same,same,green,"(0, 123, 0)",lowProb,lowProb6,circular,uniform,1,undefined,0,0.052083333,1,1,45.53645833,1,10,8743,0,0,0,0,0,0,0,0,35,0,1,0.052083333,45.53645833,10,8743,34,34,34,11/22/2018 14:35,Default description,yes,<openexp._canvas.legacy.Legacy object at 0x0533D690>,<openexp._canvas.legacy.Legacy object at 0x05338CF0>,<openexp._canvas.legacy.Legacy object at 0x0511F9F0>,<openexp._canvas.legacy.Legacy object at 0x05367590>,<openexp._canvas.legacy.Legacy object at 0x05102290>,<openexp._canvas.legacy.Legacy object at 0x05333350>,<openexp._canvas.legacy.Legacy object at 0x0537E4F0>,<openexp._canvas.legacy.Legacy object at 0x0511FA30>,75,SpatProbMultiple3.osexp,C:/Userdata/Michel/SpatProbMultiple3,no,mono,no,18,no,white,no,yes,0.09,98,1050,legacy,315,9,9,1,C:/Userdata/Michel/SpatProbMultiple3/beh/subject-5.csv,legacy,9,192,25,Kafkaesque Koffka,3.2.5,yes,598477b2b83f69022949e7e9,47,green,circular,green,circular,0,/,909,space,14388,14388,"(80, 80, 80)","(0, 123, 0)","(177, 0, 0)","(155, 155, 155)",2,legacy,experiment,"[4, 5, 6, 7, 0, 1, 2, 3]",/,2500,3000,0,8,252.7587515,1024,2,48000,-16,main,"[(0, -252), (178, -178), (252, 0), (178, 178), (0, 252), (-178, 178), (-252, 0), (-178, -178)]",[],29,odd,3,NA,3214929,3310972,3310972,3113787,3112776,2285,3149282,3149282,2285,2285,3128176,3336558,2283,3310972,3335646,3334921,3334921,NA,715,study_X,0,14388,1,yes,1680
undefined,undefined,NA,NA,NA,14388,14388,black,no,legacy,legacy,legacy,0,green,"(0, 123, 0)",shape,present,highProb,rectangular,same,swap,same,same,green,"(0, 123, 0)",lowProb,lowProb6,circular,uniform,1,undefined,0,0.057291667,1,1,51.99479167,1,11,9983,0,0,0,0,0,0,0,0,36,0,1,0.057291667,51.99479167,11,9983,35,35,35,11/22/2018 14:35,Default description,yes,<openexp._canvas.legacy.Legacy object at 0x0533D690>,<openexp._canvas.legacy.Legacy object at 0x05338CF0>,<openexp._canvas.legacy.Legacy object at 0x0511F9F0>,<openexp._canvas.legacy.Legacy object at 0x05367590>,<openexp._canvas.legacy.Legacy object at 0x05102290>,<openexp._canvas.legacy.Legacy object at 0x05333350>,<openexp._canvas.legacy.Legacy object at 0x05371CD0>,<openexp._canvas.legacy.Legacy object at 0x0511FA30>,75,SpatProbMultiple3.osexp,C:/Userdata/Michel/SpatProbMultiple3,no,mono,no,18,no,white,no,yes,0.09,98,1050,legacy,45,10,10,1,C:/Userdata/Michel/SpatProbMultiple3/beh/subject-5.csv,legacy,9,192,25,Kafkaesque Koffka,3.2.5,yes,598477b2b83f69022949e7e9,47,green,rectangular,green,circular,0,\,1240,space,14388,14388,"(80, 80, 80)","(0, 123, 0)","(177, 0, 0)","(155, 155, 155)",2,legacy,experiment,"[4, 5, 6, 7, 0, 1, 2, 3]",\,2500,3000,0,8,252.7587515,1024,2,48000,-16,main,"[(0, -252), (178, -178), (252, 0), (178, 178), (0, 252), (-178, 178), (-252, 0), (-178, -178)]",[],29,odd,3,NA,3214929,3310972,3310972,3113787,3112776,2285,3149282,3149282,2285,2285,3128176,3339022,2283,3310972,3337779,3337054,3337054,NA,715,study_X,0,14388,1,yes,1680
undefined,undefined,NA,NA,NA,14388,14388,black,no,legacy,legacy,legacy,0,red,"(177, 0, 0)",shape,present,highProb,circular,swap,swap,swap,swap,red,"(177, 0, 0)",lowProb,lowProb3,rectangular,uniform,1,undefined,0,0.0625,1,1,58.67708333,1,12,11266,0,0,0,0,0,0,0,0,37,0,1,0.0625,58.67708333,12,11266,36,36,36,11/22/2018 14:35,Default description,yes,<openexp._canvas.legacy.Legacy object at 0x0533D690>,<openexp._canvas.legacy.Legacy object at 0x05338CF0>,<openexp._canvas.legacy.Legacy object at 0x0511F9F0>,<openexp._canvas.legacy.Legacy object at 0x05367590>,<openexp._canvas.legacy.Legacy object at 0x05102290>,<openexp._canvas.legacy.Legacy object at 0x05333350>,<openexp._canvas.legacy.Legacy object at 0x05338C70>,<openexp._canvas.legacy.Legacy object at 0x0511FA30>,75,SpatProbMultiple3.osexp,C:/Userdata/Michel/SpatProbMultiple3,no,mono,no,18,no,white,no,yes,0.09,98,1050,legacy,45,11,11,1,C:/Userdata/Michel/SpatProbMultiple3/beh/subject-5.csv,legacy,9,192,25,Kafkaesque Koffka,3.2.5,yes,598477b2b83f69022949e7e9,47,red,circular,red,rectangular,0,\,1283,space,14388,14388,"(80, 80, 80)","(0, 123, 0)","(177, 0, 0)","(155, 155, 155)",2,legacy,experiment,"[4, 5, 6, 7, 0, 1, 2, 3]",\,2500,3000,0,8,252.7587515,1024,2,48000,-16,main,"[(0, -252), (178, -178), (252, 0), (178, 178), (0, 252), (-178, 178), (-252, 0), (-178, -178)]",[],29,odd,7,NA,3214929,3310972,3310972,3113787,3112776,2285,3149282,3149282,2285,2285,3128176,3341462,2283,3310972,3340176,3339451,3339451,NA,715,study_X,0,14388,1,yes,1680
undefined,undefined,NA,NA,NA,14388,14388,black,no,legacy,legacy,legacy,0,red,"(177, 0, 0)",color,absent,lowProb4,rectangular,same,swap,same,same,red,"(177, 0, 0)",lowProb,lowProb6,rectangular,uniform,1,undefined,0,0.067708333,1,1,62.42708333,1,13,11986,0,0,0,0,0,0,0,0,38,0,1,0.067708333,62.42708333,13,11986,37,37,37,11/22/2018 14:35,Default description,yes,<openexp._canvas.legacy.Legacy object at 0x0533D690>,<openexp._canvas.legacy.Legacy object at 0x05338CF0>,<openexp._canvas.legacy.Legacy object at 0x0511F9F0>,<openexp._canvas.legacy.Legacy object at 0x05367590>,<openexp._canvas.legacy.Legacy object at 0x05102290>,<openexp._canvas.legacy.Legacy object at 0x05333350>,<openexp._canvas.legacy.Legacy object at 0x054152F0>,<openexp._canvas.legacy.Legacy object at 0x0511FA30>,75,SpatProbMultiple3.osexp,C:/Userdata/Michel/SpatProbMultiple3,no,mono,no,18,no,white,no,yes,0.09,98,1050,legacy,45,12,12,1,C:/Userdata/Michel/SpatProbMultiple3/beh/subject-5.csv,legacy,9,192,25,Kafkaesque Koffka,3.2.5,yes,598477b2b83f69022949e7e9,47,red,rectangular,red,rectangular,0,\,720,space,14388,14388,"(80, 80, 80)","(0, 123, 0)","(177, 0, 0)","(155, 155, 155)",2,legacy,experiment,"[4, 5, 6, 7, 0, 1, 2, 3]",\,2500,3000,0,8,252.7587515,1024,2,48000,-16,main,"[(0, -252), (178, -178), (252, 0), (178, 178), (0, 252), (-178, 178), (-252, 0), (-178, -178)]",[],29,odd,3,NA,3214929,3310972,3310972,3113787,3112776,2285,3149282,3149282,2285,2285,3128176,3343342,2283,3310972,3342618,3341894,3341894,NA,715,study_X,0,14388,1,yes,1680
undefined,undefined,NA,NA,NA,14388,14388,black,no,legacy,legacy,legacy,0,red,"(177, 0, 0)",color,absent,highProb,circular,same,swap,same,swap,red,"(177, 0, 0)",highProbShape,highProbShape,circular,uniform,1,undefined,0,0.072916667,1,1,71.49479167,1,14,13727,0,0,0,0,0,0,0,0,39,0,1,0.072916667,71.49479167,14,13727,38,38,38,11/22/2018 14:35,Default description,yes,<openexp._canvas.legacy.Legacy object at 0x0533D690>,<openexp._canvas.legacy.Legacy object at 0x05338CF0>,<openexp._canvas.legacy.Legacy object at 0x0511F9F0>,<openexp._canvas.legacy.Legacy object at 0x05367590>,<openexp._canvas.legacy.Legacy object at 0x05102290>,<openexp._canvas.legacy.Legacy object at 0x05333350>,<openexp._canvas.legacy.Legacy object at 0x05371AB0>,<openexp._canvas.legacy.Legacy object at 0x0511FA30>,75,SpatProbMultiple3.osexp,C:/Userdata/Michel/SpatProbMultiple3,no,mono,no,18,no,white,no,yes,0.09,98,1050,legacy,45,13,13,1,C:/Userdata/Michel/SpatProbMultiple3/beh/subject-5.csv,legacy,9,192,25,Kafkaesque Koffka,3.2.5,yes,598477b2b83f69022949e7e9,47,red,circular,red,circular,0,\,1741,space,14388,14388,"(80, 80, 80)","(0, 123, 0)","(177, 0, 0)","(155, 155, 155)",2,legacy,experiment,"[4, 5, 6, 7, 0, 1, 2, 3]",\,2500,3000,0,8,252.7587515,1024,2,48000,-16,main,"[(0, -252), (178, -178), (252, 0), (178, 178), (0, 252), (-178, 178), (-252, 0), (-178, -178)]",[],29,odd,0,NA,3214929,3310972,3310972,3113787,3112776,2285,3149282,3149282,2285,2285,3128176,3346246,2283,3310972,3344501,3343777,3343777,NA,715,study_X,0,14388,1,yes,1680
undefined,undefined,NA,NA,NA,14388,14388,black,no,legacy,legacy,legacy,0,red,"(177, 0, 0)",color,present,highProb,circular,same,same,swap,same,green,"(0, 123, 0)",lowProb,lowProb2,circular,uniform,1,undefined,0,0.078125,1,1,80.25,1,15,15408,0,0,0,0,0,0,0,0,40,0,1,0.078125,80.25,15,15408,39,39,39,11/22/2018 14:35,Default description,yes,<openexp._canvas.legacy.Legacy object at 0x0533D690>,<openexp._canvas.legacy.Legacy object at 0x05338CF0>,<openexp._canvas.legacy.Legacy object at 0x0511F9F0>,<openexp._canvas.legacy.Legacy object at 0x05367590>,<openexp._canvas.legacy.Legacy object at 0x05102290>,<openexp._canvas.legacy.Legacy object at 0x05333350>,<openexp._canvas.legacy.Legacy object at 0x0533DF50>,<openexp._canvas.legacy.Legacy object at 0x0511FA30>,75,SpatProbMultiple3.osexp,C:/Userdata/Michel/SpatProbMultiple3,no,mono,no,18,no,white,no,yes,0.09,98,1050,legacy,315,14,14,1,C:/Userdata/Michel/SpatProbMultiple3/beh/subject-5.csv,legacy,9,192,25,Kafkaesque Koffka,3.2.5,yes,598477b2b83f69022949e7e9,47,red,circular,green,circular,0,/,1681,space,14388,14388,"(80, 80, 80)","(0, 123, 0)","(177, 0, 0)","(155, 155, 155)",2,legacy,experiment,"[4, 5, 6, 7, 0, 1, 2, 3]",/,2500,3000,0,8,252.7587515,1024,2,48000,-16,main,"[(0, -252), (178, -178), (252, 0), (178, 178), (0, 252), (-178, 178), (-252, 0), (-178, -178)]",[],29,odd,6,NA,3214929,3310972,3310972,3113787,3112776,2285,3149282,3149282,2285,2285,3128176,3349093,2283,3310972,3347409,3346685,3346685,NA,715,study_X,0,14388,1,yes,1680
undefined,undefined,NA,NA,NA,14388,14388,black,no,legacy,legacy,legacy,0,green,"(0, 123, 0)",color,present,highProb,rectangular,swap,swap,swap,swap,red,"(177, 0, 0)",lowProb,lowProb6,rectangular,uniform,1,undefined,0,0.083333333,1,1,83.53125,1,16,16038,0,0,0,0,0,0,0,0,41,0,1,0.083333333,83.53125,16,16038,40,40,40,11/22/2018 14:35,Default description,yes,<openexp._canvas.legacy.Legacy object at 0x0533D690>,<openexp._canvas.legacy.Legacy object at 0x05338CF0>,<openexp._canvas.legacy.Legacy object at 0x0511F9F0>,<openexp._canvas.legacy.Legacy object at 0x05367590>,<openexp._canvas.legacy.Legacy object at 0x05102290>,<openexp._canvas.legacy.Legacy object at 0x05333350>,<openexp._canvas.legacy.Legacy object at 0x0531F950>,<openexp._canvas.legacy.Legacy object at 0x0511FA30>,75,SpatProbMultiple3.osexp,C:/Userdata/Michel/SpatProbMultiple3,no,mono,no,18,no,white,no,yes,0.09,98,1050,legacy,315,15,15,1,C:/Userdata/Michel/SpatProbMultiple3/beh/subject-5.csv,legacy,9,192,25,Kafkaesque Koffka,3.2.5,yes,598477b2b83f69022949e7e9,47,green,rectangular,red,rectangular,0,/,630,space,14388,14388,"(80, 80, 80)","(0, 123, 0)","(177, 0, 0)","(155, 155, 155)",2,legacy,experiment,"[4, 5, 6, 7, 0, 1, 2, 3]",/,2500,3000,0,8,252.7587515,1024,2,48000,-16,main,"[(0, -252), (178, -178), (252, 0), (178, 178), (0, 252), (-178, 178), (-252, 0), (-178, -178)]",[],29,odd,3,NA,3214929,3310972,3310972,3113787,3112776,2285,3149282,3149282,2285,2285,3128176,3350878,2283,3310972,3350246,3349522,3349523,NA,715,study_X,0,14388,1,yes,1680
undefined,undefined,NA,NA,NA,14388,14388,black,no,legacy,legacy,legacy,0,red,"(177, 0, 0)",color,present,highProbOther,circular,swap,swap,swap,swap,green,"(0, 123, 0)",lowProb,lowProb3,circular,uniform,1,undefined,0,0.088541667,1,1,89.296875,1,17,17145,0,0,0,0,0,0,0,0,42,0,1,0.088541667,89.296875,17,17145,41,41,41,11/22/2018 14:35,Default description,yes,<openexp._canvas.legacy.Legacy object at 0x0533D690>,<openexp._canvas.legacy.Legacy object at 0x05338CF0>,<openexp._canvas.legacy.Legacy object at 0x0511F9F0>,<openexp._canvas.legacy.Legacy object at 0x05367590>,<openexp._canvas.legacy.Legacy object at 0x05102290>,<openexp._canvas.legacy.Legacy object at 0x05333350>,<openexp._canvas.legacy.Legacy object at 0x0511FA50>,<openexp._canvas.legacy.Legacy object at 0x0511FA30>,75,SpatProbMultiple3.osexp,C:/Userdata/Michel/SpatProbMultiple3,no,mono,no,18,no,white,no,yes,0.09,98,1050,legacy,315,16,16,1,C:/Userdata/Michel/SpatProbMultiple3/beh/subject-5.csv,legacy,9,192,25,Kafkaesque Koffka,3.2.5,yes,598477b2b83f69022949e7e9,47,red,circular,green,circular,0,/,1107,space,14388,14388,"(80, 80, 80)","(0, 123, 0)","(177, 0, 0)","(155, 155, 155)",2,legacy,experiment,"[4, 5, 6, 7, 0, 1, 2, 3]",/,2500,3000,0,8,252.7587515,1024,2,48000,-16,main,"[(0, -252), (178, -178), (252, 0), (178, 178), (0, 252), (-178, 178), (-252, 0), (-178, -178)]",[],29,odd,7,NA,3214929,3310972,3310972,3113787,3112776,2285,3149282,3149282,2285,2285,3128176,3353150,2283,3310972,3352040,3351315,3351316,NA,715,study_X,0,14388,1,yes,1680
undefined,undefined,NA,NA,NA,14388,14388,black,no,legacy,legacy,legacy,0,red,"(177, 0, 0)",shape,present,lowProb6,circular,same,same,swap,swap,red,"(177, 0, 0)",lowProb,lowProb1,rectangular,uniform,1,undefined,0,0.09375,1,1,95.359375,1,18,18309,0,0,0,0,0,0,0,0,43,0,1,0.09375,95.359375,18,18309,42,42,42,11/22/2018 14:35,Default description,yes,<openexp._canvas.legacy.Legacy object at 0x0533D690>,<openexp._canvas.legacy.Legacy object at 0x05338CF0>,<openexp._canvas.legacy.Legacy object at 0x0511F9F0>,<openexp._canvas.legacy.Legacy object at 0x05367590>,<openexp._canvas.legacy.Legacy object at 0x05102290>,<openexp._canvas.legacy.Legacy object at 0x05333350>,<openexp._canvas.legacy.Legacy object at 0x0531F530>,<openexp._canvas.legacy.Legacy object at 0x0511FA30>,75,SpatProbMultiple3.osexp,C:/Userdata/Michel/SpatProbMultiple3,no,mono,no,18,no,white,no,yes,0.09,98,1050,legacy,45,17,17,1,C:/Userdata/Michel/SpatProbMultiple3/beh/subject-5.csv,legacy,9,192,25,Kafkaesque Koffka,3.2.5,yes,598477b2b83f69022949e7e9,47,red,circular,red,rectangular,0,\,1164,space,14388,14388,"(80, 80, 80)","(0, 123, 0)","(177, 0, 0)","(155, 155, 155)",2,legacy,experiment,"[4, 5, 6, 7, 0, 1, 2, 3]",\,2500,3000,0,8,252.7587515,1024,2,48000,-16,main,"[(0, -252), (178, -178), (252, 0), (178, 178), (0, 252), (-178, 178), (-252, 0), (-178, -178)]",[],29,odd,5,NA,3214929,3310972,3310972,3113787,3112776,2285,3149282,3149282,2285,2285,3128176,3355502,2283,3310972,3354335,3353611,3353611,NA,715,study_X,0,14388,1,yes,1680
undefined,undefined,NA,NA,NA,14388,14388,black,no,legacy,legacy,legacy,0,red,"(177, 0, 0)",shape,present,lowProb2,circular,same,same,same,same,red,"(177, 0, 0)",highProbShape,highProbShape,rectangular,uniform,1,undefined,0,0.098958333,1,1,102.5885417,1,19,19697,0,0,0,0,0,0,0,0,44,0,1,0.098958333,102.5885417,19,19697,43,43,43,11/22/2018 14:35,Default description,yes,<openexp._canvas.legacy.Legacy object at 0x0533D690>,<openexp._canvas.legacy.Legacy object at 0x05338CF0>,<openexp._canvas.legacy.Legacy object at 0x0511F9F0>,<openexp._canvas.legacy.Legacy object at 0x05367590>,<openexp._canvas.legacy.Legacy object at 0x05102290>,<openexp._canvas.legacy.Legacy object at 0x05333350>,<openexp._canvas.legacy.Legacy object at 0x054151F0>,<openexp._canvas.legacy.Legacy object at 0x0511FA30>,75,SpatProbMultiple3.osexp,C:/Userdata/Michel/SpatProbMultiple3,no,mono,no,18,no,white,no,yes,0.09,98,1050,legacy,315,18,18,1,C:/Userdata/Michel/SpatProbMultiple3/beh/subject-5.csv,legacy,9,192,25,Kafkaesque Koffka,3.2.5,yes,598477b2b83f69022949e7e9,47,red,circular,red,rectangular,0,/,1388,space,14388,14388,"(80, 80, 80)","(0, 123, 0)","(177, 0, 0)","(155, 155, 155)",2,legacy,experiment,"[4, 5, 6, 7, 0, 1, 2, 3]",/,2500,3000,0,8,252.7587515,1024,2,48000,-16,main,"[(0, -252), (178, -178), (252, 0), (178, 178), (0, 252), (-178, 178), (-252, 0), (-178, -178)]",[],29,odd,0,NA,3214929,3310972,3310972,3113787,3112776,2285,3149282,3149282,2285,2285,3128176,3358054,2283,3310972,3356662,3355938,3355938,NA,715,study_X,0,14388,1,yes,1680
undefined,undefined,NA,NA,NA,14388,14388,black,no,legacy,legacy,legacy,0,green,"(0, 123, 0)",shape,present,highProb,rectangular,swap,swap,swap,swap,green,"(0, 123, 0)",lowProb,lowProb4,circular,uniform,1,undefined,0,0.104166667,1,1,105.9583333,1,20,20344,0,0,0,0,0,0,0,0,45,0,1,0.104166667,105.9583333,20,20344,44,44,44,11/22/2018 14:35,Default description,yes,<openexp._canvas.legacy.Legacy object at 0x0533D690>,<openexp._canvas.legacy.Legacy object at 0x05338CF0>,<openexp._canvas.legacy.Legacy object at 0x0511F9F0>,<openexp._canvas.legacy.Legacy object at 0x05367590>,<openexp._canvas.legacy.Legacy object at 0x05102290>,<openexp._canvas.legacy.Legacy object at 0x05333350>,<openexp._canvas.legacy.Legacy object at 0x05367930>,<openexp._canvas.legacy.Legacy object at 0x0511FA30>,75,SpatProbMultiple3.osexp,C:/Userdata/Michel/SpatProbMultiple3,no,mono,no,18,no,white,no,yes,0.09,98,1050,legacy,315,19,19,1,C:/Userdata/Michel/SpatProbMultiple3/beh/subject-5.csv,legacy,9,192,25,Kafkaesque Koffka,3.2.5,yes,598477b2b83f69022949e7e9,47,green,rectangular,green,circular,0,/,647,space,14388,14388,"(80, 80, 80)","(0, 123, 0)","(177, 0, 0)","(155, 155, 155)",2,legacy,experiment,"[4, 5, 6, 7, 0, 1, 2, 3]",/,2500,3000,0,8,252.7587515,1024,2,48000,-16,main,"[(0, -252), (178, -178), (252, 0), (178, 178), (0, 252), (-178, 178), (-252, 0), (-178, -178)]",[],29,odd,1,NA,3214929,3310972,3310972,3113787,3112776,2285,3149282,3149282,2285,2285,3128176,3359878,2283,3310972,3359227,3358502,3358502,NA,715,study_X,0,14388,1,yes,1680
undefined,undefined,NA,NA,NA,14388,14388,black,no,legacy,legacy,legacy,0,green,"(0, 123, 0)",shape,present,highProb,rectangular,same,same,same,same,green,"(0, 123, 0)",lowProb,lowProb5,circular,uniform,1,undefined,0,0.109375,1,1,115.8177083,1,21,22237,0,0,0,0,0,0,0,0,46,0,1,0.109375,115.8177083,21,22237,45,45,45,11/22/2018 14:35,Default description,yes,<openexp._canvas.legacy.Legacy object at 0x0533D690>,<openexp._canvas.legacy.Legacy object at 0x05338CF0>,<openexp._canvas.legacy.Legacy object at 0x0511F9F0>,<openexp._canvas.legacy.Legacy object at 0x05367590>,<openexp._canvas.legacy.Legacy object at 0x05102290>,<openexp._canvas.legacy.Legacy object at 0x05333350>,<openexp._canvas.legacy.Legacy object at 0x05380E90>,<openexp._canvas.legacy.Legacy object at 0x0511FA30>,75,SpatProbMultiple3.osexp,C:/Userdata/Michel/SpatProbMultiple3,no,mono,no,18,no,white,no,yes,0.09,98,1050,legacy,315,20,20,1,C:/Userdata/Michel/SpatProbMultiple3/beh/subject-5.csv,legacy,9,192,25,Kafkaesque Koffka,3.2.5,yes,598477b2b83f69022949e7e9,47,green,rectangular,green,circular,0,/,1893,space,14388,14388,"(80, 80, 80)","(0, 123, 0)","(177, 0, 0)","(155, 155, 155)",2,legacy,experiment,"[4, 5, 6, 7, 0, 1, 2, 3]",/,2500,3000,0,8,252.7587515,1024,2,48000,-16,main,"[(0, -252), (178, -178), (252, 0), (178, 178), (0, 252), (-178, 178), (-252, 0), (-178, -178)]",[],29,odd,2,NA,3214929,3310972,3310972,3113787,3112776,2285,3149282,3149282,2285,2285,3128176,3362934,2283,3310972,3361037,3360313,3360313,NA,715,study_X,0,14388,1,yes,1680
undefined,undefined,NA,NA,NA,14388,14388,black,no,legacy,legacy,legacy,0,red,"(177, 0, 0)",shape,absent,lowProb5,circular,swap,swap,swap,same,red,"(177, 0, 0)",lowProb,lowProb1,circular,uniform,1,undefined,0,0.114583333,1,1,120.2447917,1,22,23087,0,0,0,0,0,0,0,0,47,0,1,0.114583333,120.2447917,22,23087,46,46,46,11/22/2018 14:35,Default description,yes,<openexp._canvas.legacy.Legacy object at 0x0533D690>,<openexp._canvas.legacy.Legacy object at 0x05338CF0>,<openexp._canvas.legacy.Legacy object at 0x0511F9F0>,<openexp._canvas.legacy.Legacy object at 0x05367590>,<openexp._canvas.legacy.Legacy object at 0x05102290>,<openexp._canvas.legacy.Legacy object at 0x05333350>,<openexp._canvas.legacy.Legacy object at 0x0511FA70>,<openexp._canvas.legacy.Legacy object at 0x0511FA30>,75,SpatProbMultiple3.osexp,C:/Userdata/Michel/SpatProbMultiple3,no,mono,no,18,no,white,no,yes,0.09,98,1050,legacy,45,21,21,1,C:/Userdata/Michel/SpatProbMultiple3/beh/subject-5.csv,legacy,9,192,25,Kafkaesque Koffka,3.2.5,yes,598477b2b83f69022949e7e9,47,red,circular,red,circular,0,\,850,space,14388,14388,"(80, 80, 80)","(0, 123, 0)","(177, 0, 0)","(155, 155, 155)",2,legacy,experiment,"[4, 5, 6, 7, 0, 1, 2, 3]",\,2500,3000,0,8,252.7587515,1024,2,48000,-16,main,"[(0, -252), (178, -178), (252, 0), (178, 178), (0, 252), (-178, 178), (-252, 0), (-178, -178)]",[],29,odd,5,NA,3214929,3310972,3310972,3113787,3112776,2285,3149282,3149282,2285,2285,3128176,3364949,2283,3310972,3364096,3363371,3363371,NA,715,study_X,0,14388,1,yes,1680
undefined,undefined,NA,NA,NA,14388,14388,black,no,legacy,legacy,legacy,0,green,"(0, 123, 0)",shape,present,highProb,circular,swap,same,swap,swap,green,"(0, 123, 0)",lowProb,lowProb1,rectangular,uniform,1,undefined,0,0.119791667,1,1,126.515625,1,23,24291,0,0,0,0,0,0,0,0,48,0,1,0.119791667,126.515625,23,24291,47,47,47,11/22/2018 14:35,Default description,yes,<openexp._canvas.legacy.Legacy object at 0x0533D690>,<openexp._canvas.legacy.Legacy object at 0x05338CF0>,<openexp._canvas.legacy.Legacy object at 0x0511F9F0>,<openexp._canvas.legacy.Legacy object at 0x05367590>,<openexp._canvas.legacy.Legacy object at 0x05102290>,<openexp._canvas.legacy.Legacy object at 0x05333350>,<openexp._canvas.legacy.Legacy object at 0x05394E90>,<openexp._canvas.legacy.Legacy object at 0x0511FA30>,75,SpatProbMultiple3.osexp,C:/Userdata/Michel/SpatProbMultiple3,no,mono,no,18,no,white,no,yes,0.09,98,1050,legacy,315,22,22,1,C:/Userdata/Michel/SpatProbMultiple3/beh/subject-5.csv,legacy,9,192,25,Kafkaesque Koffka,3.2.5,yes,598477b2b83f69022949e7e9,47,green,circular,green,rectangular,0,/,1204,space,14388,14388,"(80, 80, 80)","(0, 123, 0)","(177, 0, 0)","(155, 155, 155)",2,legacy,experiment,"[4, 5, 6, 7, 0, 1, 2, 3]",/,2500,3000,0,8,252.7587515,1024,2,48000,-16,main,"[(0, -252), (178, -178), (252, 0), (178, 178), (0, 252), (-178, 178), (-252, 0), (-178, -178)]",[],29,odd,5,NA,3214929,3310972,3310972,3113787,3112776,2285,3149282,3149282,2285,2285,3128176,3367317,2283,3310972,3366110,3365386,3365386,NA,715,study_X,0,14388,1,yes,1680
undefined,undefined,NA,NA,NA,14388,14388,black,no,legacy,legacy,legacy,0,green,"(0, 123, 0)",color,present,lowProb3,circular,same,same,swap,swap,red,"(177, 0, 0)",highProbShape,highProbShape,circular,uniform,1,undefined,0,0.125,1,1,130.0520833,1,24,24970,0,0,0,0,0,0,0,0,49,0,1,0.125,130.0520833,24,24970,48,48,48,11/22/2018 14:35,Default description,yes,<openexp._canvas.legacy.Legacy object at 0x0533D690>,<openexp._canvas.legacy.Legacy object at 0x05338CF0>,<openexp._canvas.legacy.Legacy object at 0x0511F9F0>,<openexp._canvas.legacy.Legacy object at 0x05367590>,<openexp._canvas.legacy.Legacy object at 0x05102290>,<openexp._canvas.legacy.Legacy object at 0x05333350>,<openexp._canvas.legacy.Legacy object at 0x05395F90>,<openexp._canvas.legacy.Legacy object at 0x0511FA30>,75,SpatProbMultiple3.osexp,C:/Userdata/Michel/SpatProbMultiple3,no,mono,no,18,no,white,no,yes,0.09,98,1050,legacy,315,23,23,1,C:/Userdata/Michel/SpatProbMultiple3/beh/subject-5.csv,legacy,9,192,25,Kafkaesque Koffka,3.2.5,yes,598477b2b83f69022949e7e9,47,green,circular,red,circular,0,/,679,space,14388,14388,"(80, 80, 80)","(0, 123, 0)","(177, 0, 0)","(155, 155, 155)",2,legacy,experiment,"[4, 5, 6, 7, 0, 1, 2, 3]",/,2500,3000,0,8,252.7587515,1024,2,48000,-16,main,"[(0, -252), (178, -178), (252, 0), (178, 178), (0, 252), (-178, 178), (-252, 0), (-178, -178)]",[],29,odd,0,NA,3214929,3310972,3310972,3113787,3112776,2285,3149282,3149282,2285,2285,3128176,3369174,2283,3310972,3368492,3367768,3367768,NA,715,study_X,0,14388,1,yes,1680
undefined,undefined,NA,NA,NA,14388,14388,black,no,legacy,legacy,legacy,0,green,"(0, 123, 0)",shape,absent,lowProb5,circular,same,same,swap,same,green,"(0, 123, 0)",lowProb,lowProb3,circular,uniform,1,undefined,0,0.130208333,1,1,135.6302083,1,25,26041,0,0,0,0,0,0,0,0,50,0,1,0.130208333,135.6302083,25,26041,49,49,49,11/22/2018 14:35,Default description,yes,<openexp._canvas.legacy.Legacy object at 0x0533D690>,<openexp._canvas.legacy.Legacy object at 0x05338CF0>,<openexp._canvas.legacy.Legacy object at 0x0511F9F0>,<openexp._canvas.legacy.Legacy object at 0x05367590>,<openexp._canvas.legacy.Legacy object at 0x05102290>,<openexp._canvas.legacy.Legacy object at 0x05333350>,<openexp._canvas.legacy.Legacy object at 0x05371D70>,<openexp._canvas.legacy.Legacy object at 0x0511FA30>,75,SpatProbMultiple3.osexp,C:/Userdata/Michel/SpatProbMultiple3,no,mono,no,18,no,white,no,yes,0.09,98,1050,legacy,45,24,24,1,C:/Userdata/Michel/SpatProbMultiple3/beh/subject-5.csv,legacy,9,192,25,Kafkaesque Koffka,3.2.5,yes,598477b2b83f69022949e7e9,47,green,circular,green,circular,0,\,1071,space,14388,14388,"(80, 80, 80)","(0, 123, 0)","(177, 0, 0)","(155, 155, 155)",2,legacy,experiment,"[4, 5, 6, 7, 0, 1, 2, 3]",\,2500,3000,0,8,252.7587515,1024,2,48000,-16,main,"[(0, -252), (178, -178), (252, 0), (178, 178), (0, 252), (-178, 178), (-252, 0), (-178, -178)]",[],29,odd,7,NA,3214929,3310972,3310972,3113787,3112776,2285,3149282,3149282,2285,2285,3128176,3371414,2283,3310972,3370340,3369615,3369615,NA,715,study_X,0,14388,1,yes,1680
undefined,undefined,NA,NA,NA,14388,14388,black,no,legacy,legacy,legacy,0,red,"(177, 0, 0)",shape,present,highProb,rectangular,swap,swap,swap,same,red,"(177, 0, 0)",lowProb,lowProb5,circular,uniform,1,undefined,0,0.135416667,1,1,142.1770833,1,26,27298,0,0,0,0,0,0,0,0,51,0,1,0.135416667,142.1770833,26,27298,50,50,50,11/22/2018 14:35,Default description,yes,<openexp._canvas.legacy.Legacy object at 0x0533D690>,<openexp._canvas.legacy.Legacy object at 0x05338CF0>,<openexp._canvas.legacy.Legacy object at 0x0511F9F0>,<openexp._canvas.legacy.Legacy object at 0x05367590>,<openexp._canvas.legacy.Legacy object at 0x05102290>,<openexp._canvas.legacy.Legacy object at 0x05333350>,<openexp._canvas.legacy.Legacy object at 0x0531FBF0>,<openexp._canvas.legacy.Legacy object at 0x0511FA30>,75,SpatProbMultiple3.osexp,C:/Userdata/Michel/SpatProbMultiple3,no,mono,no,18,no,white,no,yes,0.09,98,1050,legacy,315,25,25,1,C:/Userdata/Michel/SpatProbMultiple3/beh/subject-5.csv,legacy,9,192,25,Kafkaesque Koffka,3.2.5,yes,598477b2b83f69022949e7e9,47,red,rectangular,red,circular,0,/,1257,space,14388,14388,"(80, 80, 80)","(0, 123, 0)","(177, 0, 0)","(155, 155, 155)",2,legacy,experiment,"[4, 5, 6, 7, 0, 1, 2, 3]",/,2500,3000,0,8,252.7587515,1024,2,48000,-16,main,"[(0, -252), (178, -178), (252, 0), (178, 178), (0, 252), (-178, 178), (-252, 0), (-178, -178)]",[],29,odd,2,NA,3214929,3310972,3310972,3113787,3112776,2285,3149282,3149282,2285,2285,3128176,3373838,2283,3310972,3372578,3371853,3371853,NA,715,study_X,0,14388,1,yes,1680
undefined,undefined,NA,NA,NA,14388,14388,black,no,legacy,legacy,legacy,0,red,"(177, 0, 0)",color,present,highProb,circular,same,swap,swap,same,green,"(0, 123, 0)",highProbShape,highProbShape,circular,uniform,1,undefined,0,0.140625,1,1,148.5052083,1,27,28513,0,0,0,0,0,0,0,0,52,0,1,0.140625,148.5052083,27,28513,51,51,51,11/22/2018 14:35,Default description,yes,<openexp._canvas.legacy.Legacy object at 0x0533D690>,<openexp._canvas.legacy.Legacy object at 0x05338CF0>,<openexp._canvas.legacy.Legacy object at 0x0511F9F0>,<openexp._canvas.legacy.Legacy object at 0x05367590>,<openexp._canvas.legacy.Legacy object at 0x05102290>,<openexp._canvas.legacy.Legacy object at 0x05333350>,<openexp._canvas.legacy.Legacy object at 0x05371030>,<openexp._canvas.legacy.Legacy object at 0x0511FA30>,75,SpatProbMultiple3.osexp,C:/Userdata/Michel/SpatProbMultiple3,no,mono,no,18,no,white,no,yes,0.09,98,1050,legacy,315,26,26,1,C:/Userdata/Michel/SpatProbMultiple3/beh/subject-5.csv,legacy,9,192,25,Kafkaesque Koffka,3.2.5,yes,598477b2b83f69022949e7e9,47,red,circular,green,circular,0,/,1215,space,14388,14388,"(80, 80, 80)","(0, 123, 0)","(177, 0, 0)","(155, 155, 155)",2,legacy,experiment,"[4, 5, 6, 7, 0, 1, 2, 3]",/,2500,3000,0,8,252.7587515,1024,2,48000,-16,main,"[(0, -252), (178, -178), (252, 0), (178, 178), (0, 252), (-178, 178), (-252, 0), (-178, -178)]",[],29,odd,0,NA,3214929,3310972,3310972,3113787,3112776,2285,3149282,3149282,2285,2285,3128176,3376214,2283,3310972,3374996,3374272,3374273,NA,715,study_X,0,14388,1,yes,1680
undefined,undefined,NA,NA,NA,14388,14388,black,no,legacy,legacy,legacy,0,green,"(0, 123, 0)",color,present,highProb,rectangular,swap,swap,swap,swap,red,"(177, 0, 0)",lowProb,lowProb5,rectangular,uniform,1,undefined,0,0.145833333,1,1,155.0625,1,28,29772,0,0,0,0,0,0,0,0,53,0,1,0.145833333,155.0625,28,29772,52,52,52,11/22/2018 14:35,Default description,yes,<openexp._canvas.legacy.Legacy object at 0x0533D690>,<openexp._canvas.legacy.Legacy object at 0x05338CF0>,<openexp._canvas.legacy.Legacy object at 0x0511F9F0>,<openexp._canvas.legacy.Legacy object at 0x05367590>,<openexp._canvas.legacy.Legacy object at 0x05102290>,<openexp._canvas.legacy.Legacy object at 0x05333350>,<openexp._canvas.legacy.Legacy object at 0x05380150>,<openexp._canvas.legacy.Legacy object at 0x0511FA30>,75,SpatProbMultiple3.osexp,C:/Userdata/Michel/SpatProbMultiple3,no,mono,no,18,no,white,no,yes,0.09,98,1050,legacy,45,27,27,1,C:/Userdata/Michel/SpatProbMultiple3/beh/subject-5.csv,legacy,9,192,25,Kafkaesque Koffka,3.2.5,yes,598477b2b83f69022949e7e9,47,green,rectangular,red,rectangular,0,\,1259,space,14388,14388,"(80, 80, 80)","(0, 123, 0)","(177, 0, 0)","(155, 155, 155)",2,legacy,experiment,"[4, 5, 6, 7, 0, 1, 2, 3]",\,2500,3000,0,8,252.7587515,1024,2,48000,-16,main,"[(0, -252), (178, -178), (252, 0), (178, 178), (0, 252), (-178, 178), (-252, 0), (-178, -178)]",[],29,odd,2,NA,3214929,3310972,3310972,3113787,3112776,2285,3149282,3149282,2285,2285,3128176,3378662,2283,3310972,3377400,3376675,3376675,NA,715,study_X,0,14388,1,yes,1680
undefined,undefined,NA,NA,NA,14388,14388,black,no,legacy,legacy,legacy,0,red,"(177, 0, 0)",color,present,lowProb2,circular,swap,swap,swap,swap,green,"(0, 123, 0)",lowProb,lowProb6,circular,uniform,1,undefined,0,0.151041667,1,1,166.5572917,1,29,31979,0,0,0,0,0,0,0,0,54,0,1,0.151041667,166.5572917,29,31979,53,53,53,11/22/2018 14:35,Default description,yes,<openexp._canvas.legacy.Legacy object at 0x0533D690>,<openexp._canvas.legacy.Legacy object at 0x05338CF0>,<openexp._canvas.legacy.Legacy object at 0x0511F9F0>,<openexp._canvas.legacy.Legacy object at 0x05367590>,<openexp._canvas.legacy.Legacy object at 0x05102290>,<openexp._canvas.legacy.Legacy object at 0x05333350>,<openexp._canvas.legacy.Legacy object at 0x05367510>,<openexp._canvas.legacy.Legacy object at 0x0511FA30>,75,SpatProbMultiple3.osexp,C:/Userdata/Michel/SpatProbMultiple3,no,mono,no,18,no,white,no,yes,0.09,98,1050,legacy,315,28,28,1,C:/Userdata/Michel/SpatProbMultiple3/beh/subject-5.csv,legacy,9,192,25,Kafkaesque Koffka,3.2.5,yes,598477b2b83f69022949e7e9,47,red,circular,green,circular,0,/,2207,space,14388,14388,"(80, 80, 80)","(0, 123, 0)","(177, 0, 0)","(155, 155, 155)",2,legacy,experiment,"[4, 5, 6, 7, 0, 1, 2, 3]",/,2500,3000,0,8,252.7587515,1024,2,48000,-16,main,"[(0, -252), (178, -178), (252, 0), (178, 178), (0, 252), (-178, 178), (-252, 0), (-178, -178)]",[],29,odd,3,NA,3214929,3310972,3310972,3113787,3112776,2285,3149282,3149282,2285,2285,3128176,3382045,2283,3310972,3379835,3379110,3379110,NA,715,study_X,0,14388,1,yes,1680
undefined,undefined,NA,NA,NA,14388,14388,black,no,legacy,legacy,legacy,0,red,"(177, 0, 0)",color,present,lowProb6,rectangular,same,swap,same,swap,green,"(0, 123, 0)",lowProb,lowProb3,rectangular,uniform,1,undefined,0,0.15625,1,1,172.3802083,1,30,33097,0,0,0,0,0,0,0,0,55,0,1,0.15625,172.3802083,30,33097,54,54,54,11/22/2018 14:35,Default description,yes,<openexp._canvas.legacy.Legacy object at 0x0533D690>,<openexp._canvas.legacy.Legacy object at 0x05338CF0>,<openexp._canvas.legacy.Legacy object at 0x0511F9F0>,<openexp._canvas.legacy.Legacy object at 0x05367590>,<openexp._canvas.legacy.Legacy object at 0x05102290>,<openexp._canvas.legacy.Legacy object at 0x05333350>,<openexp._canvas.legacy.Legacy object at 0x0531F510>,<openexp._canvas.legacy.Legacy object at 0x0511FA30>,75,SpatProbMultiple3.osexp,C:/Userdata/Michel/SpatProbMultiple3,no,mono,no,18,no,white,no,yes,0.09,98,1050,legacy,315,29,29,1,C:/Userdata/Michel/SpatProbMultiple3/beh/subject-5.csv,legacy,9,192,25,Kafkaesque Koffka,3.2.5,yes,598477b2b83f69022949e7e9,47,red,rectangular,green,rectangular,0,/,1118,space,14388,14388,"(80, 80, 80)","(0, 123, 0)","(177, 0, 0)","(155, 155, 155)",2,legacy,experiment,"[4, 5, 6, 7, 0, 1, 2, 3]",/,2500,3000,0,8,252.7587515,1024,2,48000,-16,main,"[(0, -252), (178, -178), (252, 0), (178, 178), (0, 252), (-178, 178), (-252, 0), (-178, -178)]",[],29,odd,7,NA,3214929,3310972,3310972,3113787,3112776,2285,3149282,3149282,2285,2285,3128176,3384325,2283,3310972,3383204,3382480,3382480,NA,715,study_X,0,14388,1,yes,1680
undefined,undefined,NA,NA,NA,14388,14388,black,no,legacy,legacy,legacy,0,green,"(0, 123, 0)",shape,present,highProbOther,rectangular,swap,same,same,swap,green,"(0, 123, 0)",lowProb,lowProb5,circular,uniform,1,undefined,0,0.161458333,1,1,179.78125,1,31,34518,0,0,0,0,0,0,0,0,56,0,1,0.161458333,179.78125,31,34518,55,55,55,11/22/2018 14:35,Default description,yes,<openexp._canvas.legacy.Legacy object at 0x0533D690>,<openexp._canvas.legacy.Legacy object at 0x05338CF0>,<openexp._canvas.legacy.Legacy object at 0x0511F9F0>,<openexp._canvas.legacy.Legacy object at 0x05367590>,<openexp._canvas.legacy.Legacy object at 0x05102290>,<openexp._canvas.legacy.Legacy object at 0x05333350>,<openexp._canvas.legacy.Legacy object at 0x05371D70>,<openexp._canvas.legacy.Legacy object at 0x0511FA30>,75,SpatProbMultiple3.osexp,C:/Userdata/Michel/SpatProbMultiple3,no,mono,no,18,no,white,no,yes,0.09,98,1050,legacy,45,30,30,1,C:/Userdata/Michel/SpatProbMultiple3/beh/subject-5.csv,legacy,9,192,25,Kafkaesque Koffka,3.2.5,yes,598477b2b83f69022949e7e9,47,green,rectangular,green,circular,0,\,1421,space,14388,14388,"(80, 80, 80)","(0, 123, 0)","(177, 0, 0)","(155, 155, 155)",2,legacy,experiment,"[4, 5, 6, 7, 0, 1, 2, 3]",\,2500,3000,0,8,252.7587515,1024,2,48000,-16,main,"[(0, -252), (178, -178), (252, 0), (178, 178), (0, 252), (-178, 178), (-252, 0), (-178, -178)]",[],29,odd,2,NA,3214929,3310972,3310972,3113787,3112776,2285,3149282,3149282,2285,2285,3128176,3386910,2283,3310972,3385486,3384762,3384762,NA,715,study_X,0,14388,1,yes,1680
undefined,undefined,NA,NA,NA,14388,14388,black,no,legacy,legacy,legacy,0,green,"(0, 123, 0)",shape,absent,highProbOther,rectangular,same,same,same,swap,green,"(0, 123, 0)",lowProb,lowProb2,rectangular,uniform,1,undefined,0,0.166666667,1,1,187.6614583,1,32,36031,0,0,0,0,0,0,0,0,57,0,1,0.166666667,187.6614583,32,36031,56,56,56,11/22/2018 14:35,Default description,yes,<openexp._canvas.legacy.Legacy object at 0x0533D690>,<openexp._canvas.legacy.Legacy object at 0x05338CF0>,<openexp._canvas.legacy.Legacy object at 0x0511F9F0>,<openexp._canvas.legacy.Legacy object at 0x05367590>,<openexp._canvas.legacy.Legacy object at 0x05102290>,<openexp._canvas.legacy.Legacy object at 0x05333350>,<openexp._canvas.legacy.Legacy object at 0x05394AD0>,<openexp._canvas.legacy.Legacy object at 0x0511FA30>,75,SpatProbMultiple3.osexp,C:/Userdata/Michel/SpatProbMultiple3,no,mono,no,18,no,white,no,yes,0.09,98,1050,legacy,45,31,31,1,C:/Userdata/Michel/SpatProbMultiple3/beh/subject-5.csv,legacy,9,192,25,Kafkaesque Koffka,3.2.5,yes,598477b2b83f69022949e7e9,47,green,rectangular,green,rectangular,0,\,1513,space,14388,14388,"(80, 80, 80)","(0, 123, 0)","(177, 0, 0)","(155, 155, 155)",2,legacy,experiment,"[4, 5, 6, 7, 0, 1, 2, 3]",\,2500,3000,0,8,252.7587515,1024,2,48000,-16,main,"[(0, -252), (178, -178), (252, 0), (178, 178), (0, 252), (-178, 178), (-252, 0), (-178, -178)]",[],29,odd,6,NA,3214929,3310972,3310972,3113787,3112776,2285,3149282,3149282,2285,2285,3128176,3389590,2283,3310972,3388074,3387349,3387350,NA,715,study_X,0,14388,1,yes,1680
undefined,undefined,NA,NA,NA,14388,14388,black,no,legacy,legacy,legacy,0,red,"(177, 0, 0)",color,present,highProb,rectangular,swap,same,same,same,green,"(0, 123, 0)",lowProb,lowProb3,rectangular,uniform,1,undefined,0,0.171875,1,1,191.5677083,1,33,36781,0,0,0,0,0,0,0,0,58,0,1,0.171875,191.5677083,33,36781,57,57,57,11/22/2018 14:35,Default description,yes,<openexp._canvas.legacy.Legacy object at 0x0533D690>,<openexp._canvas.legacy.Legacy object at 0x05338CF0>,<openexp._canvas.legacy.Legacy object at 0x0511F9F0>,<openexp._canvas.legacy.Legacy object at 0x05367590>,<openexp._canvas.legacy.Legacy object at 0x05102290>,<openexp._canvas.legacy.Legacy object at 0x05333350>,<openexp._canvas.legacy.Legacy object at 0x05394AB0>,<openexp._canvas.legacy.Legacy object at 0x0511FA30>,75,SpatProbMultiple3.osexp,C:/Userdata/Michel/SpatProbMultiple3,no,mono,no,18,no,white,no,yes,0.09,98,1050,legacy,45,32,32,1,C:/Userdata/Michel/SpatProbMultiple3/beh/subject-5.csv,legacy,9,192,25,Kafkaesque Koffka,3.2.5,yes,598477b2b83f69022949e7e9,47,red,rectangular,green,rectangular,0,\,750,space,14388,14388,"(80, 80, 80)","(0, 123, 0)","(177, 0, 0)","(155, 155, 155)",2,legacy,experiment,"[4, 5, 6, 7, 0, 1, 2, 3]",\,2500,3000,0,8,252.7587515,1024,2,48000,-16,main,"[(0, -252), (178, -178), (252, 0), (178, 178), (0, 252), (-178, 178), (-252, 0), (-178, -178)]",[],29,odd,7,NA,3214929,3310972,3310972,3113787,3112776,2285,3149282,3149282,2285,2285,3128176,3391494,2283,3310972,3390741,3390016,3390017,NA,715,study_X,0,14388,1,yes,1680
undefined,undefined,NA,NA,NA,14388,14388,black,no,legacy,legacy,legacy,0,red,"(177, 0, 0)",shape,present,highProb,circular,same,swap,swap,same,red,"(177, 0, 0)",lowProb,lowProb2,rectangular,uniform,1,undefined,0,0.177083333,1,1,197.890625,1,34,37995,0,0,0,0,0,0,0,0,59,0,1,0.177083333,197.890625,34,37995,58,58,58,11/22/2018 14:35,Default description,yes,<openexp._canvas.legacy.Legacy object at 0x0533D690>,<openexp._canvas.legacy.Legacy object at 0x05338CF0>,<openexp._canvas.legacy.Legacy object at 0x0511F9F0>,<openexp._canvas.legacy.Legacy object at 0x05367590>,<openexp._canvas.legacy.Legacy object at 0x05102290>,<openexp._canvas.legacy.Legacy object at 0x05333350>,<openexp._canvas.legacy.Legacy object at 0x05371110>,<openexp._canvas.legacy.Legacy object at 0x0511FA30>,75,SpatProbMultiple3.osexp,C:/Userdata/Michel/SpatProbMultiple3,no,mono,no,18,no,white,no,yes,0.09,98,1050,legacy,315,33,33,1,C:/Userdata/Michel/SpatProbMultiple3/beh/subject-5.csv,legacy,9,192,25,Kafkaesque Koffka,3.2.5,yes,598477b2b83f69022949e7e9,47,red,circular,red,rectangular,0,/,1214,space,14388,14388,"(80, 80, 80)","(0, 123, 0)","(177, 0, 0)","(155, 155, 155)",2,legacy,experiment,"[4, 5, 6, 7, 0, 1, 2, 3]",/,2500,3000,0,8,252.7587515,1024,2,48000,-16,main,"[(0, -252), (178, -178), (252, 0), (178, 178), (0, 252), (-178, 178), (-252, 0), (-178, -178)]",[],29,odd,6,NA,3214929,3310972,3310972,3113787,3112776,2285,3149282,3149282,2285,2285,3128176,3393870,2283,3310972,3392652,3391927,3391927,NA,715,study_X,0,14388,1,yes,1680
undefined,undefined,NA,NA,NA,14388,14388,black,no,legacy,legacy,legacy,0,red,"(177, 0, 0)",color,present,highProb,rectangular,same,swap,swap,same,green,"(0, 123, 0)",lowProb,lowProb1,rectangular,uniform,1,undefined,0,0.182291667,1,1,205.3333333,1,35,39424,0,0,0,0,0,0,0,0,60,0,1,0.182291667,205.3333333,35,39424,59,59,59,11/22/2018 14:35,Default description,yes,<openexp._canvas.legacy.Legacy object at 0x0533D690>,<openexp._canvas.legacy.Legacy object at 0x05338CF0>,<openexp._canvas.legacy.Legacy object at 0x0511F9F0>,<openexp._canvas.legacy.Legacy object at 0x05367590>,<openexp._canvas.legacy.Legacy object at 0x05102290>,<openexp._canvas.legacy.Legacy object at 0x05333350>,<openexp._canvas.legacy.Legacy object at 0x05371830>,<openexp._canvas.legacy.Legacy object at 0x0511FA30>,75,SpatProbMultiple3.osexp,C:/Userdata/Michel/SpatProbMultiple3,no,mono,no,18,no,white,no,yes,0.09,98,1050,legacy,45,34,34,1,C:/Userdata/Michel/SpatProbMultiple3/beh/subject-5.csv,legacy,9,192,25,Kafkaesque Koffka,3.2.5,yes,598477b2b83f69022949e7e9,47,red,rectangular,green,rectangular,0,\,1429,space,14388,14388,"(80, 80, 80)","(0, 123, 0)","(177, 0, 0)","(155, 155, 155)",2,legacy,experiment,"[4, 5, 6, 7, 0, 1, 2, 3]",\,2500,3000,0,8,252.7587515,1024,2,48000,-16,main,"[(0, -252), (178, -178), (252, 0), (178, 178), (0, 252), (-178, 178), (-252, 0), (-178, -178)]",[],29,odd,5,NA,3214929,3310972,3310972,3113787,3112776,2285,3149282,3149282,2285,2285,3128176,3396469,2283,3310972,3395037,3394313,3394313,NA,715,study_X,0,14388,1,yes,1680
undefined,undefined,NA,NA,NA,14388,14388,black,no,legacy,legacy,legacy,0,red,"(177, 0, 0)",shape,absent,lowProb6,circular,same,swap,swap,swap,red,"(177, 0, 0)",lowProb,lowProb2,circular,uniform,0,undefined,0,0.182291667,1,1,218.3541667,1,35,41924,0,0,0,0,0,0,0,0,61,0,1,0.182291667,218.3541667,35,41924,60,60,60,11/22/2018 14:35,Default description,yes,<openexp._canvas.legacy.Legacy object at 0x0533D690>,<openexp._canvas.legacy.Legacy object at 0x05338CF0>,<openexp._canvas.legacy.Legacy object at 0x0511F9F0>,<openexp._canvas.legacy.Legacy object at 0x05367590>,<openexp._canvas.legacy.Legacy object at 0x05102290>,<openexp._canvas.legacy.Legacy object at 0x05333350>,<openexp._canvas.legacy.Legacy object at 0x05395110>,<openexp._canvas.legacy.Legacy object at 0x0511FA30>,75,SpatProbMultiple3.osexp,C:/Userdata/Michel/SpatProbMultiple3,no,mono,no,18,no,white,no,yes,0.09,98,1050,legacy,315,35,35,1,C:/Userdata/Michel/SpatProbMultiple3/beh/subject-5.csv,legacy,9,192,25,Kafkaesque Koffka,3.2.5,yes,598477b2b83f69022949e7e9,47,red,circular,red,circular,0,None,2500,space,14388,14388,"(80, 80, 80)","(0, 123, 0)","(177, 0, 0)","(155, 155, 155)",2,legacy,experiment,"[4, 5, 6, 7, 0, 1, 2, 3]",/,2500,3000,0,8,252.7587515,1024,2,48000,-16,main,"[(0, -252), (178, -178), (252, 0), (178, 178), (0, 252), (-178, 178), (-252, 0), (-178, -178)]",[],29,odd,6,NA,3214929,3310972,3310972,3113787,3112776,2285,3149282,3149282,2285,2285,3128176,3400139,2283,3310972,3397636,3396911,3396911,NA,715,study_X,0,14388,1,yes,1680
undefined,undefined,NA,NA,NA,14388,14388,black,no,legacy,legacy,legacy,0,green,"(0, 123, 0)",color,absent,lowProb6,circular,swap,same,swap,same,green,"(0, 123, 0)",lowProb,lowProb3,circular,uniform,1,undefined,0,0.1875,1,1,222.2447917,1,36,42671,0,0,0,0,0,0,0,0,62,0,1,0.1875,222.2447917,36,42671,61,61,61,11/22/2018 14:35,Default description,yes,<openexp._canvas.legacy.Legacy object at 0x0533D690>,<openexp._canvas.legacy.Legacy object at 0x05338CF0>,<openexp._canvas.legacy.Legacy object at 0x0511F9F0>,<openexp._canvas.legacy.Legacy object at 0x05367590>,<openexp._canvas.legacy.Legacy object at 0x05102290>,<openexp._canvas.legacy.Legacy object at 0x05333350>,<openexp._canvas.legacy.Legacy object at 0x0533D870>,<openexp._canvas.legacy.Legacy object at 0x0511FA30>,75,SpatProbMultiple3.osexp,C:/Userdata/Michel/SpatProbMultiple3,no,mono,no,18,no,white,no,yes,0.09,98,1050,legacy,315,36,36,1,C:/Userdata/Michel/SpatProbMultiple3/beh/subject-5.csv,legacy,9,192,25,Kafkaesque Koffka,3.2.5,yes,598477b2b83f69022949e7e9,47,green,circular,green,circular,0,/,747,space,14388,14388,"(80, 80, 80)","(0, 123, 0)","(177, 0, 0)","(155, 155, 155)",2,legacy,experiment,"[4, 5, 6, 7, 0, 1, 2, 3]",/,2500,3000,0,8,252.7587515,1024,2,48000,-16,main,"[(0, -252), (178, -178), (252, 0), (178, 178), (0, 252), (-178, 178), (-252, 0), (-178, -178)]",[],29,odd,7,NA,3214929,3310972,3310972,3113787,3112776,2285,3149282,3149282,2285,2285,3128176,3402053,2283,3310972,3401303,3400578,3400578,NA,715,study_X,0,14388,1,yes,1680
undefined,undefined,NA,NA,NA,14388,14388,black,no,legacy,legacy,legacy,0,green,"(0, 123, 0)",color,present,highProb,rectangular,same,swap,swap,swap,red,"(177, 0, 0)",lowProb,lowProb1,rectangular,uniform,1,undefined,0,0.192708333,1,1,229.1458333,1,37,43996,0,0,0,0,0,0,0,0,63,0,1,0.192708333,229.1458333,37,43996,62,62,62,11/22/2018 14:35,Default description,yes,<openexp._canvas.legacy.Legacy object at 0x0533D690>,<openexp._canvas.legacy.Legacy object at 0x05338CF0>,<openexp._canvas.legacy.Legacy object at 0x0511F9F0>,<openexp._canvas.legacy.Legacy object at 0x05367590>,<openexp._canvas.legacy.Legacy object at 0x05102290>,<openexp._canvas.legacy.Legacy object at 0x05333350>,<openexp._canvas.legacy.Legacy object at 0x05394A30>,<openexp._canvas.legacy.Legacy object at 0x0511FA30>,75,SpatProbMultiple3.osexp,C:/Userdata/Michel/SpatProbMultiple3,no,mono,no,18,no,white,no,yes,0.09,98,1050,legacy,45,37,37,1,C:/Userdata/Michel/SpatProbMultiple3/beh/subject-5.csv,legacy,9,192,25,Kafkaesque Koffka,3.2.5,yes,598477b2b83f69022949e7e9,47,green,rectangular,red,rectangular,0,\,1325,space,14388,14388,"(80, 80, 80)","(0, 123, 0)","(177, 0, 0)","(155, 155, 155)",2,legacy,experiment,"[4, 5, 6, 7, 0, 1, 2, 3]",\,2500,3000,0,8,252.7587515,1024,2,48000,-16,main,"[(0, -252), (178, -178), (252, 0), (178, 178), (0, 252), (-178, 178), (-252, 0), (-178, -178)]",[],29,odd,5,NA,3214929,3310972,3310972,3113787,3112776,2285,3149282,3149282,2285,2285,3128176,3404542,2283,3310972,3403214,3402490,3402490,NA,715,study_X,0,14388,1,yes,1680
undefined,undefined,NA,NA,NA,14388,14388,black,no,legacy,legacy,legacy,0,red,"(177, 0, 0)",shape,present,highProb,rectangular,swap,same,same,swap,red,"(177, 0, 0)",lowProb,lowProb4,circular,uniform,1,undefined,0,0.197916667,1,1,234.8854167,1,38,45098,0,0,0,0,0,0,0,0,64,0,1,0.197916667,234.8854167,38,45098,63,63,63,11/22/2018 14:35,Default description,yes,<openexp._canvas.legacy.Legacy object at 0x0533D690>,<openexp._canvas.legacy.Legacy object at 0x05338CF0>,<openexp._canvas.legacy.Legacy object at 0x0511F9F0>,<openexp._canvas.legacy.Legacy object at 0x05367590>,<openexp._canvas.legacy.Legacy object at 0x05102290>,<openexp._canvas.legacy.Legacy object at 0x05333350>,<openexp._canvas.legacy.Legacy object at 0x05371D70>,<openexp._canvas.legacy.Legacy object at 0x0511FA30>,75,SpatProbMultiple3.osexp,C:/Userdata/Michel/SpatProbMultiple3,no,mono,no,18,no,white,no,yes,0.09,98,1050,legacy,45,38,38,1,C:/Userdata/Michel/SpatProbMultiple3/beh/subject-5.csv,legacy,9,192,25,Kafkaesque Koffka,3.2.5,yes,598477b2b83f69022949e7e9,47,red,rectangular,red,circular,0,\,1102,space,14388,14388,"(80, 80, 80)","(0, 123, 0)","(177, 0, 0)","(155, 155, 155)",2,legacy,experiment,"[4, 5, 6, 7, 0, 1, 2, 3]",\,2500,3000,0,8,252.7587515,1024,2,48000,-16,main,"[(0, -252), (178, -178), (252, 0), (178, 178), (0, 252), (-178, 178), (-252, 0), (-178, -178)]",[],29,odd,1,NA,3214929,3310972,3310972,3113787,3112776,2285,3149282,3149282,2285,2285,3128176,3406838,2283,3310972,3405732,3405007,3405007,NA,715,study_X,0,14388,1,yes,1680
undefined,undefined,NA,NA,NA,14388,14388,black,no,legacy,legacy,legacy,0,red,"(177, 0, 0)",color,absent,highProbOther,rectangular,same,same,same,swap,red,"(177, 0, 0)",lowProb,lowProb4,rectangular,uniform,1,undefined,0,0.203125,1,1,239.9322917,1,39,46067,0,0,0,0,0,0,0,0,65,0,1,0.203125,239.9322917,39,46067,64,64,64,11/22/2018 14:35,Default description,yes,<openexp._canvas.legacy.Legacy object at 0x0533D690>,<openexp._canvas.legacy.Legacy object at 0x05338CF0>,<openexp._canvas.legacy.Legacy object at 0x0511F9F0>,<openexp._canvas.legacy.Legacy object at 0x05367590>,<openexp._canvas.legacy.Legacy object at 0x05102290>,<openexp._canvas.legacy.Legacy object at 0x05333350>,<openexp._canvas.legacy.Legacy object at 0x05380E10>,<openexp._canvas.legacy.Legacy object at 0x0511FA30>,75,SpatProbMultiple3.osexp,C:/Userdata/Michel/SpatProbMultiple3,no,mono,no,18,no,white,no,yes,0.09,98,1050,legacy,315,39,39,1,C:/Userdata/Michel/SpatProbMultiple3/beh/subject-5.csv,legacy,9,192,25,Kafkaesque Koffka,3.2.5,yes,598477b2b83f69022949e7e9,47,red,rectangular,red,rectangular,0,/,969,space,14388,14388,"(80, 80, 80)","(0, 123, 0)","(177, 0, 0)","(155, 155, 155)",2,legacy,experiment,"[4, 5, 6, 7, 0, 1, 2, 3]",/,2500,3000,0,8,252.7587515,1024,2,48000,-16,main,"[(0, -252), (178, -178), (252, 0), (178, 178), (0, 252), (-178, 178), (-252, 0), (-178, -178)]",[],29,odd,1,NA,3214929,3310972,3310972,3113787,3112776,2285,3149282,3149282,2285,2285,3128176,3408982,2283,3310972,3408009,3407285,3407285,NA,715,study_X,0,14388,1,yes,1680
undefined,undefined,NA,NA,NA,14388,14388,black,no,legacy,legacy,legacy,0,red,"(177, 0, 0)",color,present,highProb,rectangular,same,same,swap,same,green,"(0, 123, 0)",lowProb,lowProb5,rectangular,uniform,0,undefined,0,0.203125,1,1,247.15625,1,39,47454,0,0,0,0,0,0,0,0,66,0,1,0.203125,247.15625,39,47454,65,65,65,11/22/2018 14:35,Default description,yes,<openexp._canvas.legacy.Legacy object at 0x0533D690>,<openexp._canvas.legacy.Legacy object at 0x05338CF0>,<openexp._canvas.legacy.Legacy object at 0x0511F9F0>,<openexp._canvas.legacy.Legacy object at 0x05367590>,<openexp._canvas.legacy.Legacy object at 0x05102290>,<openexp._canvas.legacy.Legacy object at 0x05333350>,<openexp._canvas.legacy.Legacy object at 0x05394A30>,<openexp._canvas.legacy.Legacy object at 0x0511FA30>,75,SpatProbMultiple3.osexp,C:/Userdata/Michel/SpatProbMultiple3,no,mono,no,18,no,white,no,yes,0.09,98,1050,legacy,45,40,40,1,C:/Userdata/Michel/SpatProbMultiple3/beh/subject-5.csv,legacy,9,192,25,Kafkaesque Koffka,3.2.5,yes,598477b2b83f69022949e7e9,47,red,rectangular,green,rectangular,0,/,1387,space,14388,14388,"(80, 80, 80)","(0, 123, 0)","(177, 0, 0)","(155, 155, 155)",2,legacy,experiment,"[4, 5, 6, 7, 0, 1, 2, 3]",\,2500,3000,0,8,252.7587515,1024,2,48000,-16,main,"[(0, -252), (178, -178), (252, 0), (178, 178), (0, 252), (-178, 178), (-252, 0), (-178, -178)]",[],29,odd,2,NA,3214929,3310972,3310972,3113787,3112776,2285,3149282,3149282,2285,2285,3128176,3411557,2283,3310972,3410167,3409442,3409442,NA,715,study_X,0,14388,1,yes,1680
undefined,undefined,NA,NA,NA,14388,14388,black,no,legacy,legacy,legacy,0,green,"(0, 123, 0)",shape,absent,lowProb1,rectangular,swap,same,same,same,green,"(0, 123, 0)",highProbShape,highProbShape,rectangular,uniform,1,undefined,0,0.208333333,1,1,254.015625,1,40,48771,0,0,0,0,0,0,0,0,67,0,1,0.208333333,254.015625,40,48771,66,66,66,11/22/2018 14:35,Default description,yes,<openexp._canvas.legacy.Legacy object at 0x0533D690>,<openexp._canvas.legacy.Legacy object at 0x05338CF0>,<openexp._canvas.legacy.Legacy object at 0x0511F9F0>,<openexp._canvas.legacy.Legacy object at 0x05367590>,<openexp._canvas.legacy.Legacy object at 0x05102290>,<openexp._canvas.legacy.Legacy object at 0x05333350>,<openexp._canvas.legacy.Legacy object at 0x053950B0>,<openexp._canvas.legacy.Legacy object at 0x0511FA30>,75,SpatProbMultiple3.osexp,C:/Userdata/Michel/SpatProbMultiple3,no,mono,no,18,no,white,no,yes,0.09,98,1050,legacy,315,41,41,1,C:/Userdata/Michel/SpatProbMultiple3/beh/subject-5.csv,legacy,9,192,25,Kafkaesque Koffka,3.2.5,yes,598477b2b83f69022949e7e9,47,green,rectangular,green,rectangular,0,/,1317,space,14388,14388,"(80, 80, 80)","(0, 123, 0)","(177, 0, 0)","(155, 155, 155)",2,legacy,experiment,"[4, 5, 6, 7, 0, 1, 2, 3]",/,2500,3000,0,8,252.7587515,1024,2,48000,-16,main,"[(0, -252), (178, -178), (252, 0), (178, 178), (0, 252), (-178, 178), (-252, 0), (-178, -178)]",[],29,odd,0,NA,3214929,3310972,3310972,3113787,3112776,2285,3149282,3149282,2285,2285,3128176,3414029,2283,3310972,3412710,3411986,3411986,NA,715,study_X,0,14388,1,yes,1680
undefined,undefined,NA,NA,NA,14388,14388,black,no,legacy,legacy,legacy,0,red,"(177, 0, 0)",shape,present,highProb,rectangular,swap,same,swap,swap,red,"(177, 0, 0)",lowProb,lowProb1,circular,uniform,1,undefined,0,0.213541667,1,1,259.7916667,1,41,49880,0,0,0,0,0,0,0,0,68,0,1,0.213541667,259.7916667,41,49880,67,67,67,11/22/2018 14:35,Default description,yes,<openexp._canvas.legacy.Legacy object at 0x0533D690>,<openexp._canvas.legacy.Legacy object at 0x05338CF0>,<openexp._canvas.legacy.Legacy object at 0x0511F9F0>,<openexp._canvas.legacy.Legacy object at 0x05367590>,<openexp._canvas.legacy.Legacy object at 0x05102290>,<openexp._canvas.legacy.Legacy object at 0x05333350>,<openexp._canvas.legacy.Legacy object at 0x0537ECF0>,<openexp._canvas.legacy.Legacy object at 0x0511FA30>,75,SpatProbMultiple3.osexp,C:/Userdata/Michel/SpatProbMultiple3,no,mono,no,18,no,white,no,yes,0.09,98,1050,legacy,315,42,42,1,C:/Userdata/Michel/SpatProbMultiple3/beh/subject-5.csv,legacy,9,192,25,Kafkaesque Koffka,3.2.5,yes,598477b2b83f69022949e7e9,47,red,rectangular,red,circular,0,/,1109,space,14388,14388,"(80, 80, 80)","(0, 123, 0)","(177, 0, 0)","(155, 155, 155)",2,legacy,experiment,"[4, 5, 6, 7, 0, 1, 2, 3]",/,2500,3000,0,8,252.7587515,1024,2,48000,-16,main,"[(0, -252), (178, -178), (252, 0), (178, 178), (0, 252), (-178, 178), (-252, 0), (-178, -178)]",[],29,odd,5,NA,3214929,3310972,3310972,3113787,3112776,2285,3149282,3149282,2285,2285,3128176,3416317,2283,3310972,3415205,3414480,3414480,NA,715,study_X,0,14388,1,yes,1680
undefined,undefined,NA,NA,NA,14388,14388,black,no,legacy,legacy,legacy,0,green,"(0, 123, 0)",shape,present,highProb,circular,swap,swap,swap,swap,green,"(0, 123, 0)",lowProb,lowProb1,rectangular,uniform,1,undefined,0,0.21875,1,1,263.5520833,1,42,50602,0,0,0,0,0,0,0,0,69,0,1,0.21875,263.5520833,42,50602,68,68,68,11/22/2018 14:35,Default description,yes,<openexp._canvas.legacy.Legacy object at 0x0533D690>,<openexp._canvas.legacy.Legacy object at 0x05338CF0>,<openexp._canvas.legacy.Legacy object at 0x0511F9F0>,<openexp._canvas.legacy.Legacy object at 0x05367590>,<openexp._canvas.legacy.Legacy object at 0x05102290>,<openexp._canvas.legacy.Legacy object at 0x05333350>,<openexp._canvas.legacy.Legacy object at 0x0531F7B0>,<openexp._canvas.legacy.Legacy object at 0x0511FA30>,75,SpatProbMultiple3.osexp,C:/Userdata/Michel/SpatProbMultiple3,no,mono,no,18,no,white,no,yes,0.09,98,1050,legacy,45,43,43,1,C:/Userdata/Michel/SpatProbMultiple3/beh/subject-5.csv,legacy,9,192,25,Kafkaesque Koffka,3.2.5,yes,598477b2b83f69022949e7e9,47,green,circular,green,rectangular,0,\,722,space,14388,14388,"(80, 80, 80)","(0, 123, 0)","(177, 0, 0)","(155, 155, 155)",2,legacy,experiment,"[4, 5, 6, 7, 0, 1, 2, 3]",\,2500,3000,0,8,252.7587515,1024,2,48000,-16,main,"[(0, -252), (178, -178), (252, 0), (178, 178), (0, 252), (-178, 178), (-252, 0), (-178, -178)]",[],29,odd,5,NA,3214929,3310972,3310972,3113787,3112776,2285,3149282,3149282,2285,2285,3128176,3418197,2283,3310972,3417473,3416749,3416749,NA,715,study_X,0,14388,1,yes,1680
undefined,undefined,NA,NA,NA,14388,14388,black,no,legacy,legacy,legacy,0,green,"(0, 123, 0)",color,present,lowProb1,circular,same,same,swap,swap,red,"(177, 0, 0)",highProbColor,highProbColor,circular,uniform,1,undefined,0,0.223958333,1,1,268.8697917,1,43,51623,0,0,0,0,0,0,0,0,70,0,1,0.223958333,268.8697917,43,51623,69,69,69,11/22/2018 14:35,Default description,yes,<openexp._canvas.legacy.Legacy object at 0x0533D690>,<openexp._canvas.legacy.Legacy object at 0x05338CF0>,<openexp._canvas.legacy.Legacy object at 0x0511F9F0>,<openexp._canvas.legacy.Legacy object at 0x05367590>,<openexp._canvas.legacy.Legacy object at 0x05102290>,<openexp._canvas.legacy.Legacy object at 0x05333350>,<openexp._canvas.legacy.Legacy object at 0x05380770>,<openexp._canvas.legacy.Legacy object at 0x0511FA30>,75,SpatProbMultiple3.osexp,C:/Userdata/Michel/SpatProbMultiple3,no,mono,no,18,no,white,no,yes,0.09,98,1050,legacy,315,44,44,1,C:/Userdata/Michel/SpatProbMultiple3/beh/subject-5.csv,legacy,9,192,25,Kafkaesque Koffka,3.2.5,yes,598477b2b83f69022949e7e9,47,green,circular,red,circular,0,/,1021,space,14388,14388,"(80, 80, 80)","(0, 123, 0)","(177, 0, 0)","(155, 155, 155)",2,legacy,experiment,"[4, 5, 6, 7, 0, 1, 2, 3]",/,2500,3000,0,8,252.7587515,1024,2,48000,-16,main,"[(0, -252), (178, -178), (252, 0), (178, 178), (0, 252), (-178, 178), (-252, 0), (-178, -178)]",[],29,odd,4,NA,3214929,3310972,3310972,3113787,3112776,2285,3149282,3149282,2285,2285,3128176,3420390,2283,3310972,3419366,3418642,3418642,NA,715,study_X,0,14388,1,yes,1680
undefined,undefined,NA,NA,NA,14388,14388,black,no,legacy,legacy,legacy,0,red,"(177, 0, 0)",shape,present,lowProb4,circular,swap,same,same,swap,red,"(177, 0, 0)",lowProb,lowProb6,rectangular,uniform,1,undefined,0,0.229166667,1,1,273.65625,1,44,52542,0,0,0,0,0,0,0,0,71,0,1,0.229166667,273.65625,44,52542,70,70,70,11/22/2018 14:35,Default description,yes,<openexp._canvas.legacy.Legacy object at 0x0533D690>,<openexp._canvas.legacy.Legacy object at 0x05338CF0>,<openexp._canvas.legacy.Legacy object at 0x0511F9F0>,<openexp._canvas.legacy.Legacy object at 0x05367590>,<openexp._canvas.legacy.Legacy object at 0x05102290>,<openexp._canvas.legacy.Legacy object at 0x05333350>,<openexp._canvas.legacy.Legacy object at 0x05367DD0>,<openexp._canvas.legacy.Legacy object at 0x0511FA30>,75,SpatProbMultiple3.osexp,C:/Userdata/Michel/SpatProbMultiple3,no,mono,no,18,no,white,no,yes,0.09,98,1050,legacy,315,45,45,1,C:/Userdata/Michel/SpatProbMultiple3/beh/subject-5.csv,legacy,9,192,25,Kafkaesque Koffka,3.2.5,yes,598477b2b83f69022949e7e9,47,red,circular,red,rectangular,0,/,919,space,14388,14388,"(80, 80, 80)","(0, 123, 0)","(177, 0, 0)","(155, 155, 155)",2,legacy,experiment,"[4, 5, 6, 7, 0, 1, 2, 3]",/,2500,3000,0,8,252.7587515,1024,2,48000,-16,main,"[(0, -252), (178, -178), (252, 0), (178, 178), (0, 252), (-178, 178), (-252, 0), (-178, -178)]",[],29,odd,3,NA,3214929,3310972,3310972,3113787,3112776,2285,3149282,3149282,2285,2285,3128176,3422486,2283,3310972,3421563,3420838,3420838,NA,715,study_X,0,14388,1,yes,1680
undefined,undefined,NA,NA,NA,14388,14388,black,no,legacy,legacy,legacy,0,red,"(177, 0, 0)",color,present,lowProb1,rectangular,same,swap,swap,same,green,"(0, 123, 0)",lowProb,lowProb5,rectangular,uniform,1,undefined,0,0.234375,1,1,278.421875,1,45,53457,0,0,0,0,0,0,0,0,72,0,1,0.234375,278.421875,45,53457,71,71,71,11/22/2018 14:35,Default description,yes,<openexp._canvas.legacy.Legacy object at 0x0533D690>,<openexp._canvas.legacy.Legacy object at 0x05338CF0>,<openexp._canvas.legacy.Legacy object at 0x0511F9F0>,<openexp._canvas.legacy.Legacy object at 0x05367590>,<openexp._canvas.legacy.Legacy object at 0x05102290>,<openexp._canvas.legacy.Legacy object at 0x05333350>,<openexp._canvas.legacy.Legacy object at 0x05415FF0>,<openexp._canvas.legacy.Legacy object at 0x0511FA30>,75,SpatProbMultiple3.osexp,C:/Userdata/Michel/SpatProbMultiple3,no,mono,no,18,no,white,no,yes,0.09,98,1050,legacy,45,46,46,1,C:/Userdata/Michel/SpatProbMultiple3/beh/subject-5.csv,legacy,9,192,25,Kafkaesque Koffka,3.2.5,yes,598477b2b83f69022949e7e9,47,red,rectangular,green,rectangular,0,\,915,space,14388,14388,"(80, 80, 80)","(0, 123, 0)","(177, 0, 0)","(155, 155, 155)",2,legacy,experiment,"[4, 5, 6, 7, 0, 1, 2, 3]",\,2500,3000,0,8,252.7587515,1024,2,48000,-16,main,"[(0, -252), (178, -178), (252, 0), (178, 178), (0, 252), (-178, 178), (-252, 0), (-178, -178)]",[],29,odd,2,NA,3214929,3310972,3310972,3113787,3112776,2285,3149282,3149282,2285,2285,3128176,3424606,2283,3310972,3423688,3422966,3422966,NA,715,study_X,0,14388,1,yes,1680
undefined,undefined,NA,NA,NA,14388,14388,black,no,legacy,legacy,legacy,0,red,"(177, 0, 0)",color,present,lowProb3,rectangular,same,same,same,same,green,"(0, 123, 0)",lowProb,lowProb1,rectangular,uniform,1,undefined,0,0.239583333,1,1,282.8229167,1,46,54302,0,0,0,0,0,0,0,0,73,0,1,0.239583333,282.8229167,46,54302,72,72,72,11/22/2018 14:35,Default description,yes,<openexp._canvas.legacy.Legacy object at 0x0533D690>,<openexp._canvas.legacy.Legacy object at 0x05338CF0>,<openexp._canvas.legacy.Legacy object at 0x0511F9F0>,<openexp._canvas.legacy.Legacy object at 0x05367590>,<openexp._canvas.legacy.Legacy object at 0x05102290>,<openexp._canvas.legacy.Legacy object at 0x05333350>,<openexp._canvas.legacy.Legacy object at 0x053670D0>,<openexp._canvas.legacy.Legacy object at 0x0511FA30>,75,SpatProbMultiple3.osexp,C:/Userdata/Michel/SpatProbMultiple3,no,mono,no,18,no,white,no,yes,0.09,98,1050,legacy,315,47,47,1,C:/Userdata/Michel/SpatProbMultiple3/beh/subject-5.csv,legacy,9,192,25,Kafkaesque Koffka,3.2.5,yes,598477b2b83f69022949e7e9,47,red,rectangular,green,rectangular,0,/,845,space,14388,14388,"(80, 80, 80)","(0, 123, 0)","(177, 0, 0)","(155, 155, 155)",2,legacy,experiment,"[4, 5, 6, 7, 0, 1, 2, 3]",/,2500,3000,0,8,252.7587515,1024,2,48000,-16,main,"[(0, -252), (178, -178), (252, 0), (178, 178), (0, 252), (-178, 178), (-252, 0), (-178, -178)]",[],29,odd,5,NA,3214929,3310972,3310972,3113787,3112776,2285,3149282,3149282,2285,2285,3128176,3426613,2283,3310972,3425765,3425040,3425040,NA,715,study_X,0,14388,1,yes,1680
undefined,undefined,NA,NA,NA,14388,14388,black,no,legacy,legacy,legacy,0,green,"(0, 123, 0)",color,present,lowProb3,circular,swap,swap,swap,swap,red,"(177, 0, 0)",lowProb,lowProb1,circular,uniform,0,undefined,0,0.239583333,1,1,295.84375,1,46,56802,0,0,0,0,0,0,0,0,74,0,1,0.239583333,295.84375,46,56802,73,73,73,11/22/2018 14:35,Default description,yes,<openexp._canvas.legacy.Legacy object at 0x0533D690>,<openexp._canvas.legacy.Legacy object at 0x05338CF0>,<openexp._canvas.legacy.Legacy object at 0x0511F9F0>,<openexp._canvas.legacy.Legacy object at 0x05367590>,<openexp._canvas.legacy.Legacy object at 0x05102290>,<openexp._canvas.legacy.Legacy object at 0x05333350>,<openexp._canvas.legacy.Legacy object at 0x0537E550>,<openexp._canvas.legacy.Legacy object at 0x0511FA30>,75,SpatProbMultiple3.osexp,C:/Userdata/Michel/SpatProbMultiple3,no,mono,no,18,no,white,no,yes,0.09,98,1050,legacy,45,48,48,1,C:/Userdata/Michel/SpatProbMultiple3/beh/subject-5.csv,legacy,9,192,25,Kafkaesque Koffka,3.2.5,yes,598477b2b83f69022949e7e9,47,green,circular,red,circular,0,None,2500,space,14388,14388,"(80, 80, 80)","(0, 123, 0)","(177, 0, 0)","(155, 155, 155)",2,legacy,experiment,"[4, 5, 6, 7, 0, 1, 2, 3]",\,2500,3000,0,8,252.7587515,1024,2,48000,-16,main,"[(0, -252), (178, -178), (252, 0), (178, 178), (0, 252), (-178, 178), (-252, 0), (-178, -178)]",[],29,odd,5,NA,3214929,3310972,3310972,3113787,3112776,2285,3149282,3149282,2285,2285,3128176,3430284,2283,3310972,3427781,3427057,3427057,NA,715,study_X,0,14388,1,yes,1680
undefined,undefined,NA,NA,NA,14388,14388,black,no,legacy,legacy,legacy,0,red,"(177, 0, 0)",color,present,highProb,circular,swap,same,swap,same,green,"(0, 123, 0)",lowProb,lowProb4,circular,uniform,1,undefined,0,0.244791667,1,1,301.9375,1,47,57972,0,0,0,0,0,0,0,0,75,0,1,0.244791667,301.9375,47,57972,74,74,74,11/22/2018 14:35,Default description,yes,<openexp._canvas.legacy.Legacy object at 0x0533D690>,<openexp._canvas.legacy.Legacy object at 0x05338CF0>,<openexp._canvas.legacy.Legacy object at 0x0511F9F0>,<openexp._canvas.legacy.Legacy object at 0x05367590>,<openexp._canvas.legacy.Legacy object at 0x05102290>,<openexp._canvas.legacy.Legacy object at 0x05333350>,<openexp._canvas.legacy.Legacy object at 0x053976D0>,<openexp._canvas.legacy.Legacy object at 0x0511FA30>,75,SpatProbMultiple3.osexp,C:/Userdata/Michel/SpatProbMultiple3,no,mono,no,18,no,white,no,yes,0.09,98,1050,legacy,45,49,49,1,C:/Userdata/Michel/SpatProbMultiple3/beh/subject-5.csv,legacy,9,192,25,Kafkaesque Koffka,3.2.5,yes,598477b2b83f69022949e7e9,47,red,circular,green,circular,0,\,1170,space,14388,14388,"(80, 80, 80)","(0, 123, 0)","(177, 0, 0)","(155, 155, 155)",2,legacy,experiment,"[4, 5, 6, 7, 0, 1, 2, 3]",\,2500,3000,0,8,252.7587515,1024,2,48000,-16,main,"[(0, -252), (178, -178), (252, 0), (178, 178), (0, 252), (-178, 178), (-252, 0), (-178, -178)]",[],29,odd,1,NA,3214929,3310972,3310972,3113787,3112776,2285,3149282,3149282,2285,2285,3128176,3432613,2283,3310972,3431440,3430716,3430716,NA,715,study_X,0,14388,1,yes,1680
undefined,undefined,NA,NA,NA,14388,14388,black,no,legacy,legacy,legacy,0,red,"(177, 0, 0)",shape,present,highProb,circular,same,same,swap,swap,red,"(177, 0, 0)",lowProb,lowProb2,rectangular,uniform,1,undefined,0,0.25,1,1,307,1,48,58944,0,0,0,0,0,0,0,0,76,0,1,0.25,307,48,58944,75,75,75,11/22/2018 14:35,Default description,yes,<openexp._canvas.legacy.Legacy object at 0x0533D690>,<openexp._canvas.legacy.Legacy object at 0x05338CF0>,<openexp._canvas.legacy.Legacy object at 0x0511F9F0>,<openexp._canvas.legacy.Legacy object at 0x05367590>,<openexp._canvas.legacy.Legacy object at 0x05102290>,<openexp._canvas.legacy.Legacy object at 0x05333350>,<openexp._canvas.legacy.Legacy object at 0x05127090>,<openexp._canvas.legacy.Legacy object at 0x0511FA30>,75,SpatProbMultiple3.osexp,C:/Userdata/Michel/SpatProbMultiple3,no,mono,no,18,no,white,no,yes,0.09,98,1050,legacy,45,50,50,1,C:/Userdata/Michel/SpatProbMultiple3/beh/subject-5.csv,legacy,9,192,25,Kafkaesque Koffka,3.2.5,yes,598477b2b83f69022949e7e9,47,red,circular,red,rectangular,0,\,972,space,14388,14388,"(80, 80, 80)","(0, 123, 0)","(177, 0, 0)","(155, 155, 155)",2,legacy,experiment,"[4, 5, 6, 7, 0, 1, 2, 3]",\,2500,3000,0,8,252.7587515,1024,2,48000,-16,main,"[(0, -252), (178, -178), (252, 0), (178, 178), (0, 252), (-178, 178), (-252, 0), (-178, -178)]",[],29,odd,6,NA,3214929,3310972,3310972,3113787,3112776,2285,3149282,3149282,2285,2285,3128176,3434773,2283,3310972,3433799,3433075,3433075,NA,715,study_X,0,14388,1,yes,1680
undefined,undefined,NA,NA,NA,14388,14388,black,no,legacy,legacy,legacy,0,red,"(177, 0, 0)",color,present,lowProb1,circular,same,same,swap,swap,green,"(0, 123, 0)",highProbColor,highProbColor,circular,uniform,1,undefined,0,0.255208333,1,1,313.4322917,1,49,60179,0,0,0,0,0,0,0,0,77,0,1,0.255208333,313.4322917,49,60179,76,76,76,11/22/2018 14:35,Default description,yes,<openexp._canvas.legacy.Legacy object at 0x0533D690>,<openexp._canvas.legacy.Legacy object at 0x05338CF0>,<openexp._canvas.legacy.Legacy object at 0x0511F9F0>,<openexp._canvas.legacy.Legacy object at 0x05367590>,<openexp._canvas.legacy.Legacy object at 0x05102290>,<openexp._canvas.legacy.Legacy object at 0x05333350>,<openexp._canvas.legacy.Legacy object at 0x05371870>,<openexp._canvas.legacy.Legacy object at 0x0511FA30>,75,SpatProbMultiple3.osexp,C:/Userdata/Michel/SpatProbMultiple3,no,mono,no,18,no,white,no,yes,0.09,98,1050,legacy,315,51,51,1,C:/Userdata/Michel/SpatProbMultiple3/beh/subject-5.csv,legacy,9,192,25,Kafkaesque Koffka,3.2.5,yes,598477b2b83f69022949e7e9,47,red,circular,green,circular,0,/,1235,space,14388,14388,"(80, 80, 80)","(0, 123, 0)","(177, 0, 0)","(155, 155, 155)",2,legacy,experiment,"[4, 5, 6, 7, 0, 1, 2, 3]",/,2500,3000,0,8,252.7587515,1024,2,48000,-16,main,"[(0, -252), (178, -178), (252, 0), (178, 178), (0, 252), (-178, 178), (-252, 0), (-178, -178)]",[],29,odd,4,NA,3214929,3310972,3310972,3113787,3112776,2285,3149282,3149282,2285,2285,3128176,3437189,2283,3310972,3435950,3435226,3435226,NA,715,study_X,0,14388,1,yes,1680
undefined,undefined,NA,NA,NA,14388,14388,black,no,legacy,legacy,legacy,0,red,"(177, 0, 0)",shape,present,highProb,circular,same,same,swap,swap,red,"(177, 0, 0)",lowProb,lowProb4,rectangular,uniform,1,undefined,0,0.260416667,1,1,319.3020833,1,50,61306,0,0,0,0,0,0,0,0,78,0,1,0.260416667,319.3020833,50,61306,77,77,77,11/22/2018 14:35,Default description,yes,<openexp._canvas.legacy.Legacy object at 0x0533D690>,<openexp._canvas.legacy.Legacy object at 0x05338CF0>,<openexp._canvas.legacy.Legacy object at 0x0511F9F0>,<openexp._canvas.legacy.Legacy object at 0x05367590>,<openexp._canvas.legacy.Legacy object at 0x05102290>,<openexp._canvas.legacy.Legacy object at 0x05333350>,<openexp._canvas.legacy.Legacy object at 0x05397EB0>,<openexp._canvas.legacy.Legacy object at 0x0511FA30>,75,SpatProbMultiple3.osexp,C:/Userdata/Michel/SpatProbMultiple3,no,mono,no,18,no,white,no,yes,0.09,98,1050,legacy,315,52,52,1,C:/Userdata/Michel/SpatProbMultiple3/beh/subject-5.csv,legacy,9,192,25,Kafkaesque Koffka,3.2.5,yes,598477b2b83f69022949e7e9,47,red,circular,red,rectangular,0,/,1127,space,14388,14388,"(80, 80, 80)","(0, 123, 0)","(177, 0, 0)","(155, 155, 155)",2,legacy,experiment,"[4, 5, 6, 7, 0, 1, 2, 3]",/,2500,3000,0,8,252.7587515,1024,2,48000,-16,main,"[(0, -252), (178, -178), (252, 0), (178, 178), (0, 252), (-178, 178), (-252, 0), (-178, -178)]",[],29,odd,1,NA,3214929,3310972,3310972,3113787,3112776,2285,3149282,3149282,2285,2285,3128176,3439478,2283,3310972,3438347,3437622,3437622,NA,715,study_X,0,14388,1,yes,1680
undefined,undefined,NA,NA,NA,14388,14388,black,no,legacy,legacy,legacy,0,red,"(177, 0, 0)",color,absent,highProb,rectangular,same,swap,same,same,red,"(177, 0, 0)",lowProb,lowProb3,rectangular,uniform,1,undefined,0,0.265625,1,1,323.1927083,1,51,62053,0,0,0,0,0,0,0,0,79,0,1,0.265625,323.1927083,51,62053,78,78,78,11/22/2018 14:35,Default description,yes,<openexp._canvas.legacy.Legacy object at 0x0533D690>,<openexp._canvas.legacy.Legacy object at 0x05338CF0>,<openexp._canvas.legacy.Legacy object at 0x0511F9F0>,<openexp._canvas.legacy.Legacy object at 0x05367590>,<openexp._canvas.legacy.Legacy object at 0x05102290>,<openexp._canvas.legacy.Legacy object at 0x05333350>,<openexp._canvas.legacy.Legacy object at 0x0531FBF0>,<openexp._canvas.legacy.Legacy object at 0x0511FA30>,75,SpatProbMultiple3.osexp,C:/Userdata/Michel/SpatProbMultiple3,no,mono,no,18,no,white,no,yes,0.09,98,1050,legacy,315,53,53,1,C:/Userdata/Michel/SpatProbMultiple3/beh/subject-5.csv,legacy,9,192,25,Kafkaesque Koffka,3.2.5,yes,598477b2b83f69022949e7e9,47,red,rectangular,red,rectangular,0,/,747,space,14388,14388,"(80, 80, 80)","(0, 123, 0)","(177, 0, 0)","(155, 155, 155)",2,legacy,experiment,"[4, 5, 6, 7, 0, 1, 2, 3]",/,2500,3000,0,8,252.7587515,1024,2,48000,-16,main,"[(0, -252), (178, -178), (252, 0), (178, 178), (0, 252), (-178, 178), (-252, 0), (-178, -178)]",[],29,odd,7,NA,3214929,3310972,3310972,3113787,3112776,2285,3149282,3149282,2285,2285,3128176,3441382,2283,3310972,3440632,3439908,3439908,NA,715,study_X,0,14388,1,yes,1680
undefined,undefined,NA,NA,NA,14388,14388,black,no,legacy,legacy,legacy,0,red,"(177, 0, 0)",color,present,highProb,circular,same,swap,swap,swap,green,"(0, 123, 0)",lowProb,lowProb3,circular,uniform,1,undefined,0,0.270833333,1,1,327.4583333,1,52,62872,0,0,0,0,0,0,0,0,80,0,1,0.270833333,327.4583333,52,62872,79,79,79,11/22/2018 14:35,Default description,yes,<openexp._canvas.legacy.Legacy object at 0x0533D690>,<openexp._canvas.legacy.Legacy object at 0x05338CF0>,<openexp._canvas.legacy.Legacy object at 0x0511F9F0>,<openexp._canvas.legacy.Legacy object at 0x05367590>,<openexp._canvas.legacy.Legacy object at 0x05102290>,<openexp._canvas.legacy.Legacy object at 0x05333350>,<openexp._canvas.legacy.Legacy object at 0x0537E430>,<openexp._canvas.legacy.Legacy object at 0x0511FA30>,75,SpatProbMultiple3.osexp,C:/Userdata/Michel/SpatProbMultiple3,no,mono,no,18,no,white,no,yes,0.09,98,1050,legacy,45,54,54,1,C:/Userdata/Michel/SpatProbMultiple3/beh/subject-5.csv,legacy,9,192,25,Kafkaesque Koffka,3.2.5,yes,598477b2b83f69022949e7e9,47,red,circular,green,circular,0,\,819,space,14388,14388,"(80, 80, 80)","(0, 123, 0)","(177, 0, 0)","(155, 155, 155)",2,legacy,experiment,"[4, 5, 6, 7, 0, 1, 2, 3]",\,2500,3000,0,8,252.7587515,1024,2,48000,-16,main,"[(0, -252), (178, -178), (252, 0), (178, 178), (0, 252), (-178, 178), (-252, 0), (-178, -178)]",[],29,odd,7,NA,3214929,3310972,3310972,3113787,3112776,2285,3149282,3149282,2285,2285,3128176,3443373,2283,3310972,3442551,3441826,3441826,NA,715,study_X,0,14388,1,yes,1680
undefined,undefined,NA,NA,NA,14388,14388,black,no,legacy,legacy,legacy,0,red,"(177, 0, 0)",shape,present,lowProb5,circular,same,same,swap,swap,red,"(177, 0, 0)",lowProb,lowProb2,rectangular,uniform,1,undefined,0,0.276041667,1,1,334.046875,1,53,64137,0,0,0,0,0,0,0,0,81,0,1,0.276041667,334.046875,53,64137,80,80,80,11/22/2018 14:35,Default description,yes,<openexp._canvas.legacy.Legacy object at 0x0533D690>,<openexp._canvas.legacy.Legacy object at 0x05338CF0>,<openexp._canvas.legacy.Legacy object at 0x0511F9F0>,<openexp._canvas.legacy.Legacy object at 0x05367590>,<openexp._canvas.legacy.Legacy object at 0x05102290>,<openexp._canvas.legacy.Legacy object at 0x05333350>,<openexp._canvas.legacy.Legacy object at 0x050E5AF0>,<openexp._canvas.legacy.Legacy object at 0x0511FA30>,75,SpatProbMultiple3.osexp,C:/Userdata/Michel/SpatProbMultiple3,no,mono,no,18,no,white,no,yes,0.09,98,1050,legacy,315,55,55,1,C:/Userdata/Michel/SpatProbMultiple3/beh/subject-5.csv,legacy,9,192,25,Kafkaesque Koffka,3.2.5,yes,598477b2b83f69022949e7e9,47,red,circular,red,rectangular,0,/,1265,space,14388,14388,"(80, 80, 80)","(0, 123, 0)","(177, 0, 0)","(155, 155, 155)",2,legacy,experiment,"[4, 5, 6, 7, 0, 1, 2, 3]",/,2500,3000,0,8,252.7587515,1024,2,48000,-16,main,"[(0, -252), (178, -178), (252, 0), (178, 178), (0, 252), (-178, 178), (-252, 0), (-178, -178)]",[],29,odd,6,NA,3214929,3310972,3310972,3113787,3112776,2285,3149282,3149282,2285,2285,3128176,3445797,2283,3310972,3444529,3443804,3443804,NA,715,study_X,0,14388,1,yes,1680
undefined,undefined,NA,NA,NA,14388,14388,black,no,legacy,legacy,legacy,0,red,"(177, 0, 0)",color,absent,highProbOther,rectangular,same,swap,same,same,red,"(177, 0, 0)",lowProb,lowProb3,rectangular,uniform,1,undefined,0,0.28125,1,1,337.6041667,1,54,64820,0,0,0,0,0,0,0,0,82,0,1,0.28125,337.6041667,54,64820,81,81,81,11/22/2018 14:35,Default description,yes,<openexp._canvas.legacy.Legacy object at 0x0533D690>,<openexp._canvas.legacy.Legacy object at 0x05338CF0>,<openexp._canvas.legacy.Legacy object at 0x0511F9F0>,<openexp._canvas.legacy.Legacy object at 0x05367590>,<openexp._canvas.legacy.Legacy object at 0x05102290>,<openexp._canvas.legacy.Legacy object at 0x05333350>,<openexp._canvas.legacy.Legacy object at 0x0531F510>,<openexp._canvas.legacy.Legacy object at 0x0511FA30>,75,SpatProbMultiple3.osexp,C:/Userdata/Michel/SpatProbMultiple3,no,mono,no,18,no,white,no,yes,0.09,98,1050,legacy,315,56,56,1,C:/Userdata/Michel/SpatProbMultiple3/beh/subject-5.csv,legacy,9,192,25,Kafkaesque Koffka,3.2.5,yes,598477b2b83f69022949e7e9,47,red,rectangular,red,rectangular,0,/,683,space,14388,14388,"(80, 80, 80)","(0, 123, 0)","(177, 0, 0)","(155, 155, 155)",2,legacy,experiment,"[4, 5, 6, 7, 0, 1, 2, 3]",/,2500,3000,0,8,252.7587515,1024,2,48000,-16,main,"[(0, -252), (178, -178), (252, 0), (178, 178), (0, 252), (-178, 178), (-252, 0), (-178, -178)]",[],29,odd,7,NA,3214929,3310972,3310972,3113787,3112776,2285,3149282,3149282,2285,2285,3128176,3447629,2283,3310972,3446944,3446219,3446219,NA,715,study_X,0,14388,1,yes,1680
undefined,undefined,NA,NA,NA,14388,14388,black,no,legacy,legacy,legacy,0,red,"(177, 0, 0)",color,present,highProb,rectangular,same,same,swap,same,green,"(0, 123, 0)",lowProb,lowProb3,rectangular,uniform,1,undefined,0,0.286458333,1,1,340.7864583,1,55,65431,0,0,0,0,0,0,0,0,83,0,1,0.286458333,340.7864583,55,65431,82,82,82,11/22/2018 14:35,Default description,yes,<openexp._canvas.legacy.Legacy object at 0x0533D690>,<openexp._canvas.legacy.Legacy object at 0x05338CF0>,<openexp._canvas.legacy.Legacy object at 0x0511F9F0>,<openexp._canvas.legacy.Legacy object at 0x05367590>,<openexp._canvas.legacy.Legacy object at 0x05102290>,<openexp._canvas.legacy.Legacy object at 0x05333350>,<openexp._canvas.legacy.Legacy object at 0x0537E630>,<openexp._canvas.legacy.Legacy object at 0x0511FA30>,75,SpatProbMultiple3.osexp,C:/Userdata/Michel/SpatProbMultiple3,no,mono,no,18,no,white,no,yes,0.09,98,1050,legacy,315,57,57,1,C:/Userdata/Michel/SpatProbMultiple3/beh/subject-5.csv,legacy,9,192,25,Kafkaesque Koffka,3.2.5,yes,598477b2b83f69022949e7e9,47,red,rectangular,green,rectangular,0,/,611,space,14388,14388,"(80, 80, 80)","(0, 123, 0)","(177, 0, 0)","(155, 155, 155)",2,legacy,experiment,"[4, 5, 6, 7, 0, 1, 2, 3]",/,2500,3000,0,8,252.7587515,1024,2,48000,-16,main,"[(0, -252), (178, -178), (252, 0), (178, 178), (0, 252), (-178, 178), (-252, 0), (-178, -178)]",[],29,odd,7,NA,3214929,3310972,3310972,3113787,3112776,2285,3149282,3149282,2285,2285,3128176,3449405,2283,3310972,3448791,3448066,3448066,NA,715,study_X,0,14388,1,yes,1680
undefined,undefined,NA,NA,NA,14388,14388,black,no,legacy,legacy,legacy,0,green,"(0, 123, 0)",shape,present,highProb,circular,swap,swap,same,same,green,"(0, 123, 0)",lowProb,lowProb3,rectangular,uniform,1,undefined,0,0.291666667,1,1,343.1510417,1,56,65885,0,0,0,0,0,0,0,0,84,0,1,0.291666667,343.1510417,56,65885,83,83,83,11/22/2018 14:35,Default description,yes,<openexp._canvas.legacy.Legacy object at 0x0533D690>,<openexp._canvas.legacy.Legacy object at 0x05338CF0>,<openexp._canvas.legacy.Legacy object at 0x0511F9F0>,<openexp._canvas.legacy.Legacy object at 0x05367590>,<openexp._canvas.legacy.Legacy object at 0x05102290>,<openexp._canvas.legacy.Legacy object at 0x05333350>,<openexp._canvas.legacy.Legacy object at 0x05394C10>,<openexp._canvas.legacy.Legacy object at 0x0511FA30>,75,SpatProbMultiple3.osexp,C:/Userdata/Michel/SpatProbMultiple3,no,mono,no,18,no,white,no,yes,0.09,98,1050,legacy,315,58,58,1,C:/Userdata/Michel/SpatProbMultiple3/beh/subject-5.csv,legacy,9,192,25,Kafkaesque Koffka,3.2.5,yes,598477b2b83f69022949e7e9,47,green,circular,green,rectangular,0,/,454,space,14388,14388,"(80, 80, 80)","(0, 123, 0)","(177, 0, 0)","(155, 155, 155)",2,legacy,experiment,"[4, 5, 6, 7, 0, 1, 2, 3]",/,2500,3000,0,8,252.7587515,1024,2,48000,-16,main,"[(0, -252), (178, -178), (252, 0), (178, 178), (0, 252), (-178, 178), (-252, 0), (-178, -178)]",[],29,odd,7,NA,3214929,3310972,3310972,3113787,3112776,2285,3149282,3149282,2285,2285,3128176,3451021,2283,3310972,3450565,3449842,3449842,NA,715,study_X,0,14388,1,yes,1680
undefined,undefined,NA,NA,NA,14388,14388,black,no,legacy,legacy,legacy,0,red,"(177, 0, 0)",color,present,lowProb6,rectangular,swap,swap,same,same,green,"(0, 123, 0)",lowProb,lowProb4,rectangular,uniform,1,undefined,0,0.296875,1,1,347.6875,1,57,66756,0,0,0,0,0,0,0,0,85,0,1,0.296875,347.6875,57,66756,84,84,84,11/22/2018 14:35,Default description,yes,<openexp._canvas.legacy.Legacy object at 0x0533D690>,<openexp._canvas.legacy.Legacy object at 0x05338CF0>,<openexp._canvas.legacy.Legacy object at 0x0511F9F0>,<openexp._canvas.legacy.Legacy object at 0x05367590>,<openexp._canvas.legacy.Legacy object at 0x05102290>,<openexp._canvas.legacy.Legacy object at 0x05333350>,<openexp._canvas.legacy.Legacy object at 0x05127190>,<openexp._canvas.legacy.Legacy object at 0x0511FA30>,75,SpatProbMultiple3.osexp,C:/Userdata/Michel/SpatProbMultiple3,no,mono,no,18,no,white,no,yes,0.09,98,1050,legacy,45,59,59,1,C:/Userdata/Michel/SpatProbMultiple3/beh/subject-5.csv,legacy,9,192,25,Kafkaesque Koffka,3.2.5,yes,598477b2b83f69022949e7e9,47,red,rectangular,green,rectangular,0,\,871,space,14388,14388,"(80, 80, 80)","(0, 123, 0)","(177, 0, 0)","(155, 155, 155)",2,legacy,experiment,"[4, 5, 6, 7, 0, 1, 2, 3]",\,2500,3000,0,8,252.7587515,1024,2,48000,-16,main,"[(0, -252), (178, -178), (252, 0), (178, 178), (0, 252), (-178, 178), (-252, 0), (-178, -178)]",[],29,odd,1,NA,3214929,3310972,3310972,3113787,3112776,2285,3149282,3149282,2285,2285,3128176,3453053,2283,3310972,3452178,3451454,3451454,NA,715,study_X,0,14388,1,yes,1680
undefined,undefined,NA,NA,NA,14388,14388,black,no,legacy,legacy,legacy,0,green,"(0, 123, 0)",shape,absent,highProb,rectangular,swap,same,same,same,green,"(0, 123, 0)",lowProb,lowProb5,rectangular,uniform,1,undefined,0,0.302083333,1,1,353.4166667,1,58,67856,0,0,0,0,0,0,0,0,86,0,1,0.302083333,353.4166667,58,67856,85,85,85,11/22/2018 14:35,Default description,yes,<openexp._canvas.legacy.Legacy object at 0x0533D690>,<openexp._canvas.legacy.Legacy object at 0x05338CF0>,<openexp._canvas.legacy.Legacy object at 0x0511F9F0>,<openexp._canvas.legacy.Legacy object at 0x05367590>,<openexp._canvas.legacy.Legacy object at 0x05102290>,<openexp._canvas.legacy.Legacy object at 0x05333350>,<openexp._canvas.legacy.Legacy object at 0x05394E30>,<openexp._canvas.legacy.Legacy object at 0x0511FA30>,75,SpatProbMultiple3.osexp,C:/Userdata/Michel/SpatProbMultiple3,no,mono,no,18,no,white,no,yes,0.09,98,1050,legacy,45,60,60,1,C:/Userdata/Michel/SpatProbMultiple3/beh/subject-5.csv,legacy,9,192,25,Kafkaesque Koffka,3.2.5,yes,598477b2b83f69022949e7e9,47,green,rectangular,green,rectangular,0,\,1100,space,14388,14388,"(80, 80, 80)","(0, 123, 0)","(177, 0, 0)","(155, 155, 155)",2,legacy,experiment,"[4, 5, 6, 7, 0, 1, 2, 3]",\,2500,3000,0,8,252.7587515,1024,2,48000,-16,main,"[(0, -252), (178, -178), (252, 0), (178, 178), (0, 252), (-178, 178), (-252, 0), (-178, -178)]",[],29,odd,2,NA,3214929,3310972,3310972,3113787,3112776,2285,3149282,3149282,2285,2285,3128176,3455318,2283,3310972,3454214,3453489,3453489,NA,715,study_X,0,14388,1,yes,1680
undefined,undefined,NA,NA,NA,14388,14388,black,no,legacy,legacy,legacy,0,red,"(177, 0, 0)",color,absent,lowProb4,rectangular,swap,same,swap,same,red,"(177, 0, 0)",lowProb,lowProb4,rectangular,uniform,1,undefined,0,0.307291667,1,1,357.0572917,1,59,68555,0,0,0,0,0,0,0,0,87,0,1,0.307291667,357.0572917,59,68555,86,86,86,11/22/2018 14:35,Default description,yes,<openexp._canvas.legacy.Legacy object at 0x0533D690>,<openexp._canvas.legacy.Legacy object at 0x05338CF0>,<openexp._canvas.legacy.Legacy object at 0x0511F9F0>,<openexp._canvas.legacy.Legacy object at 0x05367590>,<openexp._canvas.legacy.Legacy object at 0x05102290>,<openexp._canvas.legacy.Legacy object at 0x05333350>,<openexp._canvas.legacy.Legacy object at 0x05367C70>,<openexp._canvas.legacy.Legacy object at 0x0511FA30>,75,SpatProbMultiple3.osexp,C:/Userdata/Michel/SpatProbMultiple3,no,mono,no,18,no,white,no,yes,0.09,98,1050,legacy,45,61,61,1,C:/Userdata/Michel/SpatProbMultiple3/beh/subject-5.csv,legacy,9,192,25,Kafkaesque Koffka,3.2.5,yes,598477b2b83f69022949e7e9,47,red,rectangular,red,rectangular,0,\,699,space,14388,14388,"(80, 80, 80)","(0, 123, 0)","(177, 0, 0)","(155, 155, 155)",2,legacy,experiment,"[4, 5, 6, 7, 0, 1, 2, 3]",\,2500,3000,0,8,252.7587515,1024,2,48000,-16,main,"[(0, -252), (178, -178), (252, 0), (178, 178), (0, 252), (-178, 178), (-252, 0), (-178, -178)]",[],29,odd,1,NA,3214929,3310972,3310972,3113787,3112776,2285,3149282,3149282,2285,2285,3128176,3457174,2283,3310972,3456472,3455748,3455748,NA,715,study_X,0,14388,1,yes,1680
undefined,undefined,NA,NA,NA,14388,14388,black,no,legacy,legacy,legacy,0,green,"(0, 123, 0)",shape,absent,lowProb2,circular,swap,swap,swap,swap,green,"(0, 123, 0)",lowProb,lowProb5,circular,uniform,1,undefined,0,0.3125,1,1,361.1041667,1,60,69332,0,0,0,0,0,0,0,0,88,0,1,0.3125,361.1041667,60,69332,87,87,87,11/22/2018 14:35,Default description,yes,<openexp._canvas.legacy.Legacy object at 0x0533D690>,<openexp._canvas.legacy.Legacy object at 0x05338CF0>,<openexp._canvas.legacy.Legacy object at 0x0511F9F0>,<openexp._canvas.legacy.Legacy object at 0x05367590>,<openexp._canvas.legacy.Legacy object at 0x05102290>,<openexp._canvas.legacy.Legacy object at 0x05333350>,<openexp._canvas.legacy.Legacy object at 0x05371870>,<openexp._canvas.legacy.Legacy object at 0x0511FA30>,75,SpatProbMultiple3.osexp,C:/Userdata/Michel/SpatProbMultiple3,no,mono,no,18,no,white,no,yes,0.09,98,1050,legacy,315,62,62,1,C:/Userdata/Michel/SpatProbMultiple3/beh/subject-5.csv,legacy,9,192,25,Kafkaesque Koffka,3.2.5,yes,598477b2b83f69022949e7e9,47,green,circular,green,circular,0,/,777,space,14388,14388,"(80, 80, 80)","(0, 123, 0)","(177, 0, 0)","(155, 155, 155)",2,legacy,experiment,"[4, 5, 6, 7, 0, 1, 2, 3]",/,2500,3000,0,8,252.7587515,1024,2,48000,-16,main,"[(0, -252), (178, -178), (252, 0), (178, 178), (0, 252), (-178, 178), (-252, 0), (-178, -178)]",[],29,odd,2,NA,3214929,3310972,3310972,3113787,3112776,2285,3149282,3149282,2285,2285,3128176,3459117,2283,3310972,3458338,3457614,3457614,NA,715,study_X,0,14388,1,yes,1680
undefined,undefined,NA,NA,NA,14388,14388,black,no,legacy,legacy,legacy,0,green,"(0, 123, 0)",shape,present,highProb,circular,same,same,same,swap,green,"(0, 123, 0)",lowProb,lowProb6,rectangular,uniform,1,undefined,0,0.317708333,1,1,365.4947917,1,61,70175,0,0,0,0,0,0,0,0,89,0,1,0.317708333,365.4947917,61,70175,88,88,88,11/22/2018 14:35,Default description,yes,<openexp._canvas.legacy.Legacy object at 0x0533D690>,<openexp._canvas.legacy.Legacy object at 0x05338CF0>,<openexp._canvas.legacy.Legacy object at 0x0511F9F0>,<openexp._canvas.legacy.Legacy object at 0x05367590>,<openexp._canvas.legacy.Legacy object at 0x05102290>,<openexp._canvas.legacy.Legacy object at 0x05333350>,<openexp._canvas.legacy.Legacy object at 0x053809B0>,<openexp._canvas.legacy.Legacy object at 0x0511FA30>,75,SpatProbMultiple3.osexp,C:/Userdata/Michel/SpatProbMultiple3,no,mono,no,18,no,white,no,yes,0.09,98,1050,legacy,45,63,63,1,C:/Userdata/Michel/SpatProbMultiple3/beh/subject-5.csv,legacy,9,192,25,Kafkaesque Koffka,3.2.5,yes,598477b2b83f69022949e7e9,47,green,circular,green,rectangular,0,\,843,space,14388,14388,"(80, 80, 80)","(0, 123, 0)","(177, 0, 0)","(155, 155, 155)",2,legacy,experiment,"[4, 5, 6, 7, 0, 1, 2, 3]",\,2500,3000,0,8,252.7587515,1024,2,48000,-16,main,"[(0, -252), (178, -178), (252, 0), (178, 178), (0, 252), (-178, 178), (-252, 0), (-178, -178)]",[],29,odd,3,NA,3214929,3310972,3310972,3113787,3112776,2285,3149282,3149282,2285,2285,3128176,3461125,2283,3310972,3460279,3459554,3459554,NA,715,study_X,0,14388,1,yes,1680
