acc,accuracy,answerQ1,answerQ2,answerQ3,average_response_time,avg_rt,background,bidi,canvas_backend,clock_backend,color_backend,compensation,cond_disColor,cond_disColorRGB,cond_disFeature,cond_disPresent,cond_disProbability,cond_disShape,cond_primingDisColor,cond_primingDisShape,cond_primingTarColor,cond_primingTarShape,cond_tarColor,cond_tarColorRGB,cond_tarLocation,cond_tarLocationLong,cond_tarShape,coordinates,correct,correct_continuePress,count_Questions,count_blockAcc,count_blockFeed,count_blockLoop,count_blockRT,count_blockSeq,count_blockSumCorrect,count_blockSumRT,count_continuePress,count_example,count_expSettings,count_exp_mainLoop,count_experiment,count_instructions,count_instructions1,count_instructions2,count_log,count_main,count_prepCanvas,count_totalAcc,count_totalRT,count_totalSumCorrect,count_totalSumRT,count_trialResp,count_trialSeq,count_trialTask,datetime,description,disable_garbage_collection,dispBlank,dispBlockStart,dispFeedBlock,dispFix,dispInstructions,dispQuestions,dispSearch,dispStartScreen,distance2screen,experiment_file,experiment_path,font_bold,font_family,font_italic,font_size,font_underline,foreground,form_clicks,fullscreen,gaborFreq,gaborSize,height,keyboard_backend,lineOriTar,live_row,live_row_blockLoop,live_row_exp_mainLoop,logfile,mouse_backend,noExpBlocks,noExpTrials,noPracTrials,opensesame_codename,opensesame_version,osf_always_upload_experiment,osf_id,physical_screensize,previousDisColor,previousDisShape,previousTarColor,previousTarShape,repeat_cycle,response,responseTime,response_continuePress,response_time,response_time_continuePress,rgb_gray,rgb_green,rgb_red,rgb_white,round_decimals,sampler_backend,set_blockType,set_counterPositions,set_respCorrect,set_respTimeoutExp,set_respTimeoutPrac,set_rotation,set_setSize,sizeImaginary,sound_buf_size,sound_channels,sound_freq,sound_sample_size,start,stimPositions,stimuli,subject_nr,subject_parity,tarIdx,time_Questions,time_blockFeed,time_blockLoop,time_blockSeq,time_continuePress,time_example,time_expSettings,time_exp_mainLoop,time_experiment,time_instructions,time_instructions1,time_instructions2,time_log,time_main,time_prepCanvas,time_trialResp,time_trialSeq,time_trialTask,timing_EEGwait,timing_fix,title,total_correct,total_response_time,total_responses,uniform_coordinates,width
undefined,undefined,NA,NA,NA,10726,10726,black,no,legacy,legacy,legacy,0,red,"(177, 0, 0)",color,present,highProb,circular,swap,swap,swap,swap,green,"(0, 123, 0)",lowProb,lowProb1,circular,uniform,1,undefined,0,0.005208333,1,1,7.119791667,1,1,1367,0,0,0,0,0,0,0,0,26,0,1,0.005208333,7.119791667,1,1367,25,25,25,11/27/2018 14:25,Default description,yes,<openexp._canvas.legacy.Legacy object at 0x05312690>,<openexp._canvas.legacy.Legacy object at 0x05326BD0>,<openexp._canvas.legacy.Legacy object at 0x050C7430>,<openexp._canvas.legacy.Legacy object at 0x050BFA10>,<openexp._canvas.legacy.Legacy object at 0x050A2290>,<openexp._canvas.legacy.Legacy object at 0x05308350>,<openexp._canvas.legacy.Legacy object at 0x05326D70>,<openexp._canvas.legacy.Legacy object at 0x050D9610>,75,SpatProbMultiple3.osexp,C:/Userdata/Michel/SpatProbMultiple3,no,mono,no,18,no,white,no,yes,0.09,98,1050,legacy,315,0,0,1,C:/Userdata/Michel/SpatProbMultiple3/beh/subject-13.csv,legacy,9,192,25,Kafkaesque Koffka,3.2.5,yes,598477b2b83f69022949e7e9,47,red,circular,green,circular,0,/,1367,space,10726,10726,"(80, 80, 80)","(0, 123, 0)","(177, 0, 0)","(155, 155, 155)",2,legacy,experiment,"[4, 5, 6, 7, 0, 1, 2, 3]",/,2500,3000,0,8,252.7587515,1024,2,48000,-16,main,"[(0, -252), (178, -178), (252, 0), (178, 178), (0, 252), (-178, 178), (-252, 0), (-178, -178)]",[],37,odd,5,NA,120143,161724,161724,25448,24438,1941,39232,39232,1941,1941,36174,169653,1940,161724,168283,162157,162157,NA,959,study_X,0,10726,1,yes,1680
undefined,undefined,NA,NA,NA,10726,10726,black,no,legacy,legacy,legacy,0,red,"(177, 0, 0)",shape,present,highProb,circular,same,same,swap,swap,red,"(177, 0, 0)",lowProb,lowProb6,rectangular,uniform,1,undefined,0,0.010416667,1,1,13.703125,1,2,2631,0,0,0,0,0,0,0,0,27,0,1,0.010416667,13.703125,2,2631,26,26,26,11/27/2018 14:25,Default description,yes,<openexp._canvas.legacy.Legacy object at 0x05312690>,<openexp._canvas.legacy.Legacy object at 0x05326BD0>,<openexp._canvas.legacy.Legacy object at 0x050C7430>,<openexp._canvas.legacy.Legacy object at 0x050BFA10>,<openexp._canvas.legacy.Legacy object at 0x050A2290>,<openexp._canvas.legacy.Legacy object at 0x05308350>,<openexp._canvas.legacy.Legacy object at 0x0539C7B0>,<openexp._canvas.legacy.Legacy object at 0x050D9610>,75,SpatProbMultiple3.osexp,C:/Userdata/Michel/SpatProbMultiple3,no,mono,no,18,no,white,no,yes,0.09,98,1050,legacy,315,1,1,1,C:/Userdata/Michel/SpatProbMultiple3/beh/subject-13.csv,legacy,9,192,25,Kafkaesque Koffka,3.2.5,yes,598477b2b83f69022949e7e9,47,red,circular,red,rectangular,0,/,1264,space,10726,10726,"(80, 80, 80)","(0, 123, 0)","(177, 0, 0)","(155, 155, 155)",2,legacy,experiment,"[4, 5, 6, 7, 0, 1, 2, 3]",/,2500,3000,0,8,252.7587515,1024,2,48000,-16,main,"[(0, -252), (178, -178), (252, 0), (178, 178), (0, 252), (-178, 178), (-252, 0), (-178, -178)]",[],37,odd,3,NA,120143,161724,161724,25448,24438,1941,39232,39232,1941,1941,36174,172365,1940,161724,171099,170131,170131,NA,959,study_X,0,10726,1,yes,1680
undefined,undefined,NA,NA,NA,10726,10726,black,no,legacy,legacy,legacy,0,red,"(177, 0, 0)",shape,present,lowProb1,rectangular,same,swap,same,swap,red,"(177, 0, 0)",lowProb,lowProb6,circular,uniform,0,undefined,0,0.010416667,1,1,26.72395833,1,2,5131,0,0,0,0,0,0,0,0,28,0,1,0.010416667,26.72395833,2,5131,27,27,27,11/27/2018 14:25,Default description,yes,<openexp._canvas.legacy.Legacy object at 0x05312690>,<openexp._canvas.legacy.Legacy object at 0x05326BD0>,<openexp._canvas.legacy.Legacy object at 0x050C7430>,<openexp._canvas.legacy.Legacy object at 0x050BFA10>,<openexp._canvas.legacy.Legacy object at 0x050A2290>,<openexp._canvas.legacy.Legacy object at 0x05308350>,<openexp._canvas.legacy.Legacy object at 0x0531C930>,<openexp._canvas.legacy.Legacy object at 0x050D9610>,75,SpatProbMultiple3.osexp,C:/Userdata/Michel/SpatProbMultiple3,no,mono,no,18,no,white,no,yes,0.09,98,1050,legacy,45,2,2,1,C:/Userdata/Michel/SpatProbMultiple3/beh/subject-13.csv,legacy,9,192,25,Kafkaesque Koffka,3.2.5,yes,598477b2b83f69022949e7e9,47,red,rectangular,red,circular,0,None,2500,space,10726,10726,"(80, 80, 80)","(0, 123, 0)","(177, 0, 0)","(155, 155, 155)",2,legacy,experiment,"[4, 5, 6, 7, 0, 1, 2, 3]",\,2500,3000,0,8,252.7587515,1024,2,48000,-16,main,"[(0, -252), (178, -178), (252, 0), (178, 178), (0, 252), (-178, 178), (-252, 0), (-178, -178)]",[],37,odd,3,NA,120143,161724,161724,25448,24438,1941,39232,39232,1941,1941,36174,176321,1940,161724,173819,172851,172851,NA,959,study_X,0,10726,1,yes,1680
undefined,undefined,NA,NA,NA,10726,10726,black,no,legacy,legacy,legacy,0,red,"(177, 0, 0)",shape,present,lowProb1,circular,same,swap,same,swap,red,"(177, 0, 0)",highProbShape,highProbShape,rectangular,uniform,1,undefined,0,0.015625,1,1,33.21354167,1,3,6377,0,0,0,0,0,0,0,0,29,0,1,0.015625,33.21354167,3,6377,28,28,28,11/27/2018 14:25,Default description,yes,<openexp._canvas.legacy.Legacy object at 0x05312690>,<openexp._canvas.legacy.Legacy object at 0x05326BD0>,<openexp._canvas.legacy.Legacy object at 0x050C7430>,<openexp._canvas.legacy.Legacy object at 0x050BFA10>,<openexp._canvas.legacy.Legacy object at 0x050A2290>,<openexp._canvas.legacy.Legacy object at 0x05308350>,<openexp._canvas.legacy.Legacy object at 0x052F44B0>,<openexp._canvas.legacy.Legacy object at 0x050D9610>,75,SpatProbMultiple3.osexp,C:/Userdata/Michel/SpatProbMultiple3,no,mono,no,18,no,white,no,yes,0.09,98,1050,legacy,315,3,3,1,C:/Userdata/Michel/SpatProbMultiple3/beh/subject-13.csv,legacy,9,192,25,Kafkaesque Koffka,3.2.5,yes,598477b2b83f69022949e7e9,47,red,circular,red,rectangular,0,/,1246,space,10726,10726,"(80, 80, 80)","(0, 123, 0)","(177, 0, 0)","(155, 155, 155)",2,legacy,experiment,"[4, 5, 6, 7, 0, 1, 2, 3]",/,2500,3000,0,8,252.7587515,1024,2,48000,-16,main,"[(0, -252), (178, -178), (252, 0), (178, 178), (0, 252), (-178, 178), (-252, 0), (-178, -178)]",[],37,odd,0,NA,120143,161724,161724,25448,24438,1941,39232,39232,1941,1941,36174,178989,1940,161724,177741,176772,176773,NA,959,study_X,0,10726,1,yes,1680
undefined,undefined,NA,NA,NA,10726,10726,black,no,legacy,legacy,legacy,0,green,"(0, 123, 0)",shape,present,lowProb5,circular,swap,same,swap,same,green,"(0, 123, 0)",lowProb,lowProb4,rectangular,uniform,1,undefined,0,0.020833333,1,1,40.46875,1,4,7770,0,0,0,0,0,0,0,0,30,0,1,0.020833333,40.46875,4,7770,29,29,29,11/27/2018 14:25,Default description,yes,<openexp._canvas.legacy.Legacy object at 0x05312690>,<openexp._canvas.legacy.Legacy object at 0x05326BD0>,<openexp._canvas.legacy.Legacy object at 0x050C7430>,<openexp._canvas.legacy.Legacy object at 0x050BFA10>,<openexp._canvas.legacy.Legacy object at 0x050A2290>,<openexp._canvas.legacy.Legacy object at 0x05308350>,<openexp._canvas.legacy.Legacy object at 0x05333770>,<openexp._canvas.legacy.Legacy object at 0x050D9610>,75,SpatProbMultiple3.osexp,C:/Userdata/Michel/SpatProbMultiple3,no,mono,no,18,no,white,no,yes,0.09,98,1050,legacy,315,4,4,1,C:/Userdata/Michel/SpatProbMultiple3/beh/subject-13.csv,legacy,9,192,25,Kafkaesque Koffka,3.2.5,yes,598477b2b83f69022949e7e9,47,green,circular,green,rectangular,0,/,1393,space,10726,10726,"(80, 80, 80)","(0, 123, 0)","(177, 0, 0)","(155, 155, 155)",2,legacy,experiment,"[4, 5, 6, 7, 0, 1, 2, 3]",/,2500,3000,0,8,252.7587515,1024,2,48000,-16,main,"[(0, -252), (178, -178), (252, 0), (178, 178), (0, 252), (-178, 178), (-252, 0), (-178, -178)]",[],37,odd,1,NA,120143,161724,161724,25448,24438,1941,39232,39232,1941,1941,36174,181805,1940,161724,180408,179439,179439,NA,959,study_X,0,10726,1,yes,1680
undefined,undefined,NA,NA,NA,10726,10726,black,no,legacy,legacy,legacy,0,green,"(0, 123, 0)",shape,present,highProb,rectangular,same,swap,same,swap,green,"(0, 123, 0)",lowProb,lowProb3,circular,uniform,1,undefined,0,0.026041667,1,1,46.19791667,1,5,8870,0,0,0,0,0,0,0,0,31,0,1,0.026041667,46.19791667,5,8870,30,30,30,11/27/2018 14:25,Default description,yes,<openexp._canvas.legacy.Legacy object at 0x05312690>,<openexp._canvas.legacy.Legacy object at 0x05326BD0>,<openexp._canvas.legacy.Legacy object at 0x050C7430>,<openexp._canvas.legacy.Legacy object at 0x050BFA10>,<openexp._canvas.legacy.Legacy object at 0x050A2290>,<openexp._canvas.legacy.Legacy object at 0x05308350>,<openexp._canvas.legacy.Legacy object at 0x05326890>,<openexp._canvas.legacy.Legacy object at 0x050D9610>,75,SpatProbMultiple3.osexp,C:/Userdata/Michel/SpatProbMultiple3,no,mono,no,18,no,white,no,yes,0.09,98,1050,legacy,45,5,5,1,C:/Userdata/Michel/SpatProbMultiple3/beh/subject-13.csv,legacy,9,192,25,Kafkaesque Koffka,3.2.5,yes,598477b2b83f69022949e7e9,47,green,rectangular,green,circular,0,\,1100,space,10726,10726,"(80, 80, 80)","(0, 123, 0)","(177, 0, 0)","(155, 155, 155)",2,legacy,experiment,"[4, 5, 6, 7, 0, 1, 2, 3]",\,2500,3000,0,8,252.7587515,1024,2,48000,-16,main,"[(0, -252), (178, -178), (252, 0), (178, 178), (0, 252), (-178, 178), (-252, 0), (-178, -178)]",[],37,odd,7,NA,120143,161724,161724,25448,24438,1941,39232,39232,1941,1941,36174,184341,1940,161724,183238,182270,182270,NA,959,study_X,0,10726,1,yes,1680
undefined,undefined,NA,NA,NA,10726,10726,black,no,legacy,legacy,legacy,0,green,"(0, 123, 0)",shape,present,highProb,rectangular,same,same,same,same,green,"(0, 123, 0)",lowProb,lowProb2,circular,uniform,1,undefined,0,0.03125,1,1,54.84895833,1,6,10531,0,0,0,0,0,0,0,0,32,0,1,0.03125,54.84895833,6,10531,31,31,31,11/27/2018 14:25,Default description,yes,<openexp._canvas.legacy.Legacy object at 0x05312690>,<openexp._canvas.legacy.Legacy object at 0x05326BD0>,<openexp._canvas.legacy.Legacy object at 0x050C7430>,<openexp._canvas.legacy.Legacy object at 0x050BFA10>,<openexp._canvas.legacy.Legacy object at 0x050A2290>,<openexp._canvas.legacy.Legacy object at 0x05308350>,<openexp._canvas.legacy.Legacy object at 0x05333630>,<openexp._canvas.legacy.Legacy object at 0x050D9610>,75,SpatProbMultiple3.osexp,C:/Userdata/Michel/SpatProbMultiple3,no,mono,no,18,no,white,no,yes,0.09,98,1050,legacy,315,6,6,1,C:/Userdata/Michel/SpatProbMultiple3/beh/subject-13.csv,legacy,9,192,25,Kafkaesque Koffka,3.2.5,yes,598477b2b83f69022949e7e9,47,green,rectangular,green,circular,0,/,1661,space,10726,10726,"(80, 80, 80)","(0, 123, 0)","(177, 0, 0)","(155, 155, 155)",2,legacy,experiment,"[4, 5, 6, 7, 0, 1, 2, 3]",/,2500,3000,0,8,252.7587515,1024,2,48000,-16,main,"[(0, -252), (178, -178), (252, 0), (178, 178), (0, 252), (-178, 178), (-252, 0), (-178, -178)]",[],37,odd,6,NA,120143,161724,161724,25448,24438,1941,39232,39232,1941,1941,36174,187460,1940,161724,185796,184827,184827,NA,959,study_X,0,10726,1,yes,1680
undefined,undefined,NA,NA,NA,10726,10726,black,no,legacy,legacy,legacy,0,green,"(0, 123, 0)",color,present,lowProb3,rectangular,same,same,swap,swap,red,"(177, 0, 0)",lowProb,lowProb2,rectangular,uniform,1,undefined,0,0.036458333,1,1,64.546875,1,7,12393,0,0,0,0,0,0,0,0,33,0,1,0.036458333,64.546875,7,12393,32,32,32,11/27/2018 14:25,Default description,yes,<openexp._canvas.legacy.Legacy object at 0x05312690>,<openexp._canvas.legacy.Legacy object at 0x05326BD0>,<openexp._canvas.legacy.Legacy object at 0x050C7430>,<openexp._canvas.legacy.Legacy object at 0x050BFA10>,<openexp._canvas.legacy.Legacy object at 0x050A2290>,<openexp._canvas.legacy.Legacy object at 0x05308350>,<openexp._canvas.legacy.Legacy object at 0x05333BB0>,<openexp._canvas.legacy.Legacy object at 0x050D9610>,75,SpatProbMultiple3.osexp,C:/Userdata/Michel/SpatProbMultiple3,no,mono,no,18,no,white,no,yes,0.09,98,1050,legacy,45,7,7,1,C:/Userdata/Michel/SpatProbMultiple3/beh/subject-13.csv,legacy,9,192,25,Kafkaesque Koffka,3.2.5,yes,598477b2b83f69022949e7e9,47,green,rectangular,red,rectangular,0,\,1862,space,10726,10726,"(80, 80, 80)","(0, 123, 0)","(177, 0, 0)","(155, 155, 155)",2,legacy,experiment,"[4, 5, 6, 7, 0, 1, 2, 3]",\,2500,3000,0,8,252.7587515,1024,2,48000,-16,main,"[(0, -252), (178, -178), (252, 0), (178, 178), (0, 252), (-178, 178), (-252, 0), (-178, -178)]",[],37,odd,6,NA,120143,161724,161724,25448,24438,1941,39232,39232,1941,1941,36174,190749,1940,161724,188885,187916,187917,NA,959,study_X,0,10726,1,yes,1680
undefined,undefined,NA,NA,NA,10726,10726,black,no,legacy,legacy,legacy,0,green,"(0, 123, 0)",color,present,highProb,circular,same,swap,same,swap,red,"(177, 0, 0)",lowProb,lowProb2,circular,uniform,1,undefined,0,0.041666667,1,1,70.34375,1,8,13506,0,0,0,0,0,0,0,0,34,0,1,0.041666667,70.34375,8,13506,33,33,33,11/27/2018 14:25,Default description,yes,<openexp._canvas.legacy.Legacy object at 0x05312690>,<openexp._canvas.legacy.Legacy object at 0x05326BD0>,<openexp._canvas.legacy.Legacy object at 0x050C7430>,<openexp._canvas.legacy.Legacy object at 0x050BFA10>,<openexp._canvas.legacy.Legacy object at 0x050A2290>,<openexp._canvas.legacy.Legacy object at 0x05308350>,<openexp._canvas.legacy.Legacy object at 0x05333230>,<openexp._canvas.legacy.Legacy object at 0x050D9610>,75,SpatProbMultiple3.osexp,C:/Userdata/Michel/SpatProbMultiple3,no,mono,no,18,no,white,no,yes,0.09,98,1050,legacy,45,8,8,1,C:/Userdata/Michel/SpatProbMultiple3/beh/subject-13.csv,legacy,9,192,25,Kafkaesque Koffka,3.2.5,yes,598477b2b83f69022949e7e9,47,green,circular,red,circular,0,\,1113,space,10726,10726,"(80, 80, 80)","(0, 123, 0)","(177, 0, 0)","(155, 155, 155)",2,legacy,experiment,"[4, 5, 6, 7, 0, 1, 2, 3]",\,2500,3000,0,8,252.7587515,1024,2,48000,-16,main,"[(0, -252), (178, -178), (252, 0), (178, 178), (0, 252), (-178, 178), (-252, 0), (-178, -178)]",[],37,odd,6,NA,120143,161724,161724,25448,24438,1941,39232,39232,1941,1941,36174,193293,1940,161724,192178,191209,191209,NA,959,study_X,0,10726,1,yes,1680
undefined,undefined,NA,NA,NA,10726,10726,black,no,legacy,legacy,legacy,0,red,"(177, 0, 0)",color,present,highProb,rectangular,swap,swap,swap,swap,green,"(0, 123, 0)",lowProb,lowProb6,rectangular,uniform,1,undefined,0,0.046875,1,1,75.515625,1,9,14499,0,0,0,0,0,0,0,0,35,0,1,0.046875,75.515625,9,14499,34,34,34,11/27/2018 14:25,Default description,yes,<openexp._canvas.legacy.Legacy object at 0x05312690>,<openexp._canvas.legacy.Legacy object at 0x05326BD0>,<openexp._canvas.legacy.Legacy object at 0x050C7430>,<openexp._canvas.legacy.Legacy object at 0x050BFA10>,<openexp._canvas.legacy.Legacy object at 0x050A2290>,<openexp._canvas.legacy.Legacy object at 0x05308350>,<openexp._canvas.legacy.Legacy object at 0x052F4D30>,<openexp._canvas.legacy.Legacy object at 0x050D9610>,75,SpatProbMultiple3.osexp,C:/Userdata/Michel/SpatProbMultiple3,no,mono,no,18,no,white,no,yes,0.09,98,1050,legacy,45,9,9,1,C:/Userdata/Michel/SpatProbMultiple3/beh/subject-13.csv,legacy,9,192,25,Kafkaesque Koffka,3.2.5,yes,598477b2b83f69022949e7e9,47,red,rectangular,green,rectangular,0,\,993,space,10726,10726,"(80, 80, 80)","(0, 123, 0)","(177, 0, 0)","(155, 155, 155)",2,legacy,experiment,"[4, 5, 6, 7, 0, 1, 2, 3]",\,2500,3000,0,8,252.7587515,1024,2,48000,-16,main,"[(0, -252), (178, -178), (252, 0), (178, 178), (0, 252), (-178, 178), (-252, 0), (-178, -178)]",[],37,odd,3,NA,120143,161724,161724,25448,24438,1941,39232,39232,1941,1941,36174,195717,1940,161724,194722,193754,193754,NA,959,study_X,0,10726,1,yes,1680
undefined,undefined,NA,NA,NA,10726,10726,black,no,legacy,legacy,legacy,0,red,"(177, 0, 0)",shape,present,lowProb1,circular,same,swap,swap,same,red,"(177, 0, 0)",lowProb,lowProb5,rectangular,uniform,1,undefined,0,0.052083333,1,1,81.06770833,1,10,15565,0,0,0,0,0,0,0,0,36,0,1,0.052083333,81.06770833,10,15565,35,35,35,11/27/2018 14:25,Default description,yes,<openexp._canvas.legacy.Legacy object at 0x05312690>,<openexp._canvas.legacy.Legacy object at 0x05326BD0>,<openexp._canvas.legacy.Legacy object at 0x050C7430>,<openexp._canvas.legacy.Legacy object at 0x050BFA10>,<openexp._canvas.legacy.Legacy object at 0x050A2290>,<openexp._canvas.legacy.Legacy object at 0x05308350>,<openexp._canvas.legacy.Legacy object at 0x05337990>,<openexp._canvas.legacy.Legacy object at 0x050D9610>,75,SpatProbMultiple3.osexp,C:/Userdata/Michel/SpatProbMultiple3,no,mono,no,18,no,white,no,yes,0.09,98,1050,legacy,45,10,10,1,C:/Userdata/Michel/SpatProbMultiple3/beh/subject-13.csv,legacy,9,192,25,Kafkaesque Koffka,3.2.5,yes,598477b2b83f69022949e7e9,47,red,circular,red,rectangular,0,\,1066,space,10726,10726,"(80, 80, 80)","(0, 123, 0)","(177, 0, 0)","(155, 155, 155)",2,legacy,experiment,"[4, 5, 6, 7, 0, 1, 2, 3]",\,2500,3000,0,8,252.7587515,1024,2,48000,-16,main,"[(0, -252), (178, -178), (252, 0), (178, 178), (0, 252), (-178, 178), (-252, 0), (-178, -178)]",[],37,odd,2,NA,120143,161724,161724,25448,24438,1941,39232,39232,1941,1941,36174,198221,1940,161724,197152,196183,196183,NA,959,study_X,0,10726,1,yes,1680
undefined,undefined,NA,NA,NA,10726,10726,black,no,legacy,legacy,legacy,0,green,"(0, 123, 0)",color,present,highProb,circular,swap,same,same,swap,red,"(177, 0, 0)",lowProb,lowProb4,circular,uniform,1,undefined,0,0.057291667,1,1,85.640625,1,11,16443,0,0,0,0,0,0,0,0,37,0,1,0.057291667,85.640625,11,16443,36,36,36,11/27/2018 14:25,Default description,yes,<openexp._canvas.legacy.Legacy object at 0x05312690>,<openexp._canvas.legacy.Legacy object at 0x05326BD0>,<openexp._canvas.legacy.Legacy object at 0x050C7430>,<openexp._canvas.legacy.Legacy object at 0x050BFA10>,<openexp._canvas.legacy.Legacy object at 0x050A2290>,<openexp._canvas.legacy.Legacy object at 0x05308350>,<openexp._canvas.legacy.Legacy object at 0x0531CF10>,<openexp._canvas.legacy.Legacy object at 0x050D9610>,75,SpatProbMultiple3.osexp,C:/Userdata/Michel/SpatProbMultiple3,no,mono,no,18,no,white,no,yes,0.09,98,1050,legacy,315,11,11,1,C:/Userdata/Michel/SpatProbMultiple3/beh/subject-13.csv,legacy,9,192,25,Kafkaesque Koffka,3.2.5,yes,598477b2b83f69022949e7e9,47,green,circular,red,circular,0,/,878,space,10726,10726,"(80, 80, 80)","(0, 123, 0)","(177, 0, 0)","(155, 155, 155)",2,legacy,experiment,"[4, 5, 6, 7, 0, 1, 2, 3]",/,2500,3000,0,8,252.7587515,1024,2,48000,-16,main,"[(0, -252), (178, -178), (252, 0), (178, 178), (0, 252), (-178, 178), (-252, 0), (-178, -178)]",[],37,odd,1,NA,120143,161724,161724,25448,24438,1941,39232,39232,1941,1941,36174,200541,1940,161724,199659,198690,198690,NA,959,study_X,0,10726,1,yes,1680
undefined,undefined,NA,NA,NA,10726,10726,black,no,legacy,legacy,legacy,0,red,"(177, 0, 0)",shape,present,highProb,rectangular,swap,swap,same,same,red,"(177, 0, 0)",lowProb,lowProb5,circular,uniform,1,undefined,0,0.0625,1,1,95.69270833,1,12,18373,0,0,0,0,0,0,0,0,38,0,1,0.0625,95.69270833,12,18373,37,37,37,11/27/2018 14:25,Default description,yes,<openexp._canvas.legacy.Legacy object at 0x05312690>,<openexp._canvas.legacy.Legacy object at 0x05326BD0>,<openexp._canvas.legacy.Legacy object at 0x050C7430>,<openexp._canvas.legacy.Legacy object at 0x050BFA10>,<openexp._canvas.legacy.Legacy object at 0x050A2290>,<openexp._canvas.legacy.Legacy object at 0x05308350>,<openexp._canvas.legacy.Legacy object at 0x05312350>,<openexp._canvas.legacy.Legacy object at 0x050D9610>,75,SpatProbMultiple3.osexp,C:/Userdata/Michel/SpatProbMultiple3,no,mono,no,18,no,white,no,yes,0.09,98,1050,legacy,315,12,12,1,C:/Userdata/Michel/SpatProbMultiple3/beh/subject-13.csv,legacy,9,192,25,Kafkaesque Koffka,3.2.5,yes,598477b2b83f69022949e7e9,47,red,rectangular,red,circular,0,/,1930,space,10726,10726,"(80, 80, 80)","(0, 123, 0)","(177, 0, 0)","(155, 155, 155)",2,legacy,experiment,"[4, 5, 6, 7, 0, 1, 2, 3]",/,2500,3000,0,8,252.7587515,1024,2,48000,-16,main,"[(0, -252), (178, -178), (252, 0), (178, 178), (0, 252), (-178, 178), (-252, 0), (-178, -178)]",[],37,odd,2,NA,120143,161724,161724,25448,24438,1941,39232,39232,1941,1941,36174,203900,1940,161724,201967,200998,200998,NA,959,study_X,0,10726,1,yes,1680
undefined,undefined,NA,NA,NA,10726,10726,black,no,legacy,legacy,legacy,0,green,"(0, 123, 0)",shape,present,highProb,rectangular,swap,same,swap,same,green,"(0, 123, 0)",lowProb,lowProb4,circular,uniform,1,undefined,0,0.067708333,1,1,100.9895833,1,13,19390,0,0,0,0,0,0,0,0,39,0,1,0.067708333,100.9895833,13,19390,38,38,38,11/27/2018 14:25,Default description,yes,<openexp._canvas.legacy.Legacy object at 0x05312690>,<openexp._canvas.legacy.Legacy object at 0x05326BD0>,<openexp._canvas.legacy.Legacy object at 0x050C7430>,<openexp._canvas.legacy.Legacy object at 0x050BFA10>,<openexp._canvas.legacy.Legacy object at 0x050A2290>,<openexp._canvas.legacy.Legacy object at 0x05308350>,<openexp._canvas.legacy.Legacy object at 0x050C78F0>,<openexp._canvas.legacy.Legacy object at 0x050D9610>,75,SpatProbMultiple3.osexp,C:/Userdata/Michel/SpatProbMultiple3,no,mono,no,18,no,white,no,yes,0.09,98,1050,legacy,315,13,13,1,C:/Userdata/Michel/SpatProbMultiple3/beh/subject-13.csv,legacy,9,192,25,Kafkaesque Koffka,3.2.5,yes,598477b2b83f69022949e7e9,47,green,rectangular,green,circular,0,/,1017,space,10726,10726,"(80, 80, 80)","(0, 123, 0)","(177, 0, 0)","(155, 155, 155)",2,legacy,experiment,"[4, 5, 6, 7, 0, 1, 2, 3]",/,2500,3000,0,8,252.7587515,1024,2,48000,-16,main,"[(0, -252), (178, -178), (252, 0), (178, 178), (0, 252), (-178, 178), (-252, 0), (-178, -178)]",[],37,odd,1,NA,120143,161724,161724,25448,24438,1941,39232,39232,1941,1941,36174,206349,1940,161724,205329,204361,204361,NA,959,study_X,0,10726,1,yes,1680
undefined,undefined,NA,NA,NA,10726,10726,black,no,legacy,legacy,legacy,0,green,"(0, 123, 0)",shape,present,highProb,rectangular,same,same,same,same,green,"(0, 123, 0)",lowProb,lowProb6,circular,uniform,1,undefined,0,0.072916667,1,1,113.3229167,1,14,21758,0,0,0,0,0,0,0,0,40,0,1,0.072916667,113.3229167,14,21758,39,39,39,11/27/2018 14:25,Default description,yes,<openexp._canvas.legacy.Legacy object at 0x05312690>,<openexp._canvas.legacy.Legacy object at 0x05326BD0>,<openexp._canvas.legacy.Legacy object at 0x050C7430>,<openexp._canvas.legacy.Legacy object at 0x050BFA10>,<openexp._canvas.legacy.Legacy object at 0x050A2290>,<openexp._canvas.legacy.Legacy object at 0x05308350>,<openexp._canvas.legacy.Legacy object at 0x0539CC90>,<openexp._canvas.legacy.Legacy object at 0x050D9610>,75,SpatProbMultiple3.osexp,C:/Userdata/Michel/SpatProbMultiple3,no,mono,no,18,no,white,no,yes,0.09,98,1050,legacy,45,14,14,1,C:/Userdata/Michel/SpatProbMultiple3/beh/subject-13.csv,legacy,9,192,25,Kafkaesque Koffka,3.2.5,yes,598477b2b83f69022949e7e9,47,green,rectangular,green,circular,0,\,2368,space,10726,10726,"(80, 80, 80)","(0, 123, 0)","(177, 0, 0)","(155, 155, 155)",2,legacy,experiment,"[4, 5, 6, 7, 0, 1, 2, 3]",\,2500,3000,0,8,252.7587515,1024,2,48000,-16,main,"[(0, -252), (178, -178), (252, 0), (178, 178), (0, 252), (-178, 178), (-252, 0), (-178, -178)]",[],37,odd,3,NA,120143,161724,161724,25448,24438,1941,39232,39232,1941,1941,36174,210149,1940,161724,207779,206810,206810,NA,959,study_X,0,10726,1,yes,1680
undefined,undefined,NA,NA,NA,10726,10726,black,no,legacy,legacy,legacy,0,red,"(177, 0, 0)",color,absent,lowProb1,circular,swap,swap,swap,same,red,"(177, 0, 0)",lowProb,lowProb1,circular,uniform,1,undefined,0,0.078125,1,1,125.8489583,1,15,24163,0,0,0,0,0,0,0,0,41,0,1,0.078125,125.8489583,15,24163,40,40,40,11/27/2018 14:25,Default description,yes,<openexp._canvas.legacy.Legacy object at 0x05312690>,<openexp._canvas.legacy.Legacy object at 0x05326BD0>,<openexp._canvas.legacy.Legacy object at 0x050C7430>,<openexp._canvas.legacy.Legacy object at 0x050BFA10>,<openexp._canvas.legacy.Legacy object at 0x050A2290>,<openexp._canvas.legacy.Legacy object at 0x05308350>,<openexp._canvas.legacy.Legacy object at 0x0531C0B0>,<openexp._canvas.legacy.Legacy object at 0x050D9610>,75,SpatProbMultiple3.osexp,C:/Userdata/Michel/SpatProbMultiple3,no,mono,no,18,no,white,no,yes,0.09,98,1050,legacy,315,15,15,1,C:/Userdata/Michel/SpatProbMultiple3/beh/subject-13.csv,legacy,9,192,25,Kafkaesque Koffka,3.2.5,yes,598477b2b83f69022949e7e9,47,red,circular,red,circular,0,/,2405,space,10726,10726,"(80, 80, 80)","(0, 123, 0)","(177, 0, 0)","(155, 155, 155)",2,legacy,experiment,"[4, 5, 6, 7, 0, 1, 2, 3]",/,2500,3000,0,8,252.7587515,1024,2,48000,-16,main,"[(0, -252), (178, -178), (252, 0), (178, 178), (0, 252), (-178, 178), (-252, 0), (-178, -178)]",[],37,odd,5,NA,120143,161724,161724,25448,24438,1941,39232,39232,1941,1941,36174,213989,1940,161724,211581,210612,210612,NA,959,study_X,0,10726,1,yes,1680
undefined,undefined,NA,NA,NA,10726,10726,black,no,legacy,legacy,legacy,0,red,"(177, 0, 0)",color,present,highProb,circular,same,same,swap,same,green,"(0, 123, 0)",lowProb,lowProb4,circular,uniform,1,undefined,0,0.083333333,1,1,136.3229167,1,16,26174,0,0,0,0,0,0,0,0,42,0,1,0.083333333,136.3229167,16,26174,41,41,41,11/27/2018 14:25,Default description,yes,<openexp._canvas.legacy.Legacy object at 0x05312690>,<openexp._canvas.legacy.Legacy object at 0x05326BD0>,<openexp._canvas.legacy.Legacy object at 0x050C7430>,<openexp._canvas.legacy.Legacy object at 0x050BFA10>,<openexp._canvas.legacy.Legacy object at 0x050A2290>,<openexp._canvas.legacy.Legacy object at 0x05308350>,<openexp._canvas.legacy.Legacy object at 0x052F48B0>,<openexp._canvas.legacy.Legacy object at 0x050D9610>,75,SpatProbMultiple3.osexp,C:/Userdata/Michel/SpatProbMultiple3,no,mono,no,18,no,white,no,yes,0.09,98,1050,legacy,315,16,16,1,C:/Userdata/Michel/SpatProbMultiple3/beh/subject-13.csv,legacy,9,192,25,Kafkaesque Koffka,3.2.5,yes,598477b2b83f69022949e7e9,47,red,circular,green,circular,0,/,2011,space,10726,10726,"(80, 80, 80)","(0, 123, 0)","(177, 0, 0)","(155, 155, 155)",2,legacy,experiment,"[4, 5, 6, 7, 0, 1, 2, 3]",/,2500,3000,0,8,252.7587515,1024,2,48000,-16,main,"[(0, -252), (178, -178), (252, 0), (178, 178), (0, 252), (-178, 178), (-252, 0), (-178, -178)]",[],37,odd,1,NA,120143,161724,161724,25448,24438,1941,39232,39232,1941,1941,36174,217437,1940,161724,215423,214454,214454,NA,959,study_X,0,10726,1,yes,1680
undefined,undefined,NA,NA,NA,10726,10726,black,no,legacy,legacy,legacy,0,red,"(177, 0, 0)",color,present,lowProb3,rectangular,same,swap,same,swap,green,"(0, 123, 0)",highProbColor,highProbColor,rectangular,uniform,1,undefined,0,0.088541667,1,1,141.8958333,1,17,27244,0,0,0,0,0,0,0,0,43,0,1,0.088541667,141.8958333,17,27244,42,42,42,11/27/2018 14:25,Default description,yes,<openexp._canvas.legacy.Legacy object at 0x05312690>,<openexp._canvas.legacy.Legacy object at 0x05326BD0>,<openexp._canvas.legacy.Legacy object at 0x050C7430>,<openexp._canvas.legacy.Legacy object at 0x050BFA10>,<openexp._canvas.legacy.Legacy object at 0x050A2290>,<openexp._canvas.legacy.Legacy object at 0x05308350>,<openexp._canvas.legacy.Legacy object at 0x05337FF0>,<openexp._canvas.legacy.Legacy object at 0x050D9610>,75,SpatProbMultiple3.osexp,C:/Userdata/Michel/SpatProbMultiple3,no,mono,no,18,no,white,no,yes,0.09,98,1050,legacy,45,17,17,1,C:/Userdata/Michel/SpatProbMultiple3/beh/subject-13.csv,legacy,9,192,25,Kafkaesque Koffka,3.2.5,yes,598477b2b83f69022949e7e9,47,red,rectangular,green,rectangular,0,\,1070,space,10726,10726,"(80, 80, 80)","(0, 123, 0)","(177, 0, 0)","(155, 155, 155)",2,legacy,experiment,"[4, 5, 6, 7, 0, 1, 2, 3]",\,2500,3000,0,8,252.7587515,1024,2,48000,-16,main,"[(0, -252), (178, -178), (252, 0), (178, 178), (0, 252), (-178, 178), (-252, 0), (-178, -178)]",[],37,odd,4,NA,120143,161724,161724,25448,24438,1941,39232,39232,1941,1941,36174,219932,1940,161724,218859,217890,217890,NA,959,study_X,0,10726,1,yes,1680
undefined,undefined,NA,NA,NA,10726,10726,black,no,legacy,legacy,legacy,0,red,"(177, 0, 0)",color,present,highProb,rectangular,same,same,same,same,green,"(0, 123, 0)",lowProb,lowProb1,rectangular,uniform,1,undefined,0,0.09375,1,1,149.4114583,1,18,28687,0,0,0,0,0,0,0,0,44,0,1,0.09375,149.4114583,18,28687,43,43,43,11/27/2018 14:25,Default description,yes,<openexp._canvas.legacy.Legacy object at 0x05312690>,<openexp._canvas.legacy.Legacy object at 0x05326BD0>,<openexp._canvas.legacy.Legacy object at 0x050C7430>,<openexp._canvas.legacy.Legacy object at 0x050BFA10>,<openexp._canvas.legacy.Legacy object at 0x050A2290>,<openexp._canvas.legacy.Legacy object at 0x05308350>,<openexp._canvas.legacy.Legacy object at 0x05349B70>,<openexp._canvas.legacy.Legacy object at 0x050D9610>,75,SpatProbMultiple3.osexp,C:/Userdata/Michel/SpatProbMultiple3,no,mono,no,18,no,white,no,yes,0.09,98,1050,legacy,315,18,18,1,C:/Userdata/Michel/SpatProbMultiple3/beh/subject-13.csv,legacy,9,192,25,Kafkaesque Koffka,3.2.5,yes,598477b2b83f69022949e7e9,47,red,rectangular,green,rectangular,0,/,1443,space,10726,10726,"(80, 80, 80)","(0, 123, 0)","(177, 0, 0)","(155, 155, 155)",2,legacy,experiment,"[4, 5, 6, 7, 0, 1, 2, 3]",/,2500,3000,0,8,252.7587515,1024,2,48000,-16,main,"[(0, -252), (178, -178), (252, 0), (178, 178), (0, 252), (-178, 178), (-252, 0), (-178, -178)]",[],37,odd,5,NA,120143,161724,161724,25448,24438,1941,39232,39232,1941,1941,36174,222804,1940,161724,221358,220390,220390,NA,959,study_X,0,10726,1,yes,1680
undefined,undefined,NA,NA,NA,10726,10726,black,no,legacy,legacy,legacy,0,green,"(0, 123, 0)",color,present,highProb,rectangular,swap,same,swap,same,red,"(177, 0, 0)",lowProb,lowProb5,rectangular,uniform,1,undefined,0,0.098958333,1,1,155.4166667,1,19,29840,0,0,0,0,0,0,0,0,45,0,1,0.098958333,155.4166667,19,29840,44,44,44,11/27/2018 14:25,Default description,yes,<openexp._canvas.legacy.Legacy object at 0x05312690>,<openexp._canvas.legacy.Legacy object at 0x05326BD0>,<openexp._canvas.legacy.Legacy object at 0x050C7430>,<openexp._canvas.legacy.Legacy object at 0x050BFA10>,<openexp._canvas.legacy.Legacy object at 0x050A2290>,<openexp._canvas.legacy.Legacy object at 0x05308350>,<openexp._canvas.legacy.Legacy object at 0x0539CB30>,<openexp._canvas.legacy.Legacy object at 0x050D9610>,75,SpatProbMultiple3.osexp,C:/Userdata/Michel/SpatProbMultiple3,no,mono,no,18,no,white,no,yes,0.09,98,1050,legacy,315,19,19,1,C:/Userdata/Michel/SpatProbMultiple3/beh/subject-13.csv,legacy,9,192,25,Kafkaesque Koffka,3.2.5,yes,598477b2b83f69022949e7e9,47,green,rectangular,red,rectangular,0,/,1153,space,10726,10726,"(80, 80, 80)","(0, 123, 0)","(177, 0, 0)","(155, 155, 155)",2,legacy,experiment,"[4, 5, 6, 7, 0, 1, 2, 3]",/,2500,3000,0,8,252.7587515,1024,2,48000,-16,main,"[(0, -252), (178, -178), (252, 0), (178, 178), (0, 252), (-178, 178), (-252, 0), (-178, -178)]",[],37,odd,2,NA,120143,161724,161724,25448,24438,1941,39232,39232,1941,1941,36174,225381,1940,161724,224225,223258,223258,NA,959,study_X,0,10726,1,yes,1680
undefined,undefined,NA,NA,NA,10726,10726,black,no,legacy,legacy,legacy,0,red,"(177, 0, 0)",shape,present,lowProb6,circular,swap,swap,same,same,red,"(177, 0, 0)",lowProb,lowProb3,rectangular,uniform,1,undefined,0,0.104166667,1,1,159.8802083,1,20,30697,0,0,0,0,0,0,0,0,46,0,1,0.104166667,159.8802083,20,30697,45,45,45,11/27/2018 14:25,Default description,yes,<openexp._canvas.legacy.Legacy object at 0x05312690>,<openexp._canvas.legacy.Legacy object at 0x05326BD0>,<openexp._canvas.legacy.Legacy object at 0x050C7430>,<openexp._canvas.legacy.Legacy object at 0x050BFA10>,<openexp._canvas.legacy.Legacy object at 0x050A2290>,<openexp._canvas.legacy.Legacy object at 0x05308350>,<openexp._canvas.legacy.Legacy object at 0x05326890>,<openexp._canvas.legacy.Legacy object at 0x050D9610>,75,SpatProbMultiple3.osexp,C:/Userdata/Michel/SpatProbMultiple3,no,mono,no,18,no,white,no,yes,0.09,98,1050,legacy,45,20,20,1,C:/Userdata/Michel/SpatProbMultiple3/beh/subject-13.csv,legacy,9,192,25,Kafkaesque Koffka,3.2.5,yes,598477b2b83f69022949e7e9,47,red,circular,red,rectangular,0,\,857,space,10726,10726,"(80, 80, 80)","(0, 123, 0)","(177, 0, 0)","(155, 155, 155)",2,legacy,experiment,"[4, 5, 6, 7, 0, 1, 2, 3]",\,2500,3000,0,8,252.7587515,1024,2,48000,-16,main,"[(0, -252), (178, -178), (252, 0), (178, 178), (0, 252), (-178, 178), (-252, 0), (-178, -178)]",[],37,odd,7,NA,120143,161724,161724,25448,24438,1941,39232,39232,1941,1941,36174,227685,1940,161724,226825,225856,225856,NA,959,study_X,0,10726,1,yes,1680
undefined,undefined,NA,NA,NA,10726,10726,black,no,legacy,legacy,legacy,0,red,"(177, 0, 0)",color,present,highProb,rectangular,same,swap,swap,same,green,"(0, 123, 0)",lowProb,lowProb5,rectangular,uniform,1,undefined,0,0.109375,1,1,165.515625,1,21,31779,0,0,0,0,0,0,0,0,47,0,1,0.109375,165.515625,21,31779,46,46,46,11/27/2018 14:25,Default description,yes,<openexp._canvas.legacy.Legacy object at 0x05312690>,<openexp._canvas.legacy.Legacy object at 0x05326BD0>,<openexp._canvas.legacy.Legacy object at 0x050C7430>,<openexp._canvas.legacy.Legacy object at 0x050BFA10>,<openexp._canvas.legacy.Legacy object at 0x050A2290>,<openexp._canvas.legacy.Legacy object at 0x05308350>,<openexp._canvas.legacy.Legacy object at 0x05337310>,<openexp._canvas.legacy.Legacy object at 0x050D9610>,75,SpatProbMultiple3.osexp,C:/Userdata/Michel/SpatProbMultiple3,no,mono,no,18,no,white,no,yes,0.09,98,1050,legacy,315,21,21,1,C:/Userdata/Michel/SpatProbMultiple3/beh/subject-13.csv,legacy,9,192,25,Kafkaesque Koffka,3.2.5,yes,598477b2b83f69022949e7e9,47,red,rectangular,green,rectangular,0,/,1082,space,10726,10726,"(80, 80, 80)","(0, 123, 0)","(177, 0, 0)","(155, 155, 155)",2,legacy,experiment,"[4, 5, 6, 7, 0, 1, 2, 3]",/,2500,3000,0,8,252.7587515,1024,2,48000,-16,main,"[(0, -252), (178, -178), (252, 0), (178, 178), (0, 252), (-178, 178), (-252, 0), (-178, -178)]",[],37,odd,2,NA,120143,161724,161724,25448,24438,1941,39232,39232,1941,1941,36174,230189,1940,161724,229104,228135,228135,NA,959,study_X,0,10726,1,yes,1680
undefined,undefined,NA,NA,NA,10726,10726,black,no,legacy,legacy,legacy,0,green,"(0, 123, 0)",color,present,lowProb5,circular,swap,swap,swap,swap,red,"(177, 0, 0)",highProbColor,highProbColor,circular,uniform,1,undefined,0,0.114583333,1,1,174.3333333,1,22,33472,0,0,0,0,0,0,0,0,48,0,1,0.114583333,174.3333333,22,33472,47,47,47,11/27/2018 14:25,Default description,yes,<openexp._canvas.legacy.Legacy object at 0x05312690>,<openexp._canvas.legacy.Legacy object at 0x05326BD0>,<openexp._canvas.legacy.Legacy object at 0x050C7430>,<openexp._canvas.legacy.Legacy object at 0x050BFA10>,<openexp._canvas.legacy.Legacy object at 0x050A2290>,<openexp._canvas.legacy.Legacy object at 0x05308350>,<openexp._canvas.legacy.Legacy object at 0x05312F50>,<openexp._canvas.legacy.Legacy object at 0x050D9610>,75,SpatProbMultiple3.osexp,C:/Userdata/Michel/SpatProbMultiple3,no,mono,no,18,no,white,no,yes,0.09,98,1050,legacy,315,22,22,1,C:/Userdata/Michel/SpatProbMultiple3/beh/subject-13.csv,legacy,9,192,25,Kafkaesque Koffka,3.2.5,yes,598477b2b83f69022949e7e9,47,green,circular,red,circular,0,/,1693,space,10726,10726,"(80, 80, 80)","(0, 123, 0)","(177, 0, 0)","(155, 155, 155)",2,legacy,experiment,"[4, 5, 6, 7, 0, 1, 2, 3]",/,2500,3000,0,8,252.7587515,1024,2,48000,-16,main,"[(0, -252), (178, -178), (252, 0), (178, 178), (0, 252), (-178, 178), (-252, 0), (-178, -178)]",[],37,odd,4,NA,120143,161724,161724,25448,24438,1941,39232,39232,1941,1941,36174,233317,1940,161724,231621,230653,230653,NA,959,study_X,0,10726,1,yes,1680
undefined,undefined,NA,NA,NA,10726,10726,black,no,legacy,legacy,legacy,0,green,"(0, 123, 0)",shape,absent,lowProb5,rectangular,same,swap,swap,swap,green,"(0, 123, 0)",lowProb,lowProb2,rectangular,uniform,1,undefined,0,0.119791667,1,1,178.1927083,1,23,34213,0,0,0,0,0,0,0,0,49,0,1,0.119791667,178.1927083,23,34213,48,48,48,11/27/2018 14:25,Default description,yes,<openexp._canvas.legacy.Legacy object at 0x05312690>,<openexp._canvas.legacy.Legacy object at 0x05326BD0>,<openexp._canvas.legacy.Legacy object at 0x050C7430>,<openexp._canvas.legacy.Legacy object at 0x050BFA10>,<openexp._canvas.legacy.Legacy object at 0x050A2290>,<openexp._canvas.legacy.Legacy object at 0x05308350>,<openexp._canvas.legacy.Legacy object at 0x05326670>,<openexp._canvas.legacy.Legacy object at 0x050D9610>,75,SpatProbMultiple3.osexp,C:/Userdata/Michel/SpatProbMultiple3,no,mono,no,18,no,white,no,yes,0.09,98,1050,legacy,315,23,23,1,C:/Userdata/Michel/SpatProbMultiple3/beh/subject-13.csv,legacy,9,192,25,Kafkaesque Koffka,3.2.5,yes,598477b2b83f69022949e7e9,47,green,rectangular,green,rectangular,0,/,741,space,10726,10726,"(80, 80, 80)","(0, 123, 0)","(177, 0, 0)","(155, 155, 155)",2,legacy,experiment,"[4, 5, 6, 7, 0, 1, 2, 3]",/,2500,3000,0,8,252.7587515,1024,2,48000,-16,main,"[(0, -252), (178, -178), (252, 0), (178, 178), (0, 252), (-178, 178), (-252, 0), (-178, -178)]",[],37,odd,6,NA,120143,161724,161724,25448,24438,1941,39232,39232,1941,1941,36174,235484,1940,161724,234741,233773,233773,NA,959,study_X,0,10726,1,yes,1680
undefined,undefined,NA,NA,NA,10726,10726,black,no,legacy,legacy,legacy,0,green,"(0, 123, 0)",color,present,highProb,rectangular,same,same,swap,same,red,"(177, 0, 0)",lowProb,lowProb5,rectangular,uniform,1,undefined,0,0.125,1,1,184.46875,1,24,35418,0,0,0,0,0,0,0,0,50,0,1,0.125,184.46875,24,35418,49,49,49,11/27/2018 14:25,Default description,yes,<openexp._canvas.legacy.Legacy object at 0x05312690>,<openexp._canvas.legacy.Legacy object at 0x05326BD0>,<openexp._canvas.legacy.Legacy object at 0x050C7430>,<openexp._canvas.legacy.Legacy object at 0x050BFA10>,<openexp._canvas.legacy.Legacy object at 0x050A2290>,<openexp._canvas.legacy.Legacy object at 0x05308350>,<openexp._canvas.legacy.Legacy object at 0x052F4D30>,<openexp._canvas.legacy.Legacy object at 0x050D9610>,75,SpatProbMultiple3.osexp,C:/Userdata/Michel/SpatProbMultiple3,no,mono,no,18,no,white,no,yes,0.09,98,1050,legacy,45,24,24,1,C:/Userdata/Michel/SpatProbMultiple3/beh/subject-13.csv,legacy,9,192,25,Kafkaesque Koffka,3.2.5,yes,598477b2b83f69022949e7e9,47,green,rectangular,red,rectangular,0,\,1205,space,10726,10726,"(80, 80, 80)","(0, 123, 0)","(177, 0, 0)","(155, 155, 155)",2,legacy,experiment,"[4, 5, 6, 7, 0, 1, 2, 3]",\,2500,3000,0,8,252.7587515,1024,2,48000,-16,main,"[(0, -252), (178, -178), (252, 0), (178, 178), (0, 252), (-178, 178), (-252, 0), (-178, -178)]",[],37,odd,2,NA,120143,161724,161724,25448,24438,1941,39232,39232,1941,1941,36174,238140,1940,161724,236933,235965,235965,NA,959,study_X,0,10726,1,yes,1680
undefined,undefined,NA,NA,NA,10726,10726,black,no,legacy,legacy,legacy,0,green,"(0, 123, 0)",shape,absent,lowProb1,circular,same,swap,swap,swap,green,"(0, 123, 0)",lowProb,lowProb1,circular,uniform,1,undefined,0,0.130208333,1,1,192.7760417,1,25,37013,0,0,0,0,0,0,0,0,51,0,1,0.130208333,192.7760417,25,37013,50,50,50,11/27/2018 14:25,Default description,yes,<openexp._canvas.legacy.Legacy object at 0x05312690>,<openexp._canvas.legacy.Legacy object at 0x05326BD0>,<openexp._canvas.legacy.Legacy object at 0x050C7430>,<openexp._canvas.legacy.Legacy object at 0x050BFA10>,<openexp._canvas.legacy.Legacy object at 0x050A2290>,<openexp._canvas.legacy.Legacy object at 0x05308350>,<openexp._canvas.legacy.Legacy object at 0x053372B0>,<openexp._canvas.legacy.Legacy object at 0x050D9610>,75,SpatProbMultiple3.osexp,C:/Userdata/Michel/SpatProbMultiple3,no,mono,no,18,no,white,no,yes,0.09,98,1050,legacy,315,25,25,1,C:/Userdata/Michel/SpatProbMultiple3/beh/subject-13.csv,legacy,9,192,25,Kafkaesque Koffka,3.2.5,yes,598477b2b83f69022949e7e9,47,green,circular,green,circular,0,/,1595,space,10726,10726,"(80, 80, 80)","(0, 123, 0)","(177, 0, 0)","(155, 155, 155)",2,legacy,experiment,"[4, 5, 6, 7, 0, 1, 2, 3]",/,2500,3000,0,8,252.7587515,1024,2,48000,-16,main,"[(0, -252), (178, -178), (252, 0), (178, 178), (0, 252), (-178, 178), (-252, 0), (-178, -178)]",[],37,odd,5,NA,120143,161724,161724,25448,24438,1941,39232,39232,1941,1941,36174,241164,1940,161724,239567,238598,238598,NA,959,study_X,0,10726,1,yes,1680
undefined,undefined,NA,NA,NA,10726,10726,black,no,legacy,legacy,legacy,0,green,"(0, 123, 0)",color,present,highProb,circular,same,same,swap,same,red,"(177, 0, 0)",lowProb,lowProb1,circular,uniform,1,undefined,0,0.135416667,1,1,199.9791667,1,26,38396,0,0,0,0,0,0,0,0,52,0,1,0.135416667,199.9791667,26,38396,51,51,51,11/27/2018 14:25,Default description,yes,<openexp._canvas.legacy.Legacy object at 0x05312690>,<openexp._canvas.legacy.Legacy object at 0x05326BD0>,<openexp._canvas.legacy.Legacy object at 0x050C7430>,<openexp._canvas.legacy.Legacy object at 0x050BFA10>,<openexp._canvas.legacy.Legacy object at 0x050A2290>,<openexp._canvas.legacy.Legacy object at 0x05308350>,<openexp._canvas.legacy.Legacy object at 0x05333CD0>,<openexp._canvas.legacy.Legacy object at 0x050D9610>,75,SpatProbMultiple3.osexp,C:/Userdata/Michel/SpatProbMultiple3,no,mono,no,18,no,white,no,yes,0.09,98,1050,legacy,315,26,26,1,C:/Userdata/Michel/SpatProbMultiple3/beh/subject-13.csv,legacy,9,192,25,Kafkaesque Koffka,3.2.5,yes,598477b2b83f69022949e7e9,47,green,circular,red,circular,0,/,1383,space,10726,10726,"(80, 80, 80)","(0, 123, 0)","(177, 0, 0)","(155, 155, 155)",2,legacy,experiment,"[4, 5, 6, 7, 0, 1, 2, 3]",/,2500,3000,0,8,252.7587515,1024,2,48000,-16,main,"[(0, -252), (178, -178), (252, 0), (178, 178), (0, 252), (-178, 178), (-252, 0), (-178, -178)]",[],37,odd,5,NA,120143,161724,161724,25448,24438,1941,39232,39232,1941,1941,36174,243981,1940,161724,242594,241625,241625,NA,959,study_X,0,10726,1,yes,1680
undefined,undefined,NA,NA,NA,10726,10726,black,no,legacy,legacy,legacy,0,green,"(0, 123, 0)",shape,present,lowProb1,rectangular,same,swap,swap,same,green,"(0, 123, 0)",lowProb,lowProb3,circular,uniform,1,undefined,0,0.140625,1,1,206.03125,1,27,39558,0,0,0,0,0,0,0,0,53,0,1,0.140625,206.03125,27,39558,52,52,52,11/27/2018 14:25,Default description,yes,<openexp._canvas.legacy.Legacy object at 0x05312690>,<openexp._canvas.legacy.Legacy object at 0x05326BD0>,<openexp._canvas.legacy.Legacy object at 0x050C7430>,<openexp._canvas.legacy.Legacy object at 0x050BFA10>,<openexp._canvas.legacy.Legacy object at 0x050A2290>,<openexp._canvas.legacy.Legacy object at 0x05308350>,<openexp._canvas.legacy.Legacy object at 0x052F4650>,<openexp._canvas.legacy.Legacy object at 0x050D9610>,75,SpatProbMultiple3.osexp,C:/Userdata/Michel/SpatProbMultiple3,no,mono,no,18,no,white,no,yes,0.09,98,1050,legacy,315,27,27,1,C:/Userdata/Michel/SpatProbMultiple3/beh/subject-13.csv,legacy,9,192,25,Kafkaesque Koffka,3.2.5,yes,598477b2b83f69022949e7e9,47,green,rectangular,green,circular,0,/,1162,space,10726,10726,"(80, 80, 80)","(0, 123, 0)","(177, 0, 0)","(155, 155, 155)",2,legacy,experiment,"[4, 5, 6, 7, 0, 1, 2, 3]",/,2500,3000,0,8,252.7587515,1024,2,48000,-16,main,"[(0, -252), (178, -178), (252, 0), (178, 178), (0, 252), (-178, 178), (-252, 0), (-178, -178)]",[],37,odd,7,NA,120143,161724,161724,25448,24438,1941,39232,39232,1941,1941,36174,246581,1940,161724,245415,244446,244447,NA,959,study_X,0,10726,1,yes,1680
undefined,undefined,NA,NA,NA,10726,10726,black,no,legacy,legacy,legacy,0,red,"(177, 0, 0)",shape,absent,lowProb6,rectangular,swap,same,swap,swap,red,"(177, 0, 0)",lowProb,lowProb2,rectangular,uniform,1,undefined,0,0.145833333,1,1,214.671875,1,28,41217,0,0,0,0,0,0,0,0,54,0,1,0.145833333,214.671875,28,41217,53,53,53,11/27/2018 14:25,Default description,yes,<openexp._canvas.legacy.Legacy object at 0x05312690>,<openexp._canvas.legacy.Legacy object at 0x05326BD0>,<openexp._canvas.legacy.Legacy object at 0x050C7430>,<openexp._canvas.legacy.Legacy object at 0x050BFA10>,<openexp._canvas.legacy.Legacy object at 0x050A2290>,<openexp._canvas.legacy.Legacy object at 0x05308350>,<openexp._canvas.legacy.Legacy object at 0x053374B0>,<openexp._canvas.legacy.Legacy object at 0x050D9610>,75,SpatProbMultiple3.osexp,C:/Userdata/Michel/SpatProbMultiple3,no,mono,no,18,no,white,no,yes,0.09,98,1050,legacy,45,28,28,1,C:/Userdata/Michel/SpatProbMultiple3/beh/subject-13.csv,legacy,9,192,25,Kafkaesque Koffka,3.2.5,yes,598477b2b83f69022949e7e9,47,red,rectangular,red,rectangular,0,\,1659,space,10726,10726,"(80, 80, 80)","(0, 123, 0)","(177, 0, 0)","(155, 155, 155)",2,legacy,experiment,"[4, 5, 6, 7, 0, 1, 2, 3]",\,2500,3000,0,8,252.7587515,1024,2,48000,-16,main,"[(0, -252), (178, -178), (252, 0), (178, 178), (0, 252), (-178, 178), (-252, 0), (-178, -178)]",[],37,odd,6,NA,120143,161724,161724,25448,24438,1941,39232,39232,1941,1941,36174,249652,1940,161724,247990,247022,247022,NA,959,study_X,0,10726,1,yes,1680
undefined,undefined,NA,NA,NA,10726,10726,black,no,legacy,legacy,legacy,0,red,"(177, 0, 0)",shape,absent,lowProb1,circular,same,swap,same,swap,red,"(177, 0, 0)",highProbShape,highProbShape,circular,uniform,1,undefined,0,0.151041667,1,1,219.5,1,29,42144,0,0,0,0,0,0,0,0,55,0,1,0.151041667,219.5,29,42144,54,54,54,11/27/2018 14:25,Default description,yes,<openexp._canvas.legacy.Legacy object at 0x05312690>,<openexp._canvas.legacy.Legacy object at 0x05326BD0>,<openexp._canvas.legacy.Legacy object at 0x050C7430>,<openexp._canvas.legacy.Legacy object at 0x050BFA10>,<openexp._canvas.legacy.Legacy object at 0x050A2290>,<openexp._canvas.legacy.Legacy object at 0x05308350>,<openexp._canvas.legacy.Legacy object at 0x05333670>,<openexp._canvas.legacy.Legacy object at 0x050D9610>,75,SpatProbMultiple3.osexp,C:/Userdata/Michel/SpatProbMultiple3,no,mono,no,18,no,white,no,yes,0.09,98,1050,legacy,315,29,29,1,C:/Userdata/Michel/SpatProbMultiple3/beh/subject-13.csv,legacy,9,192,25,Kafkaesque Koffka,3.2.5,yes,598477b2b83f69022949e7e9,47,red,circular,red,circular,0,/,927,space,10726,10726,"(80, 80, 80)","(0, 123, 0)","(177, 0, 0)","(155, 155, 155)",2,legacy,experiment,"[4, 5, 6, 7, 0, 1, 2, 3]",/,2500,3000,0,8,252.7587515,1024,2,48000,-16,main,"[(0, -252), (178, -178), (252, 0), (178, 178), (0, 252), (-178, 178), (-252, 0), (-178, -178)]",[],37,odd,0,NA,120143,161724,161724,25448,24438,1941,39232,39232,1941,1941,36174,252012,1940,161724,251082,250113,250113,NA,959,study_X,0,10726,1,yes,1680
undefined,undefined,NA,NA,NA,10726,10726,black,no,legacy,legacy,legacy,0,green,"(0, 123, 0)",shape,present,highProb,circular,swap,same,swap,swap,green,"(0, 123, 0)",lowProb,lowProb5,rectangular,uniform,0,undefined,0,0.151041667,1,1,232.5208333,1,29,44644,0,0,0,0,0,0,0,0,56,0,1,0.151041667,232.5208333,29,44644,55,55,55,11/27/2018 14:25,Default description,yes,<openexp._canvas.legacy.Legacy object at 0x05312690>,<openexp._canvas.legacy.Legacy object at 0x05326BD0>,<openexp._canvas.legacy.Legacy object at 0x050C7430>,<openexp._canvas.legacy.Legacy object at 0x050BFA10>,<openexp._canvas.legacy.Legacy object at 0x050A2290>,<openexp._canvas.legacy.Legacy object at 0x05308350>,<openexp._canvas.legacy.Legacy object at 0x0533D3D0>,<openexp._canvas.legacy.Legacy object at 0x050D9610>,75,SpatProbMultiple3.osexp,C:/Userdata/Michel/SpatProbMultiple3,no,mono,no,18,no,white,no,yes,0.09,98,1050,legacy,315,30,30,1,C:/Userdata/Michel/SpatProbMultiple3/beh/subject-13.csv,legacy,9,192,25,Kafkaesque Koffka,3.2.5,yes,598477b2b83f69022949e7e9,47,green,circular,green,rectangular,0,None,2500,space,10726,10726,"(80, 80, 80)","(0, 123, 0)","(177, 0, 0)","(155, 155, 155)",2,legacy,experiment,"[4, 5, 6, 7, 0, 1, 2, 3]",/,2500,3000,0,8,252.7587515,1024,2,48000,-16,main,"[(0, -252), (178, -178), (252, 0), (178, 178), (0, 252), (-178, 178), (-252, 0), (-178, -178)]",[],37,odd,2,NA,120143,161724,161724,25448,24438,1941,39232,39232,1941,1941,36174,255996,1940,161724,253494,252525,252526,NA,959,study_X,0,10726,1,yes,1680
undefined,undefined,NA,NA,NA,10726,10726,black,no,legacy,legacy,legacy,0,red,"(177, 0, 0)",shape,present,highProb,circular,swap,same,swap,same,red,"(177, 0, 0)",lowProb,lowProb6,rectangular,uniform,0,undefined,0,0.151041667,1,1,245.5416667,1,29,47144,0,0,0,0,0,0,0,0,57,0,1,0.151041667,245.5416667,29,47144,56,56,56,11/27/2018 14:25,Default description,yes,<openexp._canvas.legacy.Legacy object at 0x05312690>,<openexp._canvas.legacy.Legacy object at 0x05326BD0>,<openexp._canvas.legacy.Legacy object at 0x050C7430>,<openexp._canvas.legacy.Legacy object at 0x050BFA10>,<openexp._canvas.legacy.Legacy object at 0x050A2290>,<openexp._canvas.legacy.Legacy object at 0x05308350>,<openexp._canvas.legacy.Legacy object at 0x05337070>,<openexp._canvas.legacy.Legacy object at 0x050D9610>,75,SpatProbMultiple3.osexp,C:/Userdata/Michel/SpatProbMultiple3,no,mono,no,18,no,white,no,yes,0.09,98,1050,legacy,315,31,31,1,C:/Userdata/Michel/SpatProbMultiple3/beh/subject-13.csv,legacy,9,192,25,Kafkaesque Koffka,3.2.5,yes,598477b2b83f69022949e7e9,47,red,circular,red,rectangular,0,None,2500,space,10726,10726,"(80, 80, 80)","(0, 123, 0)","(177, 0, 0)","(155, 155, 155)",2,legacy,experiment,"[4, 5, 6, 7, 0, 1, 2, 3]",/,2500,3000,0,8,252.7587515,1024,2,48000,-16,main,"[(0, -252), (178, -178), (252, 0), (178, 178), (0, 252), (-178, 178), (-252, 0), (-178, -178)]",[],37,odd,3,NA,120143,161724,161724,25448,24438,1941,39232,39232,1941,1941,36174,259922,1940,161724,257420,256451,256451,NA,959,study_X,0,10726,1,yes,1680
undefined,undefined,NA,NA,NA,10726,10726,black,no,legacy,legacy,legacy,0,green,"(0, 123, 0)",shape,present,highProb,circular,swap,same,swap,same,green,"(0, 123, 0)",lowProb,lowProb3,rectangular,uniform,1,undefined,0,0.15625,1,1,252.5,1,30,48480,0,0,0,0,0,0,0,0,58,0,1,0.15625,252.5,30,48480,57,57,57,11/27/2018 14:25,Default description,yes,<openexp._canvas.legacy.Legacy object at 0x05312690>,<openexp._canvas.legacy.Legacy object at 0x05326BD0>,<openexp._canvas.legacy.Legacy object at 0x050C7430>,<openexp._canvas.legacy.Legacy object at 0x050BFA10>,<openexp._canvas.legacy.Legacy object at 0x050A2290>,<openexp._canvas.legacy.Legacy object at 0x05308350>,<openexp._canvas.legacy.Legacy object at 0x05333C90>,<openexp._canvas.legacy.Legacy object at 0x050D9610>,75,SpatProbMultiple3.osexp,C:/Userdata/Michel/SpatProbMultiple3,no,mono,no,18,no,white,no,yes,0.09,98,1050,legacy,315,32,32,1,C:/Userdata/Michel/SpatProbMultiple3/beh/subject-13.csv,legacy,9,192,25,Kafkaesque Koffka,3.2.5,yes,598477b2b83f69022949e7e9,47,green,circular,green,rectangular,0,/,1336,space,10726,10726,"(80, 80, 80)","(0, 123, 0)","(177, 0, 0)","(155, 155, 155)",2,legacy,experiment,"[4, 5, 6, 7, 0, 1, 2, 3]",/,2500,3000,0,8,252.7587515,1024,2,48000,-16,main,"[(0, -252), (178, -178), (252, 0), (178, 178), (0, 252), (-178, 178), (-252, 0), (-178, -178)]",[],37,odd,7,NA,120143,161724,161724,25448,24438,1941,39232,39232,1941,1941,36174,262685,1940,161724,261345,260377,260377,NA,959,study_X,0,10726,1,yes,1680
undefined,undefined,NA,NA,NA,10726,10726,black,no,legacy,legacy,legacy,0,green,"(0, 123, 0)",shape,present,highProb,rectangular,same,swap,same,swap,green,"(0, 123, 0)",lowProb,lowProb4,circular,uniform,1,undefined,0,0.161458333,1,1,262.6666667,1,31,50432,0,0,0,0,0,0,0,0,59,0,1,0.161458333,262.6666667,31,50432,58,58,58,11/27/2018 14:25,Default description,yes,<openexp._canvas.legacy.Legacy object at 0x05312690>,<openexp._canvas.legacy.Legacy object at 0x05326BD0>,<openexp._canvas.legacy.Legacy object at 0x050C7430>,<openexp._canvas.legacy.Legacy object at 0x050BFA10>,<openexp._canvas.legacy.Legacy object at 0x050A2290>,<openexp._canvas.legacy.Legacy object at 0x05308350>,<openexp._canvas.legacy.Legacy object at 0x05312350>,<openexp._canvas.legacy.Legacy object at 0x050D9610>,75,SpatProbMultiple3.osexp,C:/Userdata/Michel/SpatProbMultiple3,no,mono,no,18,no,white,no,yes,0.09,98,1050,legacy,315,33,33,1,C:/Userdata/Michel/SpatProbMultiple3/beh/subject-13.csv,legacy,9,192,25,Kafkaesque Koffka,3.2.5,yes,598477b2b83f69022949e7e9,47,green,rectangular,green,circular,0,/,1952,space,10726,10726,"(80, 80, 80)","(0, 123, 0)","(177, 0, 0)","(155, 155, 155)",2,legacy,experiment,"[4, 5, 6, 7, 0, 1, 2, 3]",/,2500,3000,0,8,252.7587515,1024,2,48000,-16,main,"[(0, -252), (178, -178), (252, 0), (178, 178), (0, 252), (-178, 178), (-252, 0), (-178, -178)]",[],37,odd,1,NA,120143,161724,161724,25448,24438,1941,39232,39232,1941,1941,36174,266060,1940,161724,264105,263136,263137,NA,959,study_X,0,10726,1,yes,1680
undefined,undefined,NA,NA,NA,10726,10726,black,no,legacy,legacy,legacy,0,green,"(0, 123, 0)",color,present,highProb,circular,same,swap,swap,same,red,"(177, 0, 0)",lowProb,lowProb4,circular,uniform,1,undefined,0,0.166666667,1,1,268.4635417,1,32,51545,0,0,0,0,0,0,0,0,60,0,1,0.166666667,268.4635417,32,51545,59,59,59,11/27/2018 14:25,Default description,yes,<openexp._canvas.legacy.Legacy object at 0x05312690>,<openexp._canvas.legacy.Legacy object at 0x05326BD0>,<openexp._canvas.legacy.Legacy object at 0x050C7430>,<openexp._canvas.legacy.Legacy object at 0x050BFA10>,<openexp._canvas.legacy.Legacy object at 0x050A2290>,<openexp._canvas.legacy.Legacy object at 0x05308350>,<openexp._canvas.legacy.Legacy object at 0x0531C4D0>,<openexp._canvas.legacy.Legacy object at 0x050D9610>,75,SpatProbMultiple3.osexp,C:/Userdata/Michel/SpatProbMultiple3,no,mono,no,18,no,white,no,yes,0.09,98,1050,legacy,45,34,34,1,C:/Userdata/Michel/SpatProbMultiple3/beh/subject-13.csv,legacy,9,192,25,Kafkaesque Koffka,3.2.5,yes,598477b2b83f69022949e7e9,47,green,circular,red,circular,0,\,1113,space,10726,10726,"(80, 80, 80)","(0, 123, 0)","(177, 0, 0)","(155, 155, 155)",2,legacy,experiment,"[4, 5, 6, 7, 0, 1, 2, 3]",\,2500,3000,0,8,252.7587515,1024,2,48000,-16,main,"[(0, -252), (178, -178), (252, 0), (178, 178), (0, 252), (-178, 178), (-252, 0), (-178, -178)]",[],37,odd,1,NA,120143,161724,161724,25448,24438,1941,39232,39232,1941,1941,36174,268604,1940,161724,267488,266519,266520,NA,959,study_X,0,10726,1,yes,1680
undefined,undefined,NA,NA,NA,10726,10726,black,no,legacy,legacy,legacy,0,green,"(0, 123, 0)",shape,absent,lowProb2,rectangular,same,swap,swap,swap,green,"(0, 123, 0)",lowProb,lowProb6,rectangular,uniform,1,undefined,0,0.171875,1,1,278.4635417,1,33,53465,0,0,0,0,0,0,0,0,61,0,1,0.171875,278.4635417,33,53465,60,60,60,11/27/2018 14:25,Default description,yes,<openexp._canvas.legacy.Legacy object at 0x05312690>,<openexp._canvas.legacy.Legacy object at 0x05326BD0>,<openexp._canvas.legacy.Legacy object at 0x050C7430>,<openexp._canvas.legacy.Legacy object at 0x050BFA10>,<openexp._canvas.legacy.Legacy object at 0x050A2290>,<openexp._canvas.legacy.Legacy object at 0x05308350>,<openexp._canvas.legacy.Legacy object at 0x05312F70>,<openexp._canvas.legacy.Legacy object at 0x050D9610>,75,SpatProbMultiple3.osexp,C:/Userdata/Michel/SpatProbMultiple3,no,mono,no,18,no,white,no,yes,0.09,98,1050,legacy,315,35,35,1,C:/Userdata/Michel/SpatProbMultiple3/beh/subject-13.csv,legacy,9,192,25,Kafkaesque Koffka,3.2.5,yes,598477b2b83f69022949e7e9,47,green,rectangular,green,rectangular,0,/,1920,space,10726,10726,"(80, 80, 80)","(0, 123, 0)","(177, 0, 0)","(155, 155, 155)",2,legacy,experiment,"[4, 5, 6, 7, 0, 1, 2, 3]",/,2500,3000,0,8,252.7587515,1024,2,48000,-16,main,"[(0, -252), (178, -178), (252, 0), (178, 178), (0, 252), (-178, 178), (-252, 0), (-178, -178)]",[],37,odd,3,NA,120143,161724,161724,25448,24438,1941,39232,39232,1941,1941,36174,271948,1940,161724,270025,269056,269056,NA,959,study_X,0,10726,1,yes,1680
undefined,undefined,NA,NA,NA,10726,10726,black,no,legacy,legacy,legacy,0,red,"(177, 0, 0)",color,present,highProb,circular,swap,swap,same,swap,green,"(0, 123, 0)",lowProb,lowProb6,circular,uniform,1,undefined,0,0.177083333,1,1,285.3489583,1,34,54787,0,0,0,0,0,0,0,0,62,0,1,0.177083333,285.3489583,34,54787,61,61,61,11/27/2018 14:25,Default description,yes,<openexp._canvas.legacy.Legacy object at 0x05312690>,<openexp._canvas.legacy.Legacy object at 0x05326BD0>,<openexp._canvas.legacy.Legacy object at 0x050C7430>,<openexp._canvas.legacy.Legacy object at 0x050BFA10>,<openexp._canvas.legacy.Legacy object at 0x050A2290>,<openexp._canvas.legacy.Legacy object at 0x05308350>,<openexp._canvas.legacy.Legacy object at 0x053264F0>,<openexp._canvas.legacy.Legacy object at 0x050D9610>,75,SpatProbMultiple3.osexp,C:/Userdata/Michel/SpatProbMultiple3,no,mono,no,18,no,white,no,yes,0.09,98,1050,legacy,315,36,36,1,C:/Userdata/Michel/SpatProbMultiple3/beh/subject-13.csv,legacy,9,192,25,Kafkaesque Koffka,3.2.5,yes,598477b2b83f69022949e7e9,47,red,circular,green,circular,0,/,1322,space,10726,10726,"(80, 80, 80)","(0, 123, 0)","(177, 0, 0)","(155, 155, 155)",2,legacy,experiment,"[4, 5, 6, 7, 0, 1, 2, 3]",/,2500,3000,0,8,252.7587515,1024,2,48000,-16,main,"[(0, -252), (178, -178), (252, 0), (178, 178), (0, 252), (-178, 178), (-252, 0), (-178, -178)]",[],37,odd,3,NA,120143,161724,161724,25448,24438,1941,39232,39232,1941,1941,36174,274708,1940,161724,273383,272415,272415,NA,959,study_X,0,10726,1,yes,1680
undefined,undefined,NA,NA,NA,10726,10726,black,no,legacy,legacy,legacy,0,red,"(177, 0, 0)",shape,present,highProb,rectangular,same,swap,swap,same,red,"(177, 0, 0)",lowProb,lowProb5,circular,uniform,1,undefined,0,0.182291667,1,1,293.8697917,1,35,56423,0,0,0,0,0,0,0,0,63,0,1,0.182291667,293.8697917,35,56423,62,62,62,11/27/2018 14:25,Default description,yes,<openexp._canvas.legacy.Legacy object at 0x05312690>,<openexp._canvas.legacy.Legacy object at 0x05326BD0>,<openexp._canvas.legacy.Legacy object at 0x050C7430>,<openexp._canvas.legacy.Legacy object at 0x050BFA10>,<openexp._canvas.legacy.Legacy object at 0x050A2290>,<openexp._canvas.legacy.Legacy object at 0x05308350>,<openexp._canvas.legacy.Legacy object at 0x053376B0>,<openexp._canvas.legacy.Legacy object at 0x050D9610>,75,SpatProbMultiple3.osexp,C:/Userdata/Michel/SpatProbMultiple3,no,mono,no,18,no,white,no,yes,0.09,98,1050,legacy,45,37,37,1,C:/Userdata/Michel/SpatProbMultiple3/beh/subject-13.csv,legacy,9,192,25,Kafkaesque Koffka,3.2.5,yes,598477b2b83f69022949e7e9,47,red,rectangular,red,circular,0,\,1636,space,10726,10726,"(80, 80, 80)","(0, 123, 0)","(177, 0, 0)","(155, 155, 155)",2,legacy,experiment,"[4, 5, 6, 7, 0, 1, 2, 3]",\,2500,3000,0,8,252.7587515,1024,2,48000,-16,main,"[(0, -252), (178, -178), (252, 0), (178, 178), (0, 252), (-178, 178), (-252, 0), (-178, -178)]",[],37,odd,2,NA,120143,161724,161724,25448,24438,1941,39232,39232,1941,1941,36174,277797,1940,161724,276157,275188,275188,NA,959,study_X,0,10726,1,yes,1680
undefined,undefined,NA,NA,NA,10726,10726,black,no,legacy,legacy,legacy,0,red,"(177, 0, 0)",color,present,highProb,rectangular,same,same,swap,swap,green,"(0, 123, 0)",lowProb,lowProb5,rectangular,uniform,1,undefined,0,0.1875,1,1,302.5,1,36,58080,0,0,0,0,0,0,0,0,64,0,1,0.1875,302.5,36,58080,63,63,63,11/27/2018 14:25,Default description,yes,<openexp._canvas.legacy.Legacy object at 0x05312690>,<openexp._canvas.legacy.Legacy object at 0x05326BD0>,<openexp._canvas.legacy.Legacy object at 0x050C7430>,<openexp._canvas.legacy.Legacy object at 0x050BFA10>,<openexp._canvas.legacy.Legacy object at 0x050A2290>,<openexp._canvas.legacy.Legacy object at 0x05308350>,<openexp._canvas.legacy.Legacy object at 0x05333230>,<openexp._canvas.legacy.Legacy object at 0x050D9610>,75,SpatProbMultiple3.osexp,C:/Userdata/Michel/SpatProbMultiple3,no,mono,no,18,no,white,no,yes,0.09,98,1050,legacy,315,38,38,1,C:/Userdata/Michel/SpatProbMultiple3/beh/subject-13.csv,legacy,9,192,25,Kafkaesque Koffka,3.2.5,yes,598477b2b83f69022949e7e9,47,red,rectangular,green,rectangular,0,/,1657,space,10726,10726,"(80, 80, 80)","(0, 123, 0)","(177, 0, 0)","(155, 155, 155)",2,legacy,experiment,"[4, 5, 6, 7, 0, 1, 2, 3]",/,2500,3000,0,8,252.7587515,1024,2,48000,-16,main,"[(0, -252), (178, -178), (252, 0), (178, 178), (0, 252), (-178, 178), (-252, 0), (-178, -178)]",[],37,odd,2,NA,120143,161724,161724,25448,24438,1941,39232,39232,1941,1941,36174,280893,1940,161724,279233,278265,278265,NA,959,study_X,0,10726,1,yes,1680
undefined,undefined,NA,NA,NA,10726,10726,black,no,legacy,legacy,legacy,0,red,"(177, 0, 0)",color,absent,lowProb6,rectangular,same,same,swap,same,red,"(177, 0, 0)",lowProb,lowProb2,rectangular,uniform,1,undefined,0,0.192708333,1,1,314.515625,1,37,60387,0,0,0,0,0,0,0,0,65,0,1,0.192708333,314.515625,37,60387,64,64,64,11/27/2018 14:25,Default description,yes,<openexp._canvas.legacy.Legacy object at 0x05312690>,<openexp._canvas.legacy.Legacy object at 0x05326BD0>,<openexp._canvas.legacy.Legacy object at 0x050C7430>,<openexp._canvas.legacy.Legacy object at 0x050BFA10>,<openexp._canvas.legacy.Legacy object at 0x050A2290>,<openexp._canvas.legacy.Legacy object at 0x05308350>,<openexp._canvas.legacy.Legacy object at 0x0531C5B0>,<openexp._canvas.legacy.Legacy object at 0x050D9610>,75,SpatProbMultiple3.osexp,C:/Userdata/Michel/SpatProbMultiple3,no,mono,no,18,no,white,no,yes,0.09,98,1050,legacy,315,39,39,1,C:/Userdata/Michel/SpatProbMultiple3/beh/subject-13.csv,legacy,9,192,25,Kafkaesque Koffka,3.2.5,yes,598477b2b83f69022949e7e9,47,red,rectangular,red,rectangular,0,/,2307,space,10726,10726,"(80, 80, 80)","(0, 123, 0)","(177, 0, 0)","(155, 155, 155)",2,legacy,experiment,"[4, 5, 6, 7, 0, 1, 2, 3]",/,2500,3000,0,8,252.7587515,1024,2,48000,-16,main,"[(0, -252), (178, -178), (252, 0), (178, 178), (0, 252), (-178, 178), (-252, 0), (-178, -178)]",[],37,odd,6,NA,120143,161724,161724,25448,24438,1941,39232,39232,1941,1941,36174,284612,1940,161724,282303,281336,281336,NA,959,study_X,0,10726,1,yes,1680
undefined,undefined,NA,NA,NA,10726,10726,black,no,legacy,legacy,legacy,0,green,"(0, 123, 0)",color,present,highProb,rectangular,swap,same,same,same,red,"(177, 0, 0)",highProbShape,highProbShape,rectangular,uniform,1,undefined,0,0.197916667,1,1,320.1927083,1,38,61477,0,0,0,0,0,0,0,0,66,0,1,0.197916667,320.1927083,38,61477,65,65,65,11/27/2018 14:25,Default description,yes,<openexp._canvas.legacy.Legacy object at 0x05312690>,<openexp._canvas.legacy.Legacy object at 0x05326BD0>,<openexp._canvas.legacy.Legacy object at 0x050C7430>,<openexp._canvas.legacy.Legacy object at 0x050BFA10>,<openexp._canvas.legacy.Legacy object at 0x050A2290>,<openexp._canvas.legacy.Legacy object at 0x05308350>,<openexp._canvas.legacy.Legacy object at 0x052F4530>,<openexp._canvas.legacy.Legacy object at 0x050D9610>,75,SpatProbMultiple3.osexp,C:/Userdata/Michel/SpatProbMultiple3,no,mono,no,18,no,white,no,yes,0.09,98,1050,legacy,45,40,40,1,C:/Userdata/Michel/SpatProbMultiple3/beh/subject-13.csv,legacy,9,192,25,Kafkaesque Koffka,3.2.5,yes,598477b2b83f69022949e7e9,47,green,rectangular,red,rectangular,0,\,1090,space,10726,10726,"(80, 80, 80)","(0, 123, 0)","(177, 0, 0)","(155, 155, 155)",2,legacy,experiment,"[4, 5, 6, 7, 0, 1, 2, 3]",\,2500,3000,0,8,252.7587515,1024,2,48000,-16,main,"[(0, -252), (178, -178), (252, 0), (178, 178), (0, 252), (-178, 178), (-252, 0), (-178, -178)]",[],37,odd,0,NA,120143,161724,161724,25448,24438,1941,39232,39232,1941,1941,36174,287132,1940,161724,286039,285070,285070,NA,959,study_X,0,10726,1,yes,1680
undefined,undefined,NA,NA,NA,10726,10726,black,no,legacy,legacy,legacy,0,green,"(0, 123, 0)",color,present,lowProb3,circular,same,swap,same,swap,red,"(177, 0, 0)",lowProb,lowProb6,circular,uniform,0,undefined,0,0.197916667,1,1,333.2135417,1,38,63977,0,0,0,0,0,0,0,0,67,0,1,0.197916667,333.2135417,38,63977,66,66,66,11/27/2018 14:25,Default description,yes,<openexp._canvas.legacy.Legacy object at 0x05312690>,<openexp._canvas.legacy.Legacy object at 0x05326BD0>,<openexp._canvas.legacy.Legacy object at 0x050C7430>,<openexp._canvas.legacy.Legacy object at 0x050BFA10>,<openexp._canvas.legacy.Legacy object at 0x050A2290>,<openexp._canvas.legacy.Legacy object at 0x05308350>,<openexp._canvas.legacy.Legacy object at 0x05333770>,<openexp._canvas.legacy.Legacy object at 0x050D9610>,75,SpatProbMultiple3.osexp,C:/Userdata/Michel/SpatProbMultiple3,no,mono,no,18,no,white,no,yes,0.09,98,1050,legacy,315,41,41,1,C:/Userdata/Michel/SpatProbMultiple3/beh/subject-13.csv,legacy,9,192,25,Kafkaesque Koffka,3.2.5,yes,598477b2b83f69022949e7e9,47,green,circular,red,circular,0,None,2500,space,10726,10726,"(80, 80, 80)","(0, 123, 0)","(177, 0, 0)","(155, 155, 155)",2,legacy,experiment,"[4, 5, 6, 7, 0, 1, 2, 3]",/,2500,3000,0,8,252.7587515,1024,2,48000,-16,main,"[(0, -252), (178, -178), (252, 0), (178, 178), (0, 252), (-178, 178), (-252, 0), (-178, -178)]",[],37,odd,3,NA,120143,161724,161724,25448,24438,1941,39232,39232,1941,1941,36174,291071,1940,161724,288569,287603,287603,NA,959,study_X,0,10726,1,yes,1680
undefined,undefined,NA,NA,NA,10726,10726,black,no,legacy,legacy,legacy,0,red,"(177, 0, 0)",color,present,lowProb6,rectangular,swap,swap,swap,swap,green,"(0, 123, 0)",highProbShape,highProbShape,rectangular,uniform,1,undefined,0,0.203125,1,1,338.8333333,1,39,65056,0,0,0,0,0,0,0,0,68,0,1,0.203125,338.8333333,39,65056,67,67,67,11/27/2018 14:25,Default description,yes,<openexp._canvas.legacy.Legacy object at 0x05312690>,<openexp._canvas.legacy.Legacy object at 0x05326BD0>,<openexp._canvas.legacy.Legacy object at 0x050C7430>,<openexp._canvas.legacy.Legacy object at 0x050BFA10>,<openexp._canvas.legacy.Legacy object at 0x050A2290>,<openexp._canvas.legacy.Legacy object at 0x05308350>,<openexp._canvas.legacy.Legacy object at 0x0531C430>,<openexp._canvas.legacy.Legacy object at 0x050D9610>,75,SpatProbMultiple3.osexp,C:/Userdata/Michel/SpatProbMultiple3,no,mono,no,18,no,white,no,yes,0.09,98,1050,legacy,315,42,42,1,C:/Userdata/Michel/SpatProbMultiple3/beh/subject-13.csv,legacy,9,192,25,Kafkaesque Koffka,3.2.5,yes,598477b2b83f69022949e7e9,47,red,rectangular,green,rectangular,0,/,1079,space,10726,10726,"(80, 80, 80)","(0, 123, 0)","(177, 0, 0)","(155, 155, 155)",2,legacy,experiment,"[4, 5, 6, 7, 0, 1, 2, 3]",/,2500,3000,0,8,252.7587515,1024,2,48000,-16,main,"[(0, -252), (178, -178), (252, 0), (178, 178), (0, 252), (-178, 178), (-252, 0), (-178, -178)]",[],37,odd,0,NA,120143,161724,161724,25448,24438,1941,39232,39232,1941,1941,36174,293564,1940,161724,292481,291512,291512,NA,959,study_X,0,10726,1,yes,1680
undefined,undefined,NA,NA,NA,10726,10726,black,no,legacy,legacy,legacy,0,green,"(0, 123, 0)",shape,present,lowProb4,circular,swap,swap,same,same,green,"(0, 123, 0)",highProbColor,highProbColor,rectangular,uniform,1,undefined,0,0.208333333,1,1,346.6666667,1,40,66560,0,0,0,0,0,0,0,0,69,0,1,0.208333333,346.6666667,40,66560,68,68,68,11/27/2018 14:25,Default description,yes,<openexp._canvas.legacy.Legacy object at 0x05312690>,<openexp._canvas.legacy.Legacy object at 0x05326BD0>,<openexp._canvas.legacy.Legacy object at 0x050C7430>,<openexp._canvas.legacy.Legacy object at 0x050BFA10>,<openexp._canvas.legacy.Legacy object at 0x050A2290>,<openexp._canvas.legacy.Legacy object at 0x05308350>,<openexp._canvas.legacy.Legacy object at 0x05337B50>,<openexp._canvas.legacy.Legacy object at 0x050D9610>,75,SpatProbMultiple3.osexp,C:/Userdata/Michel/SpatProbMultiple3,no,mono,no,18,no,white,no,yes,0.09,98,1050,legacy,45,43,43,1,C:/Userdata/Michel/SpatProbMultiple3/beh/subject-13.csv,legacy,9,192,25,Kafkaesque Koffka,3.2.5,yes,598477b2b83f69022949e7e9,47,green,circular,green,rectangular,0,\,1504,space,10726,10726,"(80, 80, 80)","(0, 123, 0)","(177, 0, 0)","(155, 155, 155)",2,legacy,experiment,"[4, 5, 6, 7, 0, 1, 2, 3]",\,2500,3000,0,8,252.7587515,1024,2,48000,-16,main,"[(0, -252), (178, -178), (252, 0), (178, 178), (0, 252), (-178, 178), (-252, 0), (-178, -178)]",[],37,odd,4,NA,120143,161724,161724,25448,24438,1941,39232,39232,1941,1941,36174,296500,1940,161724,294993,294026,294026,NA,959,study_X,0,10726,1,yes,1680
undefined,undefined,NA,NA,NA,10726,10726,black,no,legacy,legacy,legacy,0,red,"(177, 0, 0)",shape,present,lowProb2,circular,swap,same,swap,same,red,"(177, 0, 0)",highProbShape,highProbShape,rectangular,uniform,1,undefined,0,0.213541667,1,1,352.2239583,1,41,67627,0,0,0,0,0,0,0,0,70,0,1,0.213541667,352.2239583,41,67627,69,69,69,11/27/2018 14:25,Default description,yes,<openexp._canvas.legacy.Legacy object at 0x05312690>,<openexp._canvas.legacy.Legacy object at 0x05326BD0>,<openexp._canvas.legacy.Legacy object at 0x050C7430>,<openexp._canvas.legacy.Legacy object at 0x050BFA10>,<openexp._canvas.legacy.Legacy object at 0x050A2290>,<openexp._canvas.legacy.Legacy object at 0x05308350>,<openexp._canvas.legacy.Legacy object at 0x05333D50>,<openexp._canvas.legacy.Legacy object at 0x050D9610>,75,SpatProbMultiple3.osexp,C:/Userdata/Michel/SpatProbMultiple3,no,mono,no,18,no,white,no,yes,0.09,98,1050,legacy,45,44,44,1,C:/Userdata/Michel/SpatProbMultiple3/beh/subject-13.csv,legacy,9,192,25,Kafkaesque Koffka,3.2.5,yes,598477b2b83f69022949e7e9,47,red,circular,red,rectangular,0,\,1067,space,10726,10726,"(80, 80, 80)","(0, 123, 0)","(177, 0, 0)","(155, 155, 155)",2,legacy,experiment,"[4, 5, 6, 7, 0, 1, 2, 3]",\,2500,3000,0,8,252.7587515,1024,2,48000,-16,main,"[(0, -252), (178, -178), (252, 0), (178, 178), (0, 252), (-178, 178), (-252, 0), (-178, -178)]",[],37,odd,0,NA,120143,161724,161724,25448,24438,1941,39232,39232,1941,1941,36174,298996,1940,161724,297927,296958,296958,NA,959,study_X,0,10726,1,yes,1680
undefined,undefined,NA,NA,NA,10726,10726,black,no,legacy,legacy,legacy,0,red,"(177, 0, 0)",color,absent,lowProb3,circular,same,same,same,swap,red,"(177, 0, 0)",highProbColor,highProbColor,circular,uniform,0,undefined,0,0.213541667,1,1,365.2447917,1,41,70127,0,0,0,0,0,0,0,0,71,0,1,0.213541667,365.2447917,41,70127,70,70,70,11/27/2018 14:25,Default description,yes,<openexp._canvas.legacy.Legacy object at 0x05312690>,<openexp._canvas.legacy.Legacy object at 0x05326BD0>,<openexp._canvas.legacy.Legacy object at 0x050C7430>,<openexp._canvas.legacy.Legacy object at 0x050BFA10>,<openexp._canvas.legacy.Legacy object at 0x050A2290>,<openexp._canvas.legacy.Legacy object at 0x05308350>,<openexp._canvas.legacy.Legacy object at 0x05337650>,<openexp._canvas.legacy.Legacy object at 0x050D9610>,75,SpatProbMultiple3.osexp,C:/Userdata/Michel/SpatProbMultiple3,no,mono,no,18,no,white,no,yes,0.09,98,1050,legacy,45,45,45,1,C:/Userdata/Michel/SpatProbMultiple3/beh/subject-13.csv,legacy,9,192,25,Kafkaesque Koffka,3.2.5,yes,598477b2b83f69022949e7e9,47,red,circular,red,circular,0,None,2500,space,10726,10726,"(80, 80, 80)","(0, 123, 0)","(177, 0, 0)","(155, 155, 155)",2,legacy,experiment,"[4, 5, 6, 7, 0, 1, 2, 3]",\,2500,3000,0,8,252.7587515,1024,2,48000,-16,main,"[(0, -252), (178, -178), (252, 0), (178, 178), (0, 252), (-178, 178), (-252, 0), (-178, -178)]",[],37,odd,4,NA,120143,161724,161724,25448,24438,1941,39232,39232,1941,1941,36174,302929,1940,161724,300426,299457,299457,NA,959,study_X,0,10726,1,yes,1680
undefined,undefined,NA,NA,NA,10726,10726,black,no,legacy,legacy,legacy,0,green,"(0, 123, 0)",shape,present,highProb,rectangular,swap,swap,swap,same,green,"(0, 123, 0)",lowProb,lowProb5,circular,uniform,1,undefined,0,0.21875,1,1,376.671875,1,42,72321,0,0,0,0,0,0,0,0,72,0,1,0.21875,376.671875,42,72321,71,71,71,11/27/2018 14:25,Default description,yes,<openexp._canvas.legacy.Legacy object at 0x05312690>,<openexp._canvas.legacy.Legacy object at 0x05326BD0>,<openexp._canvas.legacy.Legacy object at 0x050C7430>,<openexp._canvas.legacy.Legacy object at 0x050BFA10>,<openexp._canvas.legacy.Legacy object at 0x050A2290>,<openexp._canvas.legacy.Legacy object at 0x05308350>,<openexp._canvas.legacy.Legacy object at 0x05326590>,<openexp._canvas.legacy.Legacy object at 0x050D9610>,75,SpatProbMultiple3.osexp,C:/Userdata/Michel/SpatProbMultiple3,no,mono,no,18,no,white,no,yes,0.09,98,1050,legacy,45,46,46,1,C:/Userdata/Michel/SpatProbMultiple3/beh/subject-13.csv,legacy,9,192,25,Kafkaesque Koffka,3.2.5,yes,598477b2b83f69022949e7e9,47,green,rectangular,green,circular,0,\,2194,space,10726,10726,"(80, 80, 80)","(0, 123, 0)","(177, 0, 0)","(155, 155, 155)",2,legacy,experiment,"[4, 5, 6, 7, 0, 1, 2, 3]",\,2500,3000,0,8,252.7587515,1024,2,48000,-16,main,"[(0, -252), (178, -178), (252, 0), (178, 178), (0, 252), (-178, 178), (-252, 0), (-178, -178)]",[],37,odd,2,NA,120143,161724,161724,25448,24438,1941,39232,39232,1941,1941,36174,306548,1940,161724,304351,303384,303384,NA,959,study_X,0,10726,1,yes,1680
undefined,undefined,NA,NA,NA,10726,10726,black,no,legacy,legacy,legacy,0,green,"(0, 123, 0)",color,present,highProb,circular,same,swap,swap,same,red,"(177, 0, 0)",highProbShape,highProbShape,circular,uniform,1,undefined,0,0.223958333,1,1,385.921875,1,43,74097,0,0,0,0,0,0,0,0,73,0,1,0.223958333,385.921875,43,74097,72,72,72,11/27/2018 14:25,Default description,yes,<openexp._canvas.legacy.Legacy object at 0x05312690>,<openexp._canvas.legacy.Legacy object at 0x05326BD0>,<openexp._canvas.legacy.Legacy object at 0x050C7430>,<openexp._canvas.legacy.Legacy object at 0x050BFA10>,<openexp._canvas.legacy.Legacy object at 0x050A2290>,<openexp._canvas.legacy.Legacy object at 0x05308350>,<openexp._canvas.legacy.Legacy object at 0x05349C10>,<openexp._canvas.legacy.Legacy object at 0x050D9610>,75,SpatProbMultiple3.osexp,C:/Userdata/Michel/SpatProbMultiple3,no,mono,no,18,no,white,no,yes,0.09,98,1050,legacy,315,47,47,1,C:/Userdata/Michel/SpatProbMultiple3/beh/subject-13.csv,legacy,9,192,25,Kafkaesque Koffka,3.2.5,yes,598477b2b83f69022949e7e9,47,green,circular,red,circular,0,/,1776,space,10726,10726,"(80, 80, 80)","(0, 123, 0)","(177, 0, 0)","(155, 155, 155)",2,legacy,experiment,"[4, 5, 6, 7, 0, 1, 2, 3]",/,2500,3000,0,8,252.7587515,1024,2,48000,-16,main,"[(0, -252), (178, -178), (252, 0), (178, 178), (0, 252), (-178, 178), (-252, 0), (-178, -178)]",[],37,odd,0,NA,120143,161724,161724,25448,24438,1941,39232,39232,1941,1941,36174,309756,1940,161724,307976,307009,307009,NA,959,study_X,0,10726,1,yes,1680
undefined,undefined,NA,NA,NA,10726,10726,black,no,legacy,legacy,legacy,0,red,"(177, 0, 0)",shape,present,lowProb2,circular,swap,same,same,swap,red,"(177, 0, 0)",lowProb,lowProb3,rectangular,uniform,1,undefined,0,0.229166667,1,1,396.8697917,1,44,76199,0,0,0,0,0,0,0,0,74,0,1,0.229166667,396.8697917,44,76199,73,73,73,11/27/2018 14:25,Default description,yes,<openexp._canvas.legacy.Legacy object at 0x05312690>,<openexp._canvas.legacy.Legacy object at 0x05326BD0>,<openexp._canvas.legacy.Legacy object at 0x050C7430>,<openexp._canvas.legacy.Legacy object at 0x050BFA10>,<openexp._canvas.legacy.Legacy object at 0x050A2290>,<openexp._canvas.legacy.Legacy object at 0x05308350>,<openexp._canvas.legacy.Legacy object at 0x0539CE30>,<openexp._canvas.legacy.Legacy object at 0x050D9610>,75,SpatProbMultiple3.osexp,C:/Userdata/Michel/SpatProbMultiple3,no,mono,no,18,no,white,no,yes,0.09,98,1050,legacy,45,48,48,1,C:/Userdata/Michel/SpatProbMultiple3/beh/subject-13.csv,legacy,9,192,25,Kafkaesque Koffka,3.2.5,yes,598477b2b83f69022949e7e9,47,red,circular,red,rectangular,0,\,2102,space,10726,10726,"(80, 80, 80)","(0, 123, 0)","(177, 0, 0)","(155, 155, 155)",2,legacy,experiment,"[4, 5, 6, 7, 0, 1, 2, 3]",\,2500,3000,0,8,252.7587515,1024,2,48000,-16,main,"[(0, -252), (178, -178), (252, 0), (178, 178), (0, 252), (-178, 178), (-252, 0), (-178, -178)]",[],37,odd,7,NA,120143,161724,161724,25448,24438,1941,39232,39232,1941,1941,36174,313284,1940,161724,311180,310211,310212,NA,959,study_X,0,10726,1,yes,1680
undefined,undefined,NA,NA,NA,10726,10726,black,no,legacy,legacy,legacy,0,red,"(177, 0, 0)",shape,present,highProb,rectangular,same,swap,same,swap,red,"(177, 0, 0)",lowProb,lowProb6,circular,uniform,1,undefined,0,0.234375,1,1,404.6354167,1,45,77690,0,0,0,0,0,0,0,0,75,0,1,0.234375,404.6354167,45,77690,74,74,74,11/27/2018 14:25,Default description,yes,<openexp._canvas.legacy.Legacy object at 0x05312690>,<openexp._canvas.legacy.Legacy object at 0x05326BD0>,<openexp._canvas.legacy.Legacy object at 0x050C7430>,<openexp._canvas.legacy.Legacy object at 0x050BFA10>,<openexp._canvas.legacy.Legacy object at 0x050A2290>,<openexp._canvas.legacy.Legacy object at 0x05308350>,<openexp._canvas.legacy.Legacy object at 0x0533DA50>,<openexp._canvas.legacy.Legacy object at 0x050D9610>,75,SpatProbMultiple3.osexp,C:/Userdata/Michel/SpatProbMultiple3,no,mono,no,18,no,white,no,yes,0.09,98,1050,legacy,45,49,49,1,C:/Userdata/Michel/SpatProbMultiple3/beh/subject-13.csv,legacy,9,192,25,Kafkaesque Koffka,3.2.5,yes,598477b2b83f69022949e7e9,47,red,rectangular,red,circular,0,\,1491,space,10726,10726,"(80, 80, 80)","(0, 123, 0)","(177, 0, 0)","(155, 155, 155)",2,legacy,experiment,"[4, 5, 6, 7, 0, 1, 2, 3]",\,2500,3000,0,8,252.7587515,1024,2,48000,-16,main,"[(0, -252), (178, -178), (252, 0), (178, 178), (0, 252), (-178, 178), (-252, 0), (-178, -178)]",[],37,odd,3,NA,120143,161724,161724,25448,24438,1941,39232,39232,1941,1941,36174,316196,1940,161724,314703,313736,313736,NA,959,study_X,0,10726,1,yes,1680
undefined,undefined,NA,NA,NA,10726,10726,black,no,legacy,legacy,legacy,0,red,"(177, 0, 0)",color,present,highProb,rectangular,same,same,swap,swap,green,"(0, 123, 0)",highProbShape,highProbShape,rectangular,uniform,1,undefined,0,0.239583333,1,1,409.75,1,46,78672,0,0,0,0,0,0,0,0,76,0,1,0.239583333,409.75,46,78672,75,75,75,11/27/2018 14:25,Default description,yes,<openexp._canvas.legacy.Legacy object at 0x05312690>,<openexp._canvas.legacy.Legacy object at 0x05326BD0>,<openexp._canvas.legacy.Legacy object at 0x050C7430>,<openexp._canvas.legacy.Legacy object at 0x050BFA10>,<openexp._canvas.legacy.Legacy object at 0x050A2290>,<openexp._canvas.legacy.Legacy object at 0x05308350>,<openexp._canvas.legacy.Legacy object at 0x05349670>,<openexp._canvas.legacy.Legacy object at 0x050D9610>,75,SpatProbMultiple3.osexp,C:/Userdata/Michel/SpatProbMultiple3,no,mono,no,18,no,white,no,yes,0.09,98,1050,legacy,45,50,50,1,C:/Userdata/Michel/SpatProbMultiple3/beh/subject-13.csv,legacy,9,192,25,Kafkaesque Koffka,3.2.5,yes,598477b2b83f69022949e7e9,47,red,rectangular,green,rectangular,0,\,982,space,10726,10726,"(80, 80, 80)","(0, 123, 0)","(177, 0, 0)","(155, 155, 155)",2,legacy,experiment,"[4, 5, 6, 7, 0, 1, 2, 3]",\,2500,3000,0,8,252.7587515,1024,2,48000,-16,main,"[(0, -252), (178, -178), (252, 0), (178, 178), (0, 252), (-178, 178), (-252, 0), (-178, -178)]",[],37,odd,0,NA,120143,161724,161724,25448,24438,1941,39232,39232,1941,1941,36174,318604,1940,161724,317619,316650,316650,NA,959,study_X,0,10726,1,yes,1680
undefined,undefined,NA,NA,NA,10726,10726,black,no,legacy,legacy,legacy,0,green,"(0, 123, 0)",color,present,lowProb4,circular,swap,swap,swap,swap,red,"(177, 0, 0)",lowProb,lowProb3,circular,uniform,1,undefined,0,0.244791667,1,1,417.7291667,1,47,80204,0,0,0,0,0,0,0,0,77,0,1,0.244791667,417.7291667,47,80204,76,76,76,11/27/2018 14:25,Default description,yes,<openexp._canvas.legacy.Legacy object at 0x05312690>,<openexp._canvas.legacy.Legacy object at 0x05326BD0>,<openexp._canvas.legacy.Legacy object at 0x050C7430>,<openexp._canvas.legacy.Legacy object at 0x050BFA10>,<openexp._canvas.legacy.Legacy object at 0x050A2290>,<openexp._canvas.legacy.Legacy object at 0x05308350>,<openexp._canvas.legacy.Legacy object at 0x05312F90>,<openexp._canvas.legacy.Legacy object at 0x050D9610>,75,SpatProbMultiple3.osexp,C:/Userdata/Michel/SpatProbMultiple3,no,mono,no,18,no,white,no,yes,0.09,98,1050,legacy,315,51,51,1,C:/Userdata/Michel/SpatProbMultiple3/beh/subject-13.csv,legacy,9,192,25,Kafkaesque Koffka,3.2.5,yes,598477b2b83f69022949e7e9,47,green,circular,red,circular,0,/,1532,space,10726,10726,"(80, 80, 80)","(0, 123, 0)","(177, 0, 0)","(155, 155, 155)",2,legacy,experiment,"[4, 5, 6, 7, 0, 1, 2, 3]",/,2500,3000,0,8,252.7587515,1024,2,48000,-16,main,"[(0, -252), (178, -178), (252, 0), (178, 178), (0, 252), (-178, 178), (-252, 0), (-178, -178)]",[],37,odd,7,NA,120143,161724,161724,25448,24438,1941,39232,39232,1941,1941,36174,321564,1940,161724,320028,319060,319060,NA,959,study_X,0,10726,1,yes,1680
undefined,undefined,NA,NA,NA,10726,10726,black,no,legacy,legacy,legacy,0,green,"(0, 123, 0)",shape,present,lowProb3,rectangular,same,swap,swap,same,green,"(0, 123, 0)",lowProb,lowProb6,circular,uniform,1,undefined,0,0.25,1,1,425.9270833,1,48,81778,0,0,0,0,0,0,0,0,78,0,1,0.25,425.9270833,48,81778,77,77,77,11/27/2018 14:25,Default description,yes,<openexp._canvas.legacy.Legacy object at 0x05312690>,<openexp._canvas.legacy.Legacy object at 0x05326BD0>,<openexp._canvas.legacy.Legacy object at 0x050C7430>,<openexp._canvas.legacy.Legacy object at 0x050BFA10>,<openexp._canvas.legacy.Legacy object at 0x050A2290>,<openexp._canvas.legacy.Legacy object at 0x05308350>,<openexp._canvas.legacy.Legacy object at 0x0533D390>,<openexp._canvas.legacy.Legacy object at 0x050D9610>,75,SpatProbMultiple3.osexp,C:/Userdata/Michel/SpatProbMultiple3,no,mono,no,18,no,white,no,yes,0.09,98,1050,legacy,315,52,52,1,C:/Userdata/Michel/SpatProbMultiple3/beh/subject-13.csv,legacy,9,192,25,Kafkaesque Koffka,3.2.5,yes,598477b2b83f69022949e7e9,47,green,rectangular,green,circular,0,/,1574,space,10726,10726,"(80, 80, 80)","(0, 123, 0)","(177, 0, 0)","(155, 155, 155)",2,legacy,experiment,"[4, 5, 6, 7, 0, 1, 2, 3]",/,2500,3000,0,8,252.7587515,1024,2,48000,-16,main,"[(0, -252), (178, -178), (252, 0), (178, 178), (0, 252), (-178, 178), (-252, 0), (-178, -178)]",[],37,odd,3,NA,120143,161724,161724,25448,24438,1941,39232,39232,1941,1941,36174,324572,1940,161724,322994,322025,322025,NA,959,study_X,0,10726,1,yes,1680
undefined,undefined,NA,NA,NA,10726,10726,black,no,legacy,legacy,legacy,0,green,"(0, 123, 0)",color,present,lowProb2,circular,same,swap,swap,same,red,"(177, 0, 0)",lowProb,lowProb6,circular,uniform,0,undefined,0,0.25,1,1,438.9479167,1,48,84278,0,0,0,0,0,0,0,0,79,0,1,0.25,438.9479167,48,84278,78,78,78,11/27/2018 14:25,Default description,yes,<openexp._canvas.legacy.Legacy object at 0x05312690>,<openexp._canvas.legacy.Legacy object at 0x05326BD0>,<openexp._canvas.legacy.Legacy object at 0x050C7430>,<openexp._canvas.legacy.Legacy object at 0x050BFA10>,<openexp._canvas.legacy.Legacy object at 0x050A2290>,<openexp._canvas.legacy.Legacy object at 0x05308350>,<openexp._canvas.legacy.Legacy object at 0x053331F0>,<openexp._canvas.legacy.Legacy object at 0x050D9610>,75,SpatProbMultiple3.osexp,C:/Userdata/Michel/SpatProbMultiple3,no,mono,no,18,no,white,no,yes,0.09,98,1050,legacy,45,53,53,1,C:/Userdata/Michel/SpatProbMultiple3/beh/subject-13.csv,legacy,9,192,25,Kafkaesque Koffka,3.2.5,yes,598477b2b83f69022949e7e9,47,green,circular,red,circular,0,None,2500,space,10726,10726,"(80, 80, 80)","(0, 123, 0)","(177, 0, 0)","(155, 155, 155)",2,legacy,experiment,"[4, 5, 6, 7, 0, 1, 2, 3]",\,2500,3000,0,8,252.7587515,1024,2,48000,-16,main,"[(0, -252), (178, -178), (252, 0), (178, 178), (0, 252), (-178, 178), (-252, 0), (-178, -178)]",[],37,odd,3,NA,120143,161724,161724,25448,24438,1941,39232,39232,1941,1941,36174,328508,1940,161724,326006,325037,325037,NA,959,study_X,0,10726,1,yes,1680
undefined,undefined,NA,NA,NA,10726,10726,black,no,legacy,legacy,legacy,0,green,"(0, 123, 0)",shape,present,highProb,rectangular,same,swap,swap,same,green,"(0, 123, 0)",lowProb,lowProb3,circular,uniform,0,undefined,0,0.25,1,1,451.96875,1,48,86778,0,0,0,0,0,0,0,0,80,0,1,0.25,451.96875,48,86778,79,79,79,11/27/2018 14:25,Default description,yes,<openexp._canvas.legacy.Legacy object at 0x05312690>,<openexp._canvas.legacy.Legacy object at 0x05326BD0>,<openexp._canvas.legacy.Legacy object at 0x050C7430>,<openexp._canvas.legacy.Legacy object at 0x050BFA10>,<openexp._canvas.legacy.Legacy object at 0x050A2290>,<openexp._canvas.legacy.Legacy object at 0x05308350>,<openexp._canvas.legacy.Legacy object at 0x05319AB0>,<openexp._canvas.legacy.Legacy object at 0x050D9610>,75,SpatProbMultiple3.osexp,C:/Userdata/Michel/SpatProbMultiple3,no,mono,no,18,no,white,no,yes,0.09,98,1050,legacy,315,54,54,1,C:/Userdata/Michel/SpatProbMultiple3/beh/subject-13.csv,legacy,9,192,25,Kafkaesque Koffka,3.2.5,yes,598477b2b83f69022949e7e9,47,green,rectangular,green,circular,0,None,2500,space,10726,10726,"(80, 80, 80)","(0, 123, 0)","(177, 0, 0)","(155, 155, 155)",2,legacy,experiment,"[4, 5, 6, 7, 0, 1, 2, 3]",/,2500,3000,0,8,252.7587515,1024,2,48000,-16,main,"[(0, -252), (178, -178), (252, 0), (178, 178), (0, 252), (-178, 178), (-252, 0), (-178, -178)]",[],37,odd,7,NA,120143,161724,161724,25448,24438,1941,39232,39232,1941,1941,36174,332435,1940,161724,329933,328964,328964,NA,959,study_X,0,10726,1,yes,1680
undefined,undefined,NA,NA,NA,10726,10726,black,no,legacy,legacy,legacy,0,green,"(0, 123, 0)",shape,present,highProb,circular,same,swap,same,swap,green,"(0, 123, 0)",lowProb,lowProb2,rectangular,uniform,0,undefined,0,0.25,1,1,464.9895833,1,48,89278,0,0,0,0,0,0,0,0,81,0,1,0.25,464.9895833,48,89278,80,80,80,11/27/2018 14:25,Default description,yes,<openexp._canvas.legacy.Legacy object at 0x05312690>,<openexp._canvas.legacy.Legacy object at 0x05326BD0>,<openexp._canvas.legacy.Legacy object at 0x050C7430>,<openexp._canvas.legacy.Legacy object at 0x050BFA10>,<openexp._canvas.legacy.Legacy object at 0x050A2290>,<openexp._canvas.legacy.Legacy object at 0x05308350>,<openexp._canvas.legacy.Legacy object at 0x0533DCB0>,<openexp._canvas.legacy.Legacy object at 0x050D9610>,75,SpatProbMultiple3.osexp,C:/Userdata/Michel/SpatProbMultiple3,no,mono,no,18,no,white,no,yes,0.09,98,1050,legacy,315,55,55,1,C:/Userdata/Michel/SpatProbMultiple3/beh/subject-13.csv,legacy,9,192,25,Kafkaesque Koffka,3.2.5,yes,598477b2b83f69022949e7e9,47,green,circular,green,rectangular,0,None,2500,space,10726,10726,"(80, 80, 80)","(0, 123, 0)","(177, 0, 0)","(155, 155, 155)",2,legacy,experiment,"[4, 5, 6, 7, 0, 1, 2, 3]",/,2500,3000,0,8,252.7587515,1024,2,48000,-16,main,"[(0, -252), (178, -178), (252, 0), (178, 178), (0, 252), (-178, 178), (-252, 0), (-178, -178)]",[],37,odd,6,NA,120143,161724,161724,25448,24438,1941,39232,39232,1941,1941,36174,336363,1940,161724,333860,332891,332891,NA,959,study_X,0,10726,1,yes,1680
undefined,undefined,NA,NA,NA,10726,10726,black,no,legacy,legacy,legacy,0,red,"(177, 0, 0)",color,present,highProb,rectangular,swap,swap,same,same,green,"(0, 123, 0)",lowProb,lowProb2,rectangular,uniform,1,undefined,0,0.255208333,1,1,471.953125,1,49,90615,0,0,0,0,0,0,0,0,82,0,1,0.255208333,471.953125,49,90615,81,81,81,11/27/2018 14:25,Default description,yes,<openexp._canvas.legacy.Legacy object at 0x05312690>,<openexp._canvas.legacy.Legacy object at 0x05326BD0>,<openexp._canvas.legacy.Legacy object at 0x050C7430>,<openexp._canvas.legacy.Legacy object at 0x050BFA10>,<openexp._canvas.legacy.Legacy object at 0x050A2290>,<openexp._canvas.legacy.Legacy object at 0x05308350>,<openexp._canvas.legacy.Legacy object at 0x05326150>,<openexp._canvas.legacy.Legacy object at 0x050D9610>,75,SpatProbMultiple3.osexp,C:/Userdata/Michel/SpatProbMultiple3,no,mono,no,18,no,white,no,yes,0.09,98,1050,legacy,45,56,56,1,C:/Userdata/Michel/SpatProbMultiple3/beh/subject-13.csv,legacy,9,192,25,Kafkaesque Koffka,3.2.5,yes,598477b2b83f69022949e7e9,47,red,rectangular,green,rectangular,0,\,1337,space,10726,10726,"(80, 80, 80)","(0, 123, 0)","(177, 0, 0)","(155, 155, 155)",2,legacy,experiment,"[4, 5, 6, 7, 0, 1, 2, 3]",\,2500,3000,0,8,252.7587515,1024,2,48000,-16,main,"[(0, -252), (178, -178), (252, 0), (178, 178), (0, 252), (-178, 178), (-252, 0), (-178, -178)]",[],37,odd,6,NA,120143,161724,161724,25448,24438,1941,39232,39232,1941,1941,36174,339132,1940,161724,337792,336823,336823,NA,959,study_X,0,10726,1,yes,1680
undefined,undefined,NA,NA,NA,10726,10726,black,no,legacy,legacy,legacy,0,green,"(0, 123, 0)",shape,present,highProb,rectangular,swap,same,same,swap,green,"(0, 123, 0)",lowProb,lowProb5,circular,uniform,1,undefined,0,0.260416667,1,1,483.2135417,1,50,92777,0,0,0,0,0,0,0,0,83,0,1,0.260416667,483.2135417,50,92777,82,82,82,11/27/2018 14:25,Default description,yes,<openexp._canvas.legacy.Legacy object at 0x05312690>,<openexp._canvas.legacy.Legacy object at 0x05326BD0>,<openexp._canvas.legacy.Legacy object at 0x050C7430>,<openexp._canvas.legacy.Legacy object at 0x050BFA10>,<openexp._canvas.legacy.Legacy object at 0x050A2290>,<openexp._canvas.legacy.Legacy object at 0x05308350>,<openexp._canvas.legacy.Legacy object at 0x053498F0>,<openexp._canvas.legacy.Legacy object at 0x050D9610>,75,SpatProbMultiple3.osexp,C:/Userdata/Michel/SpatProbMultiple3,no,mono,no,18,no,white,no,yes,0.09,98,1050,legacy,315,57,57,1,C:/Userdata/Michel/SpatProbMultiple3/beh/subject-13.csv,legacy,9,192,25,Kafkaesque Koffka,3.2.5,yes,598477b2b83f69022949e7e9,47,green,rectangular,green,circular,0,/,2162,space,10726,10726,"(80, 80, 80)","(0, 123, 0)","(177, 0, 0)","(155, 155, 155)",2,legacy,experiment,"[4, 5, 6, 7, 0, 1, 2, 3]",/,2500,3000,0,8,252.7587515,1024,2,48000,-16,main,"[(0, -252), (178, -178), (252, 0), (178, 178), (0, 252), (-178, 178), (-252, 0), (-178, -178)]",[],37,odd,2,NA,120143,161724,161724,25448,24438,1941,39232,39232,1941,1941,36174,342715,1940,161724,340551,339581,339582,NA,959,study_X,0,10726,1,yes,1680
undefined,undefined,NA,NA,NA,10726,10726,black,no,legacy,legacy,legacy,0,red,"(177, 0, 0)",shape,present,highProb,rectangular,swap,same,swap,same,red,"(177, 0, 0)",lowProb,lowProb4,circular,uniform,0,undefined,0,0.260416667,1,1,496.234375,1,50,95277,0,0,0,0,0,0,0,0,84,0,1,0.260416667,496.234375,50,95277,83,83,83,11/27/2018 14:25,Default description,yes,<openexp._canvas.legacy.Legacy object at 0x05312690>,<openexp._canvas.legacy.Legacy object at 0x05326BD0>,<openexp._canvas.legacy.Legacy object at 0x050C7430>,<openexp._canvas.legacy.Legacy object at 0x050BFA10>,<openexp._canvas.legacy.Legacy object at 0x050A2290>,<openexp._canvas.legacy.Legacy object at 0x05308350>,<openexp._canvas.legacy.Legacy object at 0x053495F0>,<openexp._canvas.legacy.Legacy object at 0x050D9610>,75,SpatProbMultiple3.osexp,C:/Userdata/Michel/SpatProbMultiple3,no,mono,no,18,no,white,no,yes,0.09,98,1050,legacy,315,58,58,1,C:/Userdata/Michel/SpatProbMultiple3/beh/subject-13.csv,legacy,9,192,25,Kafkaesque Koffka,3.2.5,yes,598477b2b83f69022949e7e9,47,red,rectangular,red,circular,0,None,2500,space,10726,10726,"(80, 80, 80)","(0, 123, 0)","(177, 0, 0)","(155, 155, 155)",2,legacy,experiment,"[4, 5, 6, 7, 0, 1, 2, 3]",/,2500,3000,0,8,252.7587515,1024,2,48000,-16,main,"[(0, -252), (178, -178), (252, 0), (178, 178), (0, 252), (-178, 178), (-252, 0), (-178, -178)]",[],37,odd,1,NA,120143,161724,161724,25448,24438,1941,39232,39232,1941,1941,36174,346664,1940,161724,344162,343195,343195,NA,959,study_X,0,10726,1,yes,1680
undefined,undefined,NA,NA,NA,10726,10726,black,no,legacy,legacy,legacy,0,green,"(0, 123, 0)",shape,present,highProb,rectangular,swap,same,swap,same,green,"(0, 123, 0)",lowProb,lowProb1,circular,uniform,1,undefined,0,0.265625,1,1,506.7083333,1,51,97288,0,0,0,0,0,0,0,0,85,0,1,0.265625,506.7083333,51,97288,84,84,84,11/27/2018 14:25,Default description,yes,<openexp._canvas.legacy.Legacy object at 0x05312690>,<openexp._canvas.legacy.Legacy object at 0x05326BD0>,<openexp._canvas.legacy.Legacy object at 0x050C7430>,<openexp._canvas.legacy.Legacy object at 0x050BFA10>,<openexp._canvas.legacy.Legacy object at 0x050A2290>,<openexp._canvas.legacy.Legacy object at 0x05308350>,<openexp._canvas.legacy.Legacy object at 0x05326490>,<openexp._canvas.legacy.Legacy object at 0x050D9610>,75,SpatProbMultiple3.osexp,C:/Userdata/Michel/SpatProbMultiple3,no,mono,no,18,no,white,no,yes,0.09,98,1050,legacy,45,59,59,1,C:/Userdata/Michel/SpatProbMultiple3/beh/subject-13.csv,legacy,9,192,25,Kafkaesque Koffka,3.2.5,yes,598477b2b83f69022949e7e9,47,green,rectangular,green,circular,0,\,2011,space,10726,10726,"(80, 80, 80)","(0, 123, 0)","(177, 0, 0)","(155, 155, 155)",2,legacy,experiment,"[4, 5, 6, 7, 0, 1, 2, 3]",\,2500,3000,0,8,252.7587515,1024,2,48000,-16,main,"[(0, -252), (178, -178), (252, 0), (178, 178), (0, 252), (-178, 178), (-252, 0), (-178, -178)]",[],37,odd,5,NA,120143,161724,161724,25448,24438,1941,39232,39232,1941,1941,36174,350108,1940,161724,348094,347127,347127,NA,959,study_X,0,10726,1,yes,1680
undefined,undefined,NA,NA,NA,10726,10726,black,no,legacy,legacy,legacy,0,red,"(177, 0, 0)",color,present,highProb,rectangular,swap,same,same,swap,green,"(0, 123, 0)",lowProb,lowProb6,rectangular,uniform,0,undefined,0,0.265625,1,1,519.7291667,1,51,99788,0,0,0,0,0,0,0,0,86,0,1,0.265625,519.7291667,51,99788,85,85,85,11/27/2018 14:25,Default description,yes,<openexp._canvas.legacy.Legacy object at 0x05312690>,<openexp._canvas.legacy.Legacy object at 0x05326BD0>,<openexp._canvas.legacy.Legacy object at 0x050C7430>,<openexp._canvas.legacy.Legacy object at 0x050BFA10>,<openexp._canvas.legacy.Legacy object at 0x050A2290>,<openexp._canvas.legacy.Legacy object at 0x05308350>,<openexp._canvas.legacy.Legacy object at 0x05319390>,<openexp._canvas.legacy.Legacy object at 0x050D9610>,75,SpatProbMultiple3.osexp,C:/Userdata/Michel/SpatProbMultiple3,no,mono,no,18,no,white,no,yes,0.09,98,1050,legacy,315,60,60,1,C:/Userdata/Michel/SpatProbMultiple3/beh/subject-13.csv,legacy,9,192,25,Kafkaesque Koffka,3.2.5,yes,598477b2b83f69022949e7e9,47,red,rectangular,green,rectangular,0,None,2500,space,10726,10726,"(80, 80, 80)","(0, 123, 0)","(177, 0, 0)","(155, 155, 155)",2,legacy,experiment,"[4, 5, 6, 7, 0, 1, 2, 3]",/,2500,3000,0,8,252.7587515,1024,2,48000,-16,main,"[(0, -252), (178, -178), (252, 0), (178, 178), (0, 252), (-178, 178), (-252, 0), (-178, -178)]",[],37,odd,3,NA,120143,161724,161724,25448,24438,1941,39232,39232,1941,1941,36174,354038,1940,161724,351536,350568,350569,NA,959,study_X,0,10726,1,yes,1680
undefined,undefined,NA,NA,NA,10726,10726,black,no,legacy,legacy,legacy,0,red,"(177, 0, 0)",color,absent,lowProb2,rectangular,same,same,swap,same,red,"(177, 0, 0)",lowProb,lowProb4,rectangular,uniform,1,undefined,0,0.270833333,1,1,525.78125,1,52,100950,0,0,0,0,0,0,0,0,87,0,1,0.270833333,525.78125,52,100950,86,86,86,11/27/2018 14:25,Default description,yes,<openexp._canvas.legacy.Legacy object at 0x05312690>,<openexp._canvas.legacy.Legacy object at 0x05326BD0>,<openexp._canvas.legacy.Legacy object at 0x050C7430>,<openexp._canvas.legacy.Legacy object at 0x050BFA10>,<openexp._canvas.legacy.Legacy object at 0x050A2290>,<openexp._canvas.legacy.Legacy object at 0x05308350>,<openexp._canvas.legacy.Legacy object at 0x053491F0>,<openexp._canvas.legacy.Legacy object at 0x050D9610>,75,SpatProbMultiple3.osexp,C:/Userdata/Michel/SpatProbMultiple3,no,mono,no,18,no,white,no,yes,0.09,98,1050,legacy,45,61,61,1,C:/Userdata/Michel/SpatProbMultiple3/beh/subject-13.csv,legacy,9,192,25,Kafkaesque Koffka,3.2.5,yes,598477b2b83f69022949e7e9,47,red,rectangular,red,rectangular,0,\,1162,space,10726,10726,"(80, 80, 80)","(0, 123, 0)","(177, 0, 0)","(155, 155, 155)",2,legacy,experiment,"[4, 5, 6, 7, 0, 1, 2, 3]",\,2500,3000,0,8,252.7587515,1024,2,48000,-16,main,"[(0, -252), (178, -178), (252, 0), (178, 178), (0, 252), (-178, 178), (-252, 0), (-178, -178)]",[],37,odd,1,NA,120143,161724,161724,25448,24438,1941,39232,39232,1941,1941,36174,356620,1940,161724,355454,354485,354485,NA,959,study_X,0,10726,1,yes,1680
undefined,undefined,NA,NA,NA,10726,10726,black,no,legacy,legacy,legacy,0,green,"(0, 123, 0)",shape,present,highProb,circular,swap,swap,swap,same,green,"(0, 123, 0)",lowProb,lowProb4,rectangular,uniform,1,undefined,0,0.276041667,1,1,530.3645833,1,53,101830,0,0,0,0,0,0,0,0,88,0,1,0.276041667,530.3645833,53,101830,87,87,87,11/27/2018 14:25,Default description,yes,<openexp._canvas.legacy.Legacy object at 0x05312690>,<openexp._canvas.legacy.Legacy object at 0x05326BD0>,<openexp._canvas.legacy.Legacy object at 0x050C7430>,<openexp._canvas.legacy.Legacy object at 0x050BFA10>,<openexp._canvas.legacy.Legacy object at 0x050A2290>,<openexp._canvas.legacy.Legacy object at 0x05308350>,<openexp._canvas.legacy.Legacy object at 0x0533D9D0>,<openexp._canvas.legacy.Legacy object at 0x050D9610>,75,SpatProbMultiple3.osexp,C:/Userdata/Michel/SpatProbMultiple3,no,mono,no,18,no,white,no,yes,0.09,98,1050,legacy,45,62,62,1,C:/Userdata/Michel/SpatProbMultiple3/beh/subject-13.csv,legacy,9,192,25,Kafkaesque Koffka,3.2.5,yes,598477b2b83f69022949e7e9,47,green,circular,green,rectangular,0,\,880,space,10726,10726,"(80, 80, 80)","(0, 123, 0)","(177, 0, 0)","(155, 155, 155)",2,legacy,experiment,"[4, 5, 6, 7, 0, 1, 2, 3]",\,2500,3000,0,8,252.7587515,1024,2,48000,-16,main,"[(0, -252), (178, -178), (252, 0), (178, 178), (0, 252), (-178, 178), (-252, 0), (-178, -178)]",[],37,odd,1,NA,120143,161724,161724,25448,24438,1941,39232,39232,1941,1941,36174,358931,1940,161724,358048,357080,357080,NA,959,study_X,0,10726,1,yes,1680
undefined,undefined,NA,NA,NA,10726,10726,black,no,legacy,legacy,legacy,0,red,"(177, 0, 0)",shape,present,lowProb4,circular,swap,same,swap,same,red,"(177, 0, 0)",lowProb,lowProb3,rectangular,uniform,1,undefined,0,0.28125,1,1,534.796875,1,54,102681,0,0,0,0,0,0,0,0,89,0,1,0.28125,534.796875,54,102681,88,88,88,11/27/2018 14:25,Default description,yes,<openexp._canvas.legacy.Legacy object at 0x05312690>,<openexp._canvas.legacy.Legacy object at 0x05326BD0>,<openexp._canvas.legacy.Legacy object at 0x050C7430>,<openexp._canvas.legacy.Legacy object at 0x050BFA10>,<openexp._canvas.legacy.Legacy object at 0x050A2290>,<openexp._canvas.legacy.Legacy object at 0x05308350>,<openexp._canvas.legacy.Legacy object at 0x0531C4F0>,<openexp._canvas.legacy.Legacy object at 0x050D9610>,75,SpatProbMultiple3.osexp,C:/Userdata/Michel/SpatProbMultiple3,no,mono,no,18,no,white,no,yes,0.09,98,1050,legacy,315,63,63,1,C:/Userdata/Michel/SpatProbMultiple3/beh/subject-13.csv,legacy,9,192,25,Kafkaesque Koffka,3.2.5,yes,598477b2b83f69022949e7e9,47,red,circular,red,rectangular,0,/,851,space,10726,10726,"(80, 80, 80)","(0, 123, 0)","(177, 0, 0)","(155, 155, 155)",2,legacy,experiment,"[4, 5, 6, 7, 0, 1, 2, 3]",/,2500,3000,0,8,252.7587515,1024,2,48000,-16,main,"[(0, -252), (178, -178), (252, 0), (178, 178), (0, 252), (-178, 178), (-252, 0), (-178, -178)]",[],37,odd,7,NA,120143,161724,161724,25448,24438,1941,39232,39232,1941,1941,36174,361235,1940,161724,360382,359414,359414,NA,959,study_X,0,10726,1,yes,1680
undefined,undefined,NA,NA,NA,10726,10726,black,no,legacy,legacy,legacy,0,red,"(177, 0, 0)",color,present,lowProb4,rectangular,same,swap,swap,same,green,"(0, 123, 0)",lowProb,lowProb6,rectangular,uniform,1,undefined,0,0.286458333,1,1,539.6927083,1,55,103621,0,0,0,0,0,0,0,0,90,0,1,0.286458333,539.6927083,55,103621,89,89,89,11/27/2018 14:25,Default description,yes,<openexp._canvas.legacy.Legacy object at 0x05312690>,<openexp._canvas.legacy.Legacy object at 0x05326BD0>,<openexp._canvas.legacy.Legacy object at 0x050C7430>,<openexp._canvas.legacy.Legacy object at 0x050BFA10>,<openexp._canvas.legacy.Legacy object at 0x050A2290>,<openexp._canvas.legacy.Legacy object at 0x05308350>,<openexp._canvas.legacy.Legacy object at 0x0531C5B0>,<openexp._canvas.legacy.Legacy object at 0x050D9610>,75,SpatProbMultiple3.osexp,C:/Userdata/Michel/SpatProbMultiple3,no,mono,no,18,no,white,no,yes,0.09,98,1050,legacy,45,64,64,1,C:/Userdata/Michel/SpatProbMultiple3/beh/subject-13.csv,legacy,9,192,25,Kafkaesque Koffka,3.2.5,yes,598477b2b83f69022949e7e9,47,red,rectangular,green,rectangular,0,\,940,space,10726,10726,"(80, 80, 80)","(0, 123, 0)","(177, 0, 0)","(155, 155, 155)",2,legacy,experiment,"[4, 5, 6, 7, 0, 1, 2, 3]",\,2500,3000,0,8,252.7587515,1024,2,48000,-16,main,"[(0, -252), (178, -178), (252, 0), (178, 178), (0, 252), (-178, 178), (-252, 0), (-178, -178)]",[],37,odd,3,NA,120143,161724,161724,25448,24438,1941,39232,39232,1941,1941,36174,363603,1940,161724,362661,361692,361693,NA,959,study_X,0,10726,1,yes,1680
