"acc","accuracy","average_response_time","avg_rt","background","bidi","canvas_backend","clock_backend","color_backend","compensation","cond_disColor","cond_disColorRGB","cond_disFeature","cond_disPresent","cond_disProbability","cond_disShape","cond_primingDisColor","cond_primingDisShape","cond_primingTarColor","cond_primingTarShape","cond_tarColor","cond_tarColorRGB","cond_tarLocation","cond_tarLocationLong","cond_tarShape","coordinates","correct","correct_continuePress","count_blockAcc","count_blockFeed","count_blockLoop","count_blockRT","count_blockSeq","count_blockSumCorrect","count_blockSumRT","count_continuePress","count_example","count_expSettings","count_exp_mainLoop","count_experiment","count_instructions","count_instructions1","count_instructions2","count_log","count_main","count_prepCanvas","count_totalAcc","count_totalRT","count_totalSumCorrect","count_totalSumRT","count_trialResp","count_trialSeq","count_trialTask","datetime","description","disable_garbage_collection","dispBlank","dispBlockStart","dispFeedBlock","dispFix","dispInstructions","dispSearch","dispStartScreen","distance2screen","experiment_file","experiment_path","font_bold","font_family","font_italic","font_size","font_underline","foreground","form_clicks","fullscreen","gaborFreq","gaborSize","height","keyboard_backend","lineOriTar","live_row","live_row_blockLoop","live_row_exp_mainLoop","logfile","mouse_backend","noExpBlocks","noExpTrials","noPracTrials","opensesame_codename","opensesame_version","osf_always_upload_experiment","osf_id","physical_screensize","previousDisColor","previousDisShape","previousTarColor","previousTarShape","repeat_cycle","response","responseTime","response_continuePress","response_time","response_time_continuePress","rgb_gray","rgb_green","rgb_red","rgb_white","round_decimals","sampler_backend","set_blockType","set_counterPositions","set_respCorrect","set_respTimeoutExp","set_respTimeoutPrac","set_rotation","set_setSize","sizeImaginary","sound_buf_size","sound_channels","sound_freq","sound_sample_size","start","stimPositions","stimuli","subject_nr","subject_parity","tarIdx","time_blockFeed","time_blockLoop","time_blockSeq","time_continuePress","time_example","time_expSettings","time_exp_mainLoop","time_experiment","time_instructions","time_instructions1","time_instructions2","time_log","time_main","time_prepCanvas","time_trialResp","time_trialSeq","time_trialTask","timing_EEGwait","timing_fix","title","total_correct","total_response_time","total_responses","uniform_coordinates","width"
"undefined","undefined","14477","14477","black","no","legacy","legacy","legacy","0","red","(179, 0, 0)","color","present","highProb","circular","swap","same","same","same","green","(0, 122, 0)","highProbShape","highProbShape","circular","uniform","1","undefined","0.00520833333333","1","1","4.875","1","1","936","0","0","0","0","0","0","0","0","25","0","1","0.00520833333333","4.875","1","936","25","25","25","08/11/17 10:42:55","Default description","yes","<openexp._canvas.legacy.legacy object at 0x04A127F0>","<openexp._canvas.legacy.legacy object at 0x04A1D7B0>","<openexp._canvas.legacy.legacy object at 0x04A0A410>","<openexp._canvas.legacy.legacy object at 0x04B009D0>","<openexp._canvas.legacy.legacy object at 0x04AD14B0>","<openexp._canvas.legacy.legacy object at 0x04A0E550>","<openexp._canvas.legacy.legacy object at 0x04AD2A50>","75","IndividualPriorityWithDis_v1.osexp","C:/Userdata/Michel/SpatialProb/IndividualPriorityMaps/Experiment2","no","mono","no","18","no","white","no","yes","0.09","98","1050","legacy","315","0","0","1","C:/Userdata/Michel/SpatialProb/IndividualPriorityMaps/Experiment2/data/subject-4.csv","legacy","9","192","25","Jazzy James","3.1.3","yes","598477b2b83f69022949e7e9","47","red","circular","green","circular","0","/","936","space","14477","14477","(80, 80, 80)","(0, 122, 0)","(179, 0, 0)","(155, 155, 155)","2","legacy","experiment","[3, 4, 5, 6, 7, 0, 1, 2]","/","2500","3000","0","8","252.758751519","1024","2","48000","-16","main","[(0, -252), (178, -178), (252, 0), (178, 178), (0, 252), (-178, 178), (-252, 0), (-178, -178)]","[]","4","even","7","1219558","1339054","1339054","1105710","1104703","1746","1138010","1138010","1746","1746","1120187","1346458","1742","1339054","1345518","1339458","1339458","NA","983","study_X","0","14477","1","yes","1680"
"undefined","undefined","14477","14477","black","no","legacy","legacy","legacy","0","green","(0, 122, 0)","shape","present","highProb","circular","swap","same","same","swap","green","(0, 122, 0)","lowProb","lowProb5","rectangular","uniform","1","undefined","0.0104166666667","1","1","8.984375","1","2","1725","0","0","0","0","0","0","0","0","26","0","1","0.0104166666667","8.984375","2","1725","26","26","26","08/11/17 10:42:55","Default description","yes","<openexp._canvas.legacy.legacy object at 0x04A127F0>","<openexp._canvas.legacy.legacy object at 0x04A1D7B0>","<openexp._canvas.legacy.legacy object at 0x04A0A410>","<openexp._canvas.legacy.legacy object at 0x04B009D0>","<openexp._canvas.legacy.legacy object at 0x04AD14B0>","<openexp._canvas.legacy.legacy object at 0x04A1DFB0>","<openexp._canvas.legacy.legacy object at 0x04AD2A50>","75","IndividualPriorityWithDis_v1.osexp","C:/Userdata/Michel/SpatialProb/IndividualPriorityMaps/Experiment2","no","mono","no","18","no","white","no","yes","0.09","98","1050","legacy","45","1","1","1","C:/Userdata/Michel/SpatialProb/IndividualPriorityMaps/Experiment2/data/subject-4.csv","legacy","9","192","25","Jazzy James","3.1.3","yes","598477b2b83f69022949e7e9","47","green","circular","green","rectangular","0","\","789","space","14477","14477","(80, 80, 80)","(0, 122, 0)","(179, 0, 0)","(155, 155, 155)","2","legacy","experiment","[3, 4, 5, 6, 7, 0, 1, 2]","\","2500","3000","0","8","252.758751519","1024","2","48000","-16","main","[(0, -252), (178, -178), (252, 0), (178, 178), (0, 252), (-178, 178), (-252, 0), (-178, -178)]","[]","4","even","1","1219558","1339054","1339054","1105710","1104703","1746","1138010","1138010","1746","1746","1120187","1348674","1742","1339054","1347881","1346892","1346892","NA","983","study_X","0","14477","1","yes","1680"
"undefined","undefined","14477","14477","black","no","legacy","legacy","legacy","0","red","(179, 0, 0)","color","present","highProb","circular","swap","same","same","swap","green","(0, 122, 0)","lowProb","lowProb5","circular","uniform","1","undefined","0.015625","1","1","12.6822916667","1","3","2435","0","0","0","0","0","0","0","0","27","0","1","0.015625","12.6822916667","3","2435","27","27","27","08/11/17 10:42:55","Default description","yes","<openexp._canvas.legacy.legacy object at 0x04A127F0>","<openexp._canvas.legacy.legacy object at 0x04A1D7B0>","<openexp._canvas.legacy.legacy object at 0x04A0A410>","<openexp._canvas.legacy.legacy object at 0x04B009D0>","<openexp._canvas.legacy.legacy object at 0x04AD14B0>","<openexp._canvas.legacy.legacy object at 0x04A0F950>","<openexp._canvas.legacy.legacy object at 0x04AD2A50>","75","IndividualPriorityWithDis_v1.osexp","C:/Userdata/Michel/SpatialProb/IndividualPriorityMaps/Experiment2","no","mono","no","18","no","white","no","yes","0.09","98","1050","legacy","45","2","2","1","C:/Userdata/Michel/SpatialProb/IndividualPriorityMaps/Experiment2/data/subject-4.csv","legacy","9","192","25","Jazzy James","3.1.3","yes","598477b2b83f69022949e7e9","47","red","circular","green","circular","0","\","710","space","14477","14477","(80, 80, 80)","(0, 122, 0)","(179, 0, 0)","(155, 155, 155)","2","legacy","experiment","[3, 4, 5, 6, 7, 0, 1, 2]","\","2500","3000","0","8","252.758751519","1024","2","48000","-16","main","[(0, -252), (178, -178), (252, 0), (178, 178), (0, 252), (-178, 178), (-252, 0), (-178, -178)]","[]","4","even","1","1219558","1339054","1339054","1105710","1104703","1746","1138010","1138010","1746","1746","1120187","1350801","1742","1339054","1350088","1349100","1349100","NA","983","study_X","0","14477","1","yes","1680"
"undefined","undefined","14477","14477","black","no","legacy","legacy","legacy","0","green","(0, 122, 0)","shape","present","highProb","rectangular","swap","swap","same","same","green","(0, 122, 0)","lowProb","lowProb3","circular","uniform","1","undefined","0.0208333333333","1","1","23.2291666667","1","4","4460","0","0","0","0","0","0","0","0","28","0","1","0.0208333333333","23.2291666667","4","4460","28","28","28","08/11/17 10:42:55","Default description","yes","<openexp._canvas.legacy.legacy object at 0x04A127F0>","<openexp._canvas.legacy.legacy object at 0x04A1D7B0>","<openexp._canvas.legacy.legacy object at 0x04A0A410>","<openexp._canvas.legacy.legacy object at 0x04B009D0>","<openexp._canvas.legacy.legacy object at 0x04AD14B0>","<openexp._canvas.legacy.legacy object at 0x04A0A250>","<openexp._canvas.legacy.legacy object at 0x04AD2A50>","75","IndividualPriorityWithDis_v1.osexp","C:/Userdata/Michel/SpatialProb/IndividualPriorityMaps/Experiment2","no","mono","no","18","no","white","no","yes","0.09","98","1050","legacy","45","3","3","1","C:/Userdata/Michel/SpatialProb/IndividualPriorityMaps/Experiment2/data/subject-4.csv","legacy","9","192","25","Jazzy James","3.1.3","yes","598477b2b83f69022949e7e9","47","green","rectangular","green","circular","0","\","2025","space","14477","14477","(80, 80, 80)","(0, 122, 0)","(179, 0, 0)","(155, 155, 155)","2","legacy","experiment","[3, 4, 5, 6, 7, 0, 1, 2]","\","2500","3000","0","8","252.758751519","1024","2","48000","-16","main","[(0, -252), (178, -178), (252, 0), (178, 178), (0, 252), (-178, 178), (-252, 0), (-178, -178)]","[]","4","even","6","1219558","1339054","1339054","1105710","1104703","1746","1138010","1138010","1746","1746","1120187","1354250","1742","1339054","1352222","1351234","1351234","NA","983","study_X","0","14477","1","yes","1680"
"undefined","undefined","14477","14477","black","no","legacy","legacy","legacy","0","red","(179, 0, 0)","shape","present","highProb","circular","swap","swap","swap","swap","red","(179, 0, 0)","lowProb","lowProb2","rectangular","uniform","1","undefined","0.0260416666667","1","1","28.1302083333","1","5","5401","0","0","0","0","0","0","0","0","29","0","1","0.0260416666667","28.1302083333","5","5401","29","29","29","08/11/17 10:42:55","Default description","yes","<openexp._canvas.legacy.legacy object at 0x04A127F0>","<openexp._canvas.legacy.legacy object at 0x04A1D7B0>","<openexp._canvas.legacy.legacy object at 0x04A0A410>","<openexp._canvas.legacy.legacy object at 0x04B009D0>","<openexp._canvas.legacy.legacy object at 0x04AD14B0>","<openexp._canvas.legacy.legacy object at 0x04A0FF50>","<openexp._canvas.legacy.legacy object at 0x04AD2A50>","75","IndividualPriorityWithDis_v1.osexp","C:/Userdata/Michel/SpatialProb/IndividualPriorityMaps/Experiment2","no","mono","no","18","no","white","no","yes","0.09","98","1050","legacy","315","4","4","1","C:/Userdata/Michel/SpatialProb/IndividualPriorityMaps/Experiment2/data/subject-4.csv","legacy","9","192","25","Jazzy James","3.1.3","yes","598477b2b83f69022949e7e9","47","red","circular","red","rectangular","0","/","941","space","14477","14477","(80, 80, 80)","(0, 122, 0)","(179, 0, 0)","(155, 155, 155)","2","legacy","experiment","[3, 4, 5, 6, 7, 0, 1, 2]","/","2500","3000","0","8","252.758751519","1024","2","48000","-16","main","[(0, -252), (178, -178), (252, 0), (178, 178), (0, 252), (-178, 178), (-252, 0), (-178, -178)]","[]","4","even","5","1219558","1339054","1339054","1105710","1104703","1746","1138010","1138010","1746","1746","1120187","1356602","1742","1339054","1355658","1354670","1354670","NA","983","study_X","0","14477","1","yes","1680"
"undefined","undefined","14477","14477","black","no","legacy","legacy","legacy","0","green","(0, 122, 0)","color","present","highProb","rectangular","swap","swap","same","same","red","(179, 0, 0)","lowProb","lowProb3","rectangular","uniform","1","undefined","0.03125","1","1","32.7864583333","1","6","6295","0","0","0","0","0","0","0","0","30","0","1","0.03125","32.7864583333","6","6295","30","30","30","08/11/17 10:42:55","Default description","yes","<openexp._canvas.legacy.legacy object at 0x04A127F0>","<openexp._canvas.legacy.legacy object at 0x04A1D7B0>","<openexp._canvas.legacy.legacy object at 0x04A0A410>","<openexp._canvas.legacy.legacy object at 0x04B009D0>","<openexp._canvas.legacy.legacy object at 0x04AD14B0>","<openexp._canvas.legacy.legacy object at 0x04B002B0>","<openexp._canvas.legacy.legacy object at 0x04AD2A50>","75","IndividualPriorityWithDis_v1.osexp","C:/Userdata/Michel/SpatialProb/IndividualPriorityMaps/Experiment2","no","mono","no","18","no","white","no","yes","0.09","98","1050","legacy","45","5","5","1","C:/Userdata/Michel/SpatialProb/IndividualPriorityMaps/Experiment2/data/subject-4.csv","legacy","9","192","25","Jazzy James","3.1.3","yes","598477b2b83f69022949e7e9","47","green","rectangular","red","rectangular","0","\","894","space","14477","14477","(80, 80, 80)","(0, 122, 0)","(179, 0, 0)","(155, 155, 155)","2","legacy","experiment","[3, 4, 5, 6, 7, 0, 1, 2]","\","2500","3000","0","8","252.758751519","1024","2","48000","-16","main","[(0, -252), (178, -178), (252, 0), (178, 178), (0, 252), (-178, 178), (-252, 0), (-178, -178)]","[]","4","even","6","1219558","1339054","1339054","1105710","1104703","1746","1138010","1138010","1746","1746","1120187","1358914","1742","1339054","1358016","1357027","1357027","NA","983","study_X","0","14477","1","yes","1680"
"undefined","undefined","14477","14477","black","no","legacy","legacy","legacy","0","green","(0, 122, 0)","shape","absent","highProb","circular","same","swap","swap","swap","green","(0, 122, 0)","lowProb","lowProb6","circular","uniform","1","undefined","0.0364583333333","1","1","36.15625","1","7","6942","0","0","0","0","0","0","0","0","31","0","1","0.0364583333333","36.15625","7","6942","31","31","31","08/11/17 10:42:55","Default description","yes","<openexp._canvas.legacy.legacy object at 0x04A127F0>","<openexp._canvas.legacy.legacy object at 0x04A1D7B0>","<openexp._canvas.legacy.legacy object at 0x04A0A410>","<openexp._canvas.legacy.legacy object at 0x04B009D0>","<openexp._canvas.legacy.legacy object at 0x04AD14B0>","<openexp._canvas.legacy.legacy object at 0x04A0AED0>","<openexp._canvas.legacy.legacy object at 0x04AD2A50>","75","IndividualPriorityWithDis_v1.osexp","C:/Userdata/Michel/SpatialProb/IndividualPriorityMaps/Experiment2","no","mono","no","18","no","white","no","yes","0.09","98","1050","legacy","315","6","6","1","C:/Userdata/Michel/SpatialProb/IndividualPriorityMaps/Experiment2/data/subject-4.csv","legacy","9","192","25","Jazzy James","3.1.3","yes","598477b2b83f69022949e7e9","47","green","circular","green","circular","0","/","647","space","14477","14477","(80, 80, 80)","(0, 122, 0)","(179, 0, 0)","(155, 155, 155)","2","legacy","experiment","[3, 4, 5, 6, 7, 0, 1, 2]","/","2500","3000","0","8","252.758751519","1024","2","48000","-16","main","[(0, -252), (178, -178), (252, 0), (178, 178), (0, 252), (-178, 178), (-252, 0), (-178, -178)]","[]","4","even","2","1219558","1339054","1339054","1105710","1104703","1746","1138010","1138010","1746","1746","1120187","1360978","1742","1339054","1360327","1359338","1359338","NA","983","study_X","0","14477","1","yes","1680"
"undefined","undefined","14477","14477","black","no","legacy","legacy","legacy","0","red","(179, 0, 0)","color","present","highProb","rectangular","swap","swap","same","swap","green","(0, 122, 0)","lowProb","lowProb3","rectangular","uniform","1","undefined","0.0416666666667","1","1","39.9114583333","1","8","7663","0","0","0","0","0","0","0","0","32","0","1","0.0416666666667","39.9114583333","8","7663","32","32","32","08/11/17 10:42:55","Default description","yes","<openexp._canvas.legacy.legacy object at 0x04A127F0>","<openexp._canvas.legacy.legacy object at 0x04A1D7B0>","<openexp._canvas.legacy.legacy object at 0x04A0A410>","<openexp._canvas.legacy.legacy object at 0x04B009D0>","<openexp._canvas.legacy.legacy object at 0x04AD14B0>","<openexp._canvas.legacy.legacy object at 0x04A0E550>","<openexp._canvas.legacy.legacy object at 0x04AD2A50>","75","IndividualPriorityWithDis_v1.osexp","C:/Userdata/Michel/SpatialProb/IndividualPriorityMaps/Experiment2","no","mono","no","18","no","white","no","yes","0.09","98","1050","legacy","315","7","7","1","C:/Userdata/Michel/SpatialProb/IndividualPriorityMaps/Experiment2/data/subject-4.csv","legacy","9","192","25","Jazzy James","3.1.3","yes","598477b2b83f69022949e7e9","47","red","rectangular","green","rectangular","0","/","721","space","14477","14477","(80, 80, 80)","(0, 122, 0)","(179, 0, 0)","(155, 155, 155)","2","legacy","experiment","[3, 4, 5, 6, 7, 0, 1, 2]","/","2500","3000","0","8","252.758751519","1024","2","48000","-16","main","[(0, -252), (178, -178), (252, 0), (178, 178), (0, 252), (-178, 178), (-252, 0), (-178, -178)]","[]","4","even","6","1219558","1339054","1339054","1105710","1104703","1746","1138010","1138010","1746","1746","1120187","1363114","1742","1339054","1362389","1361400","1361400","NA","983","study_X","0","14477","1","yes","1680"
"undefined","undefined","14477","14477","black","no","legacy","legacy","legacy","0","green","(0, 122, 0)","color","absent","highProb","rectangular","swap","same","same","same","green","(0, 122, 0)","lowProb","lowProb6","rectangular","uniform","1","undefined","0.046875","1","1","43.71875","1","9","8394","0","0","0","0","0","0","0","0","33","0","1","0.046875","43.71875","9","8394","33","33","33","08/11/17 10:42:55","Default description","yes","<openexp._canvas.legacy.legacy object at 0x04A127F0>","<openexp._canvas.legacy.legacy object at 0x04A1D7B0>","<openexp._canvas.legacy.legacy object at 0x04A0A410>","<openexp._canvas.legacy.legacy object at 0x04B009D0>","<openexp._canvas.legacy.legacy object at 0x04AD14B0>","<openexp._canvas.legacy.legacy object at 0x04B00AB0>","<openexp._canvas.legacy.legacy object at 0x04AD2A50>","75","IndividualPriorityWithDis_v1.osexp","C:/Userdata/Michel/SpatialProb/IndividualPriorityMaps/Experiment2","no","mono","no","18","no","white","no","yes","0.09","98","1050","legacy","315","8","8","1","C:/Userdata/Michel/SpatialProb/IndividualPriorityMaps/Experiment2/data/subject-4.csv","legacy","9","192","25","Jazzy James","3.1.3","yes","598477b2b83f69022949e7e9","47","green","rectangular","green","rectangular","0","/","731","space","14477","14477","(80, 80, 80)","(0, 122, 0)","(179, 0, 0)","(155, 155, 155)","2","legacy","experiment","[3, 4, 5, 6, 7, 0, 1, 2]","/","2500","3000","0","8","252.758751519","1024","2","48000","-16","main","[(0, -252), (178, -178), (252, 0), (178, 178), (0, 252), (-178, 178), (-252, 0), (-178, -178)]","[]","4","even","2","1219558","1339054","1339054","1105710","1104703","1746","1138010","1138010","1746","1746","1120187","1365257","1742","1339054","1364523","1363534","1363534","NA","983","study_X","0","14477","1","yes","1680"
"undefined","undefined","14477","14477","black","no","legacy","legacy","legacy","0","red","(179, 0, 0)","shape","present","highProb","rectangular","swap","same","swap","swap","red","(179, 0, 0)","highProbColor","highProbColor","circular","uniform","1","undefined","0.0520833333333","1","1","47.296875","1","10","9081","0","0","0","0","0","0","0","0","34","0","1","0.0520833333333","47.296875","10","9081","34","34","34","08/11/17 10:42:55","Default description","yes","<openexp._canvas.legacy.legacy object at 0x04A127F0>","<openexp._canvas.legacy.legacy object at 0x04A1D7B0>","<openexp._canvas.legacy.legacy object at 0x04A0A410>","<openexp._canvas.legacy.legacy object at 0x04B009D0>","<openexp._canvas.legacy.legacy object at 0x04AD14B0>","<openexp._canvas.legacy.legacy object at 0x04A196D0>","<openexp._canvas.legacy.legacy object at 0x04AD2A50>","75","IndividualPriorityWithDis_v1.osexp","C:/Userdata/Michel/SpatialProb/IndividualPriorityMaps/Experiment2","no","mono","no","18","no","white","no","yes","0.09","98","1050","legacy","315","9","9","1","C:/Userdata/Michel/SpatialProb/IndividualPriorityMaps/Experiment2/data/subject-4.csv","legacy","9","192","25","Jazzy James","3.1.3","yes","598477b2b83f69022949e7e9","47","red","rectangular","red","circular","0","/","687","space","14477","14477","(80, 80, 80)","(0, 122, 0)","(179, 0, 0)","(155, 155, 155)","2","legacy","experiment","[3, 4, 5, 6, 7, 0, 1, 2]","/","2500","3000","0","8","252.758751519","1024","2","48000","-16","main","[(0, -252), (178, -178), (252, 0), (178, 178), (0, 252), (-178, 178), (-252, 0), (-178, -178)]","[]","4","even","3","1219558","1339054","1339054","1105710","1104703","1746","1138010","1138010","1746","1746","1120187","1367361","1742","1339054","1366672","1365683","1365683","NA","983","study_X","0","14477","1","yes","1680"
"undefined","undefined","14477","14477","black","no","legacy","legacy","legacy","0","green","(0, 122, 0)","color","present","lowProb6","circular","swap","swap","same","same","red","(179, 0, 0)","highProbColor","highProbColor","circular","uniform","1","undefined","0.0572916666667","1","1","52.828125","1","11","10143","0","0","0","0","0","0","0","0","35","0","1","0.0572916666667","52.828125","11","10143","35","35","35","08/11/17 10:42:55","Default description","yes","<openexp._canvas.legacy.legacy object at 0x04A127F0>","<openexp._canvas.legacy.legacy object at 0x04A1D7B0>","<openexp._canvas.legacy.legacy object at 0x04A0A410>","<openexp._canvas.legacy.legacy object at 0x04B009D0>","<openexp._canvas.legacy.legacy object at 0x04AD14B0>","<openexp._canvas.legacy.legacy object at 0x04A0A790>","<openexp._canvas.legacy.legacy object at 0x04AD2A50>","75","IndividualPriorityWithDis_v1.osexp","C:/Userdata/Michel/SpatialProb/IndividualPriorityMaps/Experiment2","no","mono","no","18","no","white","no","yes","0.09","98","1050","legacy","45","10","10","1","C:/Userdata/Michel/SpatialProb/IndividualPriorityMaps/Experiment2/data/subject-4.csv","legacy","9","192","25","Jazzy James","3.1.3","yes","598477b2b83f69022949e7e9","47","green","circular","red","circular","0","\","1062","space","14477","14477","(80, 80, 80)","(0, 122, 0)","(179, 0, 0)","(155, 155, 155)","2","legacy","experiment","[3, 4, 5, 6, 7, 0, 1, 2]","\","2500","3000","0","8","252.758751519","1024","2","48000","-16","main","[(0, -252), (178, -178), (252, 0), (178, 178), (0, 252), (-178, 178), (-252, 0), (-178, -178)]","[]","4","even","3","1219558","1339054","1339054","1105710","1104703","1746","1138010","1138010","1746","1746","1120187","1369857","1742","1339054","1368792","1367803","1367803","NA","983","study_X","0","14477","1","yes","1680"
"undefined","undefined","14477","14477","black","no","legacy","legacy","legacy","0","green","(0, 122, 0)","color","present","highProb","circular","same","same","same","same","red","(179, 0, 0)","highProbShape","highProbShape","circular","uniform","0","undefined","0.0572916666667","1","1","60.4270833333","1","11","11602","0","0","0","0","0","0","0","0","36","0","1","0.0572916666667","60.4270833333","11","11602","36","36","36","08/11/17 10:42:55","Default description","yes","<openexp._canvas.legacy.legacy object at 0x04A127F0>","<openexp._canvas.legacy.legacy object at 0x04A1D7B0>","<openexp._canvas.legacy.legacy object at 0x04A0A410>","<openexp._canvas.legacy.legacy object at 0x04B009D0>","<openexp._canvas.legacy.legacy object at 0x04AD14B0>","<openexp._canvas.legacy.legacy object at 0x04A0EBF0>","<openexp._canvas.legacy.legacy object at 0x04AD2A50>","75","IndividualPriorityWithDis_v1.osexp","C:/Userdata/Michel/SpatialProb/IndividualPriorityMaps/Experiment2","no","mono","no","18","no","white","no","yes","0.09","98","1050","legacy","45","11","11","1","C:/Userdata/Michel/SpatialProb/IndividualPriorityMaps/Experiment2/data/subject-4.csv","legacy","9","192","25","Jazzy James","3.1.3","yes","598477b2b83f69022949e7e9","47","green","circular","red","circular","0","/","1459","space","14477","14477","(80, 80, 80)","(0, 122, 0)","(179, 0, 0)","(155, 155, 155)","2","legacy","experiment","[3, 4, 5, 6, 7, 0, 1, 2]","\","2500","3000","0","8","252.758751519","1024","2","48000","-16","main","[(0, -252), (178, -178), (252, 0), (178, 178), (0, 252), (-178, 178), (-252, 0), (-178, -178)]","[]","4","even","7","1219558","1339054","1339054","1105710","1104703","1746","1138010","1138010","1746","1746","1120187","1372730","1742","1339054","1371268","1370280","1370280","NA","983","study_X","0","14477","1","yes","1680"
"undefined","undefined","14477","14477","black","no","legacy","legacy","legacy","0","green","(0, 122, 0)","shape","present","highProb","rectangular","same","swap","swap","same","green","(0, 122, 0)","lowProb","lowProb1","circular","uniform","0","undefined","0.0572916666667","1","1","70.4635416667","1","11","13529","0","0","0","0","0","0","0","0","37","0","1","0.0572916666667","70.4635416667","11","13529","37","37","37","08/11/17 10:42:55","Default description","yes","<openexp._canvas.legacy.legacy object at 0x04A127F0>","<openexp._canvas.legacy.legacy object at 0x04A1D7B0>","<openexp._canvas.legacy.legacy object at 0x04A0A410>","<openexp._canvas.legacy.legacy object at 0x04B009D0>","<openexp._canvas.legacy.legacy object at 0x04AD14B0>","<openexp._canvas.legacy.legacy object at 0x04B00E30>","<openexp._canvas.legacy.legacy object at 0x04AD2A50>","75","IndividualPriorityWithDis_v1.osexp","C:/Userdata/Michel/SpatialProb/IndividualPriorityMaps/Experiment2","no","mono","no","18","no","white","no","yes","0.09","98","1050","legacy","315","12","12","1","C:/Userdata/Michel/SpatialProb/IndividualPriorityMaps/Experiment2/data/subject-4.csv","legacy","9","192","25","Jazzy James","3.1.3","yes","598477b2b83f69022949e7e9","47","green","rectangular","green","circular","0","\","1927","space","14477","14477","(80, 80, 80)","(0, 122, 0)","(179, 0, 0)","(155, 155, 155)","2","legacy","experiment","[3, 4, 5, 6, 7, 0, 1, 2]","/","2500","3000","0","8","252.758751519","1024","2","48000","-16","main","[(0, -252), (178, -178), (252, 0), (178, 178), (0, 252), (-178, 178), (-252, 0), (-178, -178)]","[]","4","even","4","1219558","1339054","1339054","1105710","1104703","1746","1138010","1138010","1746","1746","1120187","1376074","1742","1339054","1374143","1373154","1373154","NA","983","study_X","0","14477","1","yes","1680"
"undefined","undefined","14477","14477","black","no","legacy","legacy","legacy","0","red","(179, 0, 0)","color","present","highProb","circular","swap","swap","same","same","green","(0, 122, 0)","lowProb","lowProb6","circular","uniform","1","undefined","0.0625","1","1","75.1614583333","1","12","14431","0","0","0","0","0","0","0","0","38","0","1","0.0625","75.1614583333","12","14431","38","38","38","08/11/17 10:42:55","Default description","yes","<openexp._canvas.legacy.legacy object at 0x04A127F0>","<openexp._canvas.legacy.legacy object at 0x04A1D7B0>","<openexp._canvas.legacy.legacy object at 0x04A0A410>","<openexp._canvas.legacy.legacy object at 0x04B009D0>","<openexp._canvas.legacy.legacy object at 0x04AD14B0>","<openexp._canvas.legacy.legacy object at 0x04A12E90>","<openexp._canvas.legacy.legacy object at 0x04AD2A50>","75","IndividualPriorityWithDis_v1.osexp","C:/Userdata/Michel/SpatialProb/IndividualPriorityMaps/Experiment2","no","mono","no","18","no","white","no","yes","0.09","98","1050","legacy","315","13","13","1","C:/Userdata/Michel/SpatialProb/IndividualPriorityMaps/Experiment2/data/subject-4.csv","legacy","9","192","25","Jazzy James","3.1.3","yes","598477b2b83f69022949e7e9","47","red","circular","green","circular","0","/","902","space","14477","14477","(80, 80, 80)","(0, 122, 0)","(179, 0, 0)","(155, 155, 155)","2","legacy","experiment","[3, 4, 5, 6, 7, 0, 1, 2]","/","2500","3000","0","8","252.758751519","1024","2","48000","-16","main","[(0, -252), (178, -178), (252, 0), (178, 178), (0, 252), (-178, 178), (-252, 0), (-178, -178)]","[]","4","even","2","1219558","1339054","1339054","1105710","1104703","1746","1138010","1138010","1746","1746","1120187","1378394","1742","1339054","1377488","1376499","1376499","NA","983","study_X","0","14477","1","yes","1680"
"undefined","undefined","14477","14477","black","no","legacy","legacy","legacy","0","green","(0, 122, 0)","color","present","lowProb1","circular","swap","same","swap","same","red","(179, 0, 0)","lowProb","lowProb4","circular","uniform","1","undefined","0.0677083333333","1","1","82.546875","1","13","15849","0","0","0","0","0","0","0","0","39","0","1","0.0677083333333","82.546875","13","15849","39","39","39","08/11/17 10:42:55","Default description","yes","<openexp._canvas.legacy.legacy object at 0x04A127F0>","<openexp._canvas.legacy.legacy object at 0x04A1D7B0>","<openexp._canvas.legacy.legacy object at 0x04A0A410>","<openexp._canvas.legacy.legacy object at 0x04B009D0>","<openexp._canvas.legacy.legacy object at 0x04AD14B0>","<openexp._canvas.legacy.legacy object at 0x04A19F30>","<openexp._canvas.legacy.legacy object at 0x04AD2A50>","75","IndividualPriorityWithDis_v1.osexp","C:/Userdata/Michel/SpatialProb/IndividualPriorityMaps/Experiment2","no","mono","no","18","no","white","no","yes","0.09","98","1050","legacy","45","14","14","1","C:/Userdata/Michel/SpatialProb/IndividualPriorityMaps/Experiment2/data/subject-4.csv","legacy","9","192","25","Jazzy James","3.1.3","yes","598477b2b83f69022949e7e9","47","green","circular","red","circular","0","\","1418","space","14477","14477","(80, 80, 80)","(0, 122, 0)","(179, 0, 0)","(155, 155, 155)","2","legacy","experiment","[3, 4, 5, 6, 7, 0, 1, 2]","\","2500","3000","0","8","252.758751519","1024","2","48000","-16","main","[(0, -252), (178, -178), (252, 0), (178, 178), (0, 252), (-178, 178), (-252, 0), (-178, -178)]","[]","4","even","0","1219558","1339054","1339054","1105710","1104703","1746","1138010","1138010","1746","1746","1120187","1381225","1742","1339054","1379805","1378816","1378816","NA","983","study_X","0","14477","1","yes","1680"
"undefined","undefined","14477","14477","black","no","legacy","legacy","legacy","0","green","(0, 122, 0)","shape","present","highProb","rectangular","same","swap","swap","same","green","(0, 122, 0)","lowProb","lowProb3","circular","uniform","1","undefined","0.0729166666667","1","1","87.2083333333","1","14","16744","0","0","0","0","0","0","0","0","40","0","1","0.0729166666667","87.2083333333","14","16744","40","40","40","08/11/17 10:42:55","Default description","yes","<openexp._canvas.legacy.legacy object at 0x04A127F0>","<openexp._canvas.legacy.legacy object at 0x04A1D7B0>","<openexp._canvas.legacy.legacy object at 0x04A0A410>","<openexp._canvas.legacy.legacy object at 0x04B009D0>","<openexp._canvas.legacy.legacy object at 0x04AD14B0>","<openexp._canvas.legacy.legacy object at 0x04A0E7D0>","<openexp._canvas.legacy.legacy object at 0x04AD2A50>","75","IndividualPriorityWithDis_v1.osexp","C:/Userdata/Michel/SpatialProb/IndividualPriorityMaps/Experiment2","no","mono","no","18","no","white","no","yes","0.09","98","1050","legacy","315","15","15","1","C:/Userdata/Michel/SpatialProb/IndividualPriorityMaps/Experiment2/data/subject-4.csv","legacy","9","192","25","Jazzy James","3.1.3","yes","598477b2b83f69022949e7e9","47","green","rectangular","green","circular","0","/","895","space","14477","14477","(80, 80, 80)","(0, 122, 0)","(179, 0, 0)","(155, 155, 155)","2","legacy","experiment","[3, 4, 5, 6, 7, 0, 1, 2]","/","2500","3000","0","8","252.758751519","1024","2","48000","-16","main","[(0, -252), (178, -178), (252, 0), (178, 178), (0, 252), (-178, 178), (-252, 0), (-178, -178)]","[]","4","even","6","1219558","1339054","1339054","1105710","1104703","1746","1138010","1138010","1746","1746","1120187","1383537","1742","1339054","1382640","1381651","1381652","NA","983","study_X","0","14477","1","yes","1680"
"undefined","undefined","14477","14477","black","no","legacy","legacy","legacy","0","red","(179, 0, 0)","color","present","lowProb1","circular","swap","swap","same","same","green","(0, 122, 0)","lowProb","lowProb5","circular","uniform","1","undefined","0.078125","1","1","91.3802083333","1","15","17545","0","0","0","0","0","0","0","0","41","0","1","0.078125","91.3802083333","15","17545","41","41","41","08/11/17 10:42:55","Default description","yes","<openexp._canvas.legacy.legacy object at 0x04A127F0>","<openexp._canvas.legacy.legacy object at 0x04A1D7B0>","<openexp._canvas.legacy.legacy object at 0x04A0A410>","<openexp._canvas.legacy.legacy object at 0x04B009D0>","<openexp._canvas.legacy.legacy object at 0x04AD14B0>","<openexp._canvas.legacy.legacy object at 0x04A0AAF0>","<openexp._canvas.legacy.legacy object at 0x04AD2A50>","75","IndividualPriorityWithDis_v1.osexp","C:/Userdata/Michel/SpatialProb/IndividualPriorityMaps/Experiment2","no","mono","no","18","no","white","no","yes","0.09","98","1050","legacy","45","16","16","1","C:/Userdata/Michel/SpatialProb/IndividualPriorityMaps/Experiment2/data/subject-4.csv","legacy","9","192","25","Jazzy James","3.1.3","yes","598477b2b83f69022949e7e9","47","red","circular","green","circular","0","\","801","space","14477","14477","(80, 80, 80)","(0, 122, 0)","(179, 0, 0)","(155, 155, 155)","2","legacy","experiment","[3, 4, 5, 6, 7, 0, 1, 2]","\","2500","3000","0","8","252.758751519","1024","2","48000","-16","main","[(0, -252), (178, -178), (252, 0), (178, 178), (0, 252), (-178, 178), (-252, 0), (-178, -178)]","[]","4","even","1","1219558","1339054","1339054","1105710","1104703","1746","1138010","1138010","1746","1746","1120187","1385745","1742","1339054","1384942","1383954","1383954","NA","983","study_X","0","14477","1","yes","1680"
"undefined","undefined","14477","14477","black","no","legacy","legacy","legacy","0","red","(179, 0, 0)","color","absent","lowProb3","rectangular","same","swap","swap","swap","red","(179, 0, 0)","lowProb","lowProb3","rectangular","uniform","1","undefined","0.0833333333333","1","1","98.234375","1","16","18861","0","0","0","0","0","0","0","0","42","0","1","0.0833333333333","98.234375","16","18861","42","42","42","08/11/17 10:42:55","Default description","yes","<openexp._canvas.legacy.legacy object at 0x04A127F0>","<openexp._canvas.legacy.legacy object at 0x04A1D7B0>","<openexp._canvas.legacy.legacy object at 0x04A0A410>","<openexp._canvas.legacy.legacy object at 0x04B009D0>","<openexp._canvas.legacy.legacy object at 0x04AD14B0>","<openexp._canvas.legacy.legacy object at 0x04B008D0>","<openexp._canvas.legacy.legacy object at 0x04AD2A50>","75","IndividualPriorityWithDis_v1.osexp","C:/Userdata/Michel/SpatialProb/IndividualPriorityMaps/Experiment2","no","mono","no","18","no","white","no","yes","0.09","98","1050","legacy","45","17","17","1","C:/Userdata/Michel/SpatialProb/IndividualPriorityMaps/Experiment2/data/subject-4.csv","legacy","9","192","25","Jazzy James","3.1.3","yes","598477b2b83f69022949e7e9","47","red","rectangular","red","rectangular","0","\","1316","space","14477","14477","(80, 80, 80)","(0, 122, 0)","(179, 0, 0)","(155, 155, 155)","2","legacy","experiment","[3, 4, 5, 6, 7, 0, 1, 2]","\","2500","3000","0","8","252.758751519","1024","2","48000","-16","main","[(0, -252), (178, -178), (252, 0), (178, 178), (0, 252), (-178, 178), (-252, 0), (-178, -178)]","[]","4","even","6","1219558","1339054","1339054","1105710","1104703","1746","1138010","1138010","1746","1746","1120187","1388490","1742","1339054","1387171","1386182","1386182","NA","983","study_X","0","14477","1","yes","1680"
"undefined","undefined","14477","14477","black","no","legacy","legacy","legacy","0","red","(179, 0, 0)","color","present","highProb","rectangular","same","same","swap","same","green","(0, 122, 0)","lowProb","lowProb1","rectangular","uniform","0","undefined","0.0833333333333","1","1","111.255208333","1","16","21361","0","0","0","0","0","0","0","0","43","0","1","0.0833333333333","111.255208333","16","21361","43","43","43","08/11/17 10:42:55","Default description","yes","<openexp._canvas.legacy.legacy object at 0x04A127F0>","<openexp._canvas.legacy.legacy object at 0x04A1D7B0>","<openexp._canvas.legacy.legacy object at 0x04A0A410>","<openexp._canvas.legacy.legacy object at 0x04B009D0>","<openexp._canvas.legacy.legacy object at 0x04AD14B0>","<openexp._canvas.legacy.legacy object at 0x04A0FF50>","<openexp._canvas.legacy.legacy object at 0x04AD2A50>","75","IndividualPriorityWithDis_v1.osexp","C:/Userdata/Michel/SpatialProb/IndividualPriorityMaps/Experiment2","no","mono","no","18","no","white","no","yes","0.09","98","1050","legacy","315","18","18","1","C:/Userdata/Michel/SpatialProb/IndividualPriorityMaps/Experiment2/data/subject-4.csv","legacy","9","192","25","Jazzy James","3.1.3","yes","598477b2b83f69022949e7e9","47","red","rectangular","green","rectangular","0","None","2500","space","14477","14477","(80, 80, 80)","(0, 122, 0)","(179, 0, 0)","(155, 155, 155)","2","legacy","experiment","[3, 4, 5, 6, 7, 0, 1, 2]","/","2500","3000","0","8","252.758751519","1024","2","48000","-16","main","[(0, -252), (178, -178), (252, 0), (178, 178), (0, 252), (-178, 178), (-252, 0), (-178, -178)]","[]","4","even","4","1219558","1339054","1339054","1105710","1104703","1746","1138010","1138010","1746","1746","1120187","1392399","1742","1339054","1389896","1388908","1388908","NA","983","study_X","0","14477","1","yes","1680"
"undefined","undefined","14477","14477","black","no","legacy","legacy","legacy","0","green","(0, 122, 0)","color","present","highProb","rectangular","swap","same","swap","same","red","(179, 0, 0)","lowProb","lowProb1","rectangular","uniform","1","undefined","0.0885416666667","1","1","118.229166667","1","17","22700","0","0","0","0","0","0","0","0","44","0","1","0.0885416666667","118.229166667","17","22700","44","44","44","08/11/17 10:42:55","Default description","yes","<openexp._canvas.legacy.legacy object at 0x04A127F0>","<openexp._canvas.legacy.legacy object at 0x04A1D7B0>","<openexp._canvas.legacy.legacy object at 0x04A0A410>","<openexp._canvas.legacy.legacy object at 0x04B009D0>","<openexp._canvas.legacy.legacy object at 0x04AD14B0>","<openexp._canvas.legacy.legacy object at 0x04A0F230>","<openexp._canvas.legacy.legacy object at 0x04AD2A50>","75","IndividualPriorityWithDis_v1.osexp","C:/Userdata/Michel/SpatialProb/IndividualPriorityMaps/Experiment2","no","mono","no","18","no","white","no","yes","0.09","98","1050","legacy","315","19","19","1","C:/Userdata/Michel/SpatialProb/IndividualPriorityMaps/Experiment2/data/subject-4.csv","legacy","9","192","25","Jazzy James","3.1.3","yes","598477b2b83f69022949e7e9","47","green","rectangular","red","rectangular","0","/","1339","space","14477","14477","(80, 80, 80)","(0, 122, 0)","(179, 0, 0)","(155, 155, 155)","2","legacy","experiment","[3, 4, 5, 6, 7, 0, 1, 2]","/","2500","3000","0","8","252.758751519","1024","2","48000","-16","main","[(0, -252), (178, -178), (252, 0), (178, 178), (0, 252), (-178, 178), (-252, 0), (-178, -178)]","[]","4","even","4","1219558","1339054","1339054","1105710","1104703","1746","1138010","1138010","1746","1746","1120187","1395146","1742","1339054","1393803","1392814","1392815","NA","983","study_X","0","14477","1","yes","1680"
"undefined","undefined","14477","14477","black","no","legacy","legacy","legacy","0","green","(0, 122, 0)","color","present","lowProb3","circular","same","swap","same","swap","red","(179, 0, 0)","lowProb","lowProb1","circular","uniform","1","undefined","0.09375","1","1","121.755208333","1","18","23377","0","0","0","0","0","0","0","0","45","0","1","0.09375","121.755208333","18","23377","45","45","45","08/11/17 10:42:55","Default description","yes","<openexp._canvas.legacy.legacy object at 0x04A127F0>","<openexp._canvas.legacy.legacy object at 0x04A1D7B0>","<openexp._canvas.legacy.legacy object at 0x04A0A410>","<openexp._canvas.legacy.legacy object at 0x04B009D0>","<openexp._canvas.legacy.legacy object at 0x04AD14B0>","<openexp._canvas.legacy.legacy object at 0x04A0EBF0>","<openexp._canvas.legacy.legacy object at 0x04AD2A50>","75","IndividualPriorityWithDis_v1.osexp","C:/Userdata/Michel/SpatialProb/IndividualPriorityMaps/Experiment2","no","mono","no","18","no","white","no","yes","0.09","98","1050","legacy","45","20","20","1","C:/Userdata/Michel/SpatialProb/IndividualPriorityMaps/Experiment2/data/subject-4.csv","legacy","9","192","25","Jazzy James","3.1.3","yes","598477b2b83f69022949e7e9","47","green","circular","red","circular","0","\","677","space","14477","14477","(80, 80, 80)","(0, 122, 0)","(179, 0, 0)","(155, 155, 155)","2","legacy","experiment","[3, 4, 5, 6, 7, 0, 1, 2]","\","2500","3000","0","8","252.758751519","1024","2","48000","-16","main","[(0, -252), (178, -178), (252, 0), (178, 178), (0, 252), (-178, 178), (-252, 0), (-178, -178)]","[]","4","even","4","1219558","1339054","1339054","1105710","1104703","1746","1138010","1138010","1746","1746","1120187","1397233","1742","1339054","1396554","1395565","1395565","NA","983","study_X","0","14477","1","yes","1680"
"undefined","undefined","14477","14477","black","no","legacy","legacy","legacy","0","red","(179, 0, 0)","color","absent","lowProb4","circular","swap","same","same","same","red","(179, 0, 0)","highProbColor","highProbColor","circular","uniform","1","undefined","0.0989583333333","1","1","125.901041667","1","19","24173","0","0","0","0","0","0","0","0","46","0","1","0.0989583333333","125.901041667","19","24173","46","46","46","08/11/17 10:42:55","Default description","yes","<openexp._canvas.legacy.legacy object at 0x04A127F0>","<openexp._canvas.legacy.legacy object at 0x04A1D7B0>","<openexp._canvas.legacy.legacy object at 0x04A0A410>","<openexp._canvas.legacy.legacy object at 0x04B009D0>","<openexp._canvas.legacy.legacy object at 0x04AD14B0>","<openexp._canvas.legacy.legacy object at 0x04A14C50>","<openexp._canvas.legacy.legacy object at 0x04AD2A50>","75","IndividualPriorityWithDis_v1.osexp","C:/Userdata/Michel/SpatialProb/IndividualPriorityMaps/Experiment2","no","mono","no","18","no","white","no","yes","0.09","98","1050","legacy","315","21","21","1","C:/Userdata/Michel/SpatialProb/IndividualPriorityMaps/Experiment2/data/subject-4.csv","legacy","9","192","25","Jazzy James","3.1.3","yes","598477b2b83f69022949e7e9","47","red","circular","red","circular","0","/","796","space","14477","14477","(80, 80, 80)","(0, 122, 0)","(179, 0, 0)","(155, 155, 155)","2","legacy","experiment","[3, 4, 5, 6, 7, 0, 1, 2]","/","2500","3000","0","8","252.758751519","1024","2","48000","-16","main","[(0, -252), (178, -178), (252, 0), (178, 178), (0, 252), (-178, 178), (-252, 0), (-178, -178)]","[]","4","even","3","1219558","1339054","1339054","1105710","1104703","1746","1138010","1138010","1746","1746","1120187","1399473","1742","1339054","1398674","1397686","1397686","NA","983","study_X","0","14477","1","yes","1680"
"undefined","undefined","14477","14477","black","no","legacy","legacy","legacy","0","red","(179, 0, 0)","shape","present","highProb","rectangular","same","swap","same","same","red","(179, 0, 0)","lowProb","lowProb4","circular","uniform","0","undefined","0.0989583333333","1","1","138.921875","1","19","26673","0","0","0","0","0","0","0","0","47","0","1","0.0989583333333","138.921875","19","26673","47","47","47","08/11/17 10:42:55","Default description","yes","<openexp._canvas.legacy.legacy object at 0x04A127F0>","<openexp._canvas.legacy.legacy object at 0x04A1D7B0>","<openexp._canvas.legacy.legacy object at 0x04A0A410>","<openexp._canvas.legacy.legacy object at 0x04B009D0>","<openexp._canvas.legacy.legacy object at 0x04AD14B0>","<openexp._canvas.legacy.legacy object at 0x04A0F230>","<openexp._canvas.legacy.legacy object at 0x04AD2A50>","75","IndividualPriorityWithDis_v1.osexp","C:/Userdata/Michel/SpatialProb/IndividualPriorityMaps/Experiment2","no","mono","no","18","no","white","no","yes","0.09","98","1050","legacy","45","22","22","1","C:/Userdata/Michel/SpatialProb/IndividualPriorityMaps/Experiment2/data/subject-4.csv","legacy","9","192","25","Jazzy James","3.1.3","yes","598477b2b83f69022949e7e9","47","red","rectangular","red","circular","0","None","2500","space","14477","14477","(80, 80, 80)","(0, 122, 0)","(179, 0, 0)","(155, 155, 155)","2","legacy","experiment","[3, 4, 5, 6, 7, 0, 1, 2]","\","2500","3000","0","8","252.758751519","1024","2","48000","-16","main","[(0, -252), (178, -178), (252, 0), (178, 178), (0, 252), (-178, 178), (-252, 0), (-178, -178)]","[]","4","even","0","1219558","1339054","1339054","1105710","1104703","1746","1138010","1138010","1746","1746","1120187","1403399","1742","1339054","1400897","1399908","1399908","NA","983","study_X","0","14477","1","yes","1680"
"undefined","undefined","14477","14477","black","no","legacy","legacy","legacy","0","green","(0, 122, 0)","shape","present","lowProb6","circular","swap","swap","swap","swap","green","(0, 122, 0)","lowProb","lowProb1","rectangular","uniform","1","undefined","0.104166666667","1","1","144.859375","1","20","27813","0","0","0","0","0","0","0","0","48","0","1","0.104166666667","144.859375","20","27813","48","48","48","08/11/17 10:42:55","Default description","yes","<openexp._canvas.legacy.legacy object at 0x04A127F0>","<openexp._canvas.legacy.legacy object at 0x04A1D7B0>","<openexp._canvas.legacy.legacy object at 0x04A0A410>","<openexp._canvas.legacy.legacy object at 0x04B009D0>","<openexp._canvas.legacy.legacy object at 0x04AD14B0>","<openexp._canvas.legacy.legacy object at 0x04A1DE70>","<openexp._canvas.legacy.legacy object at 0x04AD2A50>","75","IndividualPriorityWithDis_v1.osexp","C:/Userdata/Michel/SpatialProb/IndividualPriorityMaps/Experiment2","no","mono","no","18","no","white","no","yes","0.09","98","1050","legacy","45","23","23","1","C:/Userdata/Michel/SpatialProb/IndividualPriorityMaps/Experiment2/data/subject-4.csv","legacy","9","192","25","Jazzy James","3.1.3","yes","598477b2b83f69022949e7e9","47","green","circular","green","rectangular","0","\","1140","space","14477","14477","(80, 80, 80)","(0, 122, 0)","(179, 0, 0)","(155, 155, 155)","2","legacy","experiment","[3, 4, 5, 6, 7, 0, 1, 2]","\","2500","3000","0","8","252.758751519","1024","2","48000","-16","main","[(0, -252), (178, -178), (252, 0), (178, 178), (0, 252), (-178, 178), (-252, 0), (-178, -178)]","[]","4","even","4","1219558","1339054","1339054","1105710","1104703","1746","1138010","1138010","1746","1746","1120187","1405954","1742","1339054","1404810","1403821","1403821","NA","983","study_X","0","14477","1","yes","1680"
"undefined","undefined","14477","14477","black","no","legacy","legacy","legacy","0","green","(0, 122, 0)","color","present","highProb","rectangular","same","swap","swap","same","red","(179, 0, 0)","lowProb","lowProb6","rectangular","uniform","0","undefined","0.104166666667","1","1","154.973958333","1","20","29755","0","0","0","0","0","0","0","0","49","0","1","0.104166666667","154.973958333","20","29755","49","49","49","08/11/17 10:42:55","Default description","yes","<openexp._canvas.legacy.legacy object at 0x04A127F0>","<openexp._canvas.legacy.legacy object at 0x04A1D7B0>","<openexp._canvas.legacy.legacy object at 0x04A0A410>","<openexp._canvas.legacy.legacy object at 0x04B009D0>","<openexp._canvas.legacy.legacy object at 0x04AD14B0>","<openexp._canvas.legacy.legacy object at 0x04B010B0>","<openexp._canvas.legacy.legacy object at 0x04AD2A50>","75","IndividualPriorityWithDis_v1.osexp","C:/Userdata/Michel/SpatialProb/IndividualPriorityMaps/Experiment2","no","mono","no","18","no","white","no","yes","0.09","98","1050","legacy","45","24","24","1","C:/Userdata/Michel/SpatialProb/IndividualPriorityMaps/Experiment2/data/subject-4.csv","legacy","9","192","25","Jazzy James","3.1.3","yes","598477b2b83f69022949e7e9","47","green","rectangular","red","rectangular","0","/","1942","space","14477","14477","(80, 80, 80)","(0, 122, 0)","(179, 0, 0)","(155, 155, 155)","2","legacy","experiment","[3, 4, 5, 6, 7, 0, 1, 2]","\","2500","3000","0","8","252.758751519","1024","2","48000","-16","main","[(0, -252), (178, -178), (252, 0), (178, 178), (0, 252), (-178, 178), (-252, 0), (-178, -178)]","[]","4","even","2","1219558","1339054","1339054","1105710","1104703","1746","1138010","1138010","1746","1746","1120187","1409306","1742","1339054","1407360","1406371","1406372","NA","983","study_X","0","14477","1","yes","1680"
"undefined","undefined","14477","14477","black","no","legacy","legacy","legacy","0","green","(0, 122, 0)","color","present","highProb","rectangular","same","same","same","same","red","(179, 0, 0)","highProbShape","highProbShape","rectangular","uniform","1","undefined","0.109375","1","1","165.515625","1","21","31779","0","0","0","0","0","0","0","0","50","0","1","0.109375","165.515625","21","31779","50","50","50","08/11/17 10:42:55","Default description","yes","<openexp._canvas.legacy.legacy object at 0x04A127F0>","<openexp._canvas.legacy.legacy object at 0x04A1D7B0>","<openexp._canvas.legacy.legacy object at 0x04A0A410>","<openexp._canvas.legacy.legacy object at 0x04B009D0>","<openexp._canvas.legacy.legacy object at 0x04AD14B0>","<openexp._canvas.legacy.legacy object at 0x04A1D750>","<openexp._canvas.legacy.legacy object at 0x04AD2A50>","75","IndividualPriorityWithDis_v1.osexp","C:/Userdata/Michel/SpatialProb/IndividualPriorityMaps/Experiment2","no","mono","no","18","no","white","no","yes","0.09","98","1050","legacy","315","25","25","1","C:/Userdata/Michel/SpatialProb/IndividualPriorityMaps/Experiment2/data/subject-4.csv","legacy","9","192","25","Jazzy James","3.1.3","yes","598477b2b83f69022949e7e9","47","green","rectangular","red","rectangular","0","/","2024","space","14477","14477","(80, 80, 80)","(0, 122, 0)","(179, 0, 0)","(155, 155, 155)","2","legacy","experiment","[3, 4, 5, 6, 7, 0, 1, 2]","/","2500","3000","0","8","252.758751519","1024","2","48000","-16","main","[(0, -252), (178, -178), (252, 0), (178, 178), (0, 252), (-178, 178), (-252, 0), (-178, -178)]","[]","4","even","7","1219558","1339054","1339054","1105710","1104703","1746","1138010","1138010","1746","1746","1120187","1412729","1742","1339054","1410702","1409713","1409713","NA","983","study_X","0","14477","1","yes","1680"
"undefined","undefined","14477","14477","black","no","legacy","legacy","legacy","0","green","(0, 122, 0)","shape","present","lowProb2","circular","same","swap","swap","same","green","(0, 122, 0)","lowProb","lowProb3","rectangular","uniform","0","undefined","0.109375","1","1","178.536458333","1","21","34279","0","0","0","0","0","0","0","0","51","0","1","0.109375","178.536458333","21","34279","51","51","51","08/11/17 10:42:55","Default description","yes","<openexp._canvas.legacy.legacy object at 0x04A127F0>","<openexp._canvas.legacy.legacy object at 0x04A1D7B0>","<openexp._canvas.legacy.legacy object at 0x04A0A410>","<openexp._canvas.legacy.legacy object at 0x04B009D0>","<openexp._canvas.legacy.legacy object at 0x04AD14B0>","<openexp._canvas.legacy.legacy object at 0x04A0F230>","<openexp._canvas.legacy.legacy object at 0x04AD2A50>","75","IndividualPriorityWithDis_v1.osexp","C:/Userdata/Michel/SpatialProb/IndividualPriorityMaps/Experiment2","no","mono","no","18","no","white","no","yes","0.09","98","1050","legacy","315","26","26","1","C:/Userdata/Michel/SpatialProb/IndividualPriorityMaps/Experiment2/data/subject-4.csv","legacy","9","192","25","Jazzy James","3.1.3","yes","598477b2b83f69022949e7e9","47","green","circular","green","rectangular","0","None","2500","space","14477","14477","(80, 80, 80)","(0, 122, 0)","(179, 0, 0)","(155, 155, 155)","2","legacy","experiment","[3, 4, 5, 6, 7, 0, 1, 2]","/","2500","3000","0","8","252.758751519","1024","2","48000","-16","main","[(0, -252), (178, -178), (252, 0), (178, 178), (0, 252), (-178, 178), (-252, 0), (-178, -178)]","[]","4","even","6","1219558","1339054","1339054","1105710","1104703","1746","1138010","1138010","1746","1746","1120187","1416641","1742","1339054","1414138","1413149","1413149","NA","983","study_X","0","14477","1","yes","1680"
"undefined","undefined","14477","14477","black","no","legacy","legacy","legacy","0","red","(179, 0, 0)","shape","present","highProb","circular","swap","same","swap","same","red","(179, 0, 0)","lowProb","lowProb2","rectangular","uniform","1","undefined","0.114583333333","1","1","182.34375","1","22","35010","0","0","0","0","0","0","0","0","52","0","1","0.114583333333","182.34375","22","35010","52","52","52","08/11/17 10:42:55","Default description","yes","<openexp._canvas.legacy.legacy object at 0x04A127F0>","<openexp._canvas.legacy.legacy object at 0x04A1D7B0>","<openexp._canvas.legacy.legacy object at 0x04A0A410>","<openexp._canvas.legacy.legacy object at 0x04B009D0>","<openexp._canvas.legacy.legacy object at 0x04AD14B0>","<openexp._canvas.legacy.legacy object at 0x04A1DFD0>","<openexp._canvas.legacy.legacy object at 0x04AD2A50>","75","IndividualPriorityWithDis_v1.osexp","C:/Userdata/Michel/SpatialProb/IndividualPriorityMaps/Experiment2","no","mono","no","18","no","white","no","yes","0.09","98","1050","legacy","315","27","27","1","C:/Userdata/Michel/SpatialProb/IndividualPriorityMaps/Experiment2/data/subject-4.csv","legacy","9","192","25","Jazzy James","3.1.3","yes","598477b2b83f69022949e7e9","47","red","circular","red","rectangular","0","/","731","space","14477","14477","(80, 80, 80)","(0, 122, 0)","(179, 0, 0)","(155, 155, 155)","2","legacy","experiment","[3, 4, 5, 6, 7, 0, 1, 2]","/","2500","3000","0","8","252.758751519","1024","2","48000","-16","main","[(0, -252), (178, -178), (252, 0), (178, 178), (0, 252), (-178, 178), (-252, 0), (-178, -178)]","[]","4","even","5","1219558","1339054","1339054","1105710","1104703","1746","1138010","1138010","1746","1746","1120187","1418777","1742","1339054","1418043","1417054","1417054","NA","983","study_X","0","14477","1","yes","1680"
"undefined","undefined","14477","14477","black","no","legacy","legacy","legacy","0","green","(0, 122, 0)","color","present","lowProb2","circular","swap","same","same","swap","red","(179, 0, 0)","highProbColor","highProbColor","circular","uniform","1","undefined","0.119791666667","1","1","186.296875","1","23","35769","0","0","0","0","0","0","0","0","53","0","1","0.119791666667","186.296875","23","35769","53","53","53","08/11/17 10:42:55","Default description","yes","<openexp._canvas.legacy.legacy object at 0x04A127F0>","<openexp._canvas.legacy.legacy object at 0x04A1D7B0>","<openexp._canvas.legacy.legacy object at 0x04A0A410>","<openexp._canvas.legacy.legacy object at 0x04B009D0>","<openexp._canvas.legacy.legacy object at 0x04AD14B0>","<openexp._canvas.legacy.legacy object at 0x04B01D50>","<openexp._canvas.legacy.legacy object at 0x04AD2A50>","75","IndividualPriorityWithDis_v1.osexp","C:/Userdata/Michel/SpatialProb/IndividualPriorityMaps/Experiment2","no","mono","no","18","no","white","no","yes","0.09","98","1050","legacy","315","28","28","1","C:/Userdata/Michel/SpatialProb/IndividualPriorityMaps/Experiment2/data/subject-4.csv","legacy","9","192","25","Jazzy James","3.1.3","yes","598477b2b83f69022949e7e9","47","green","circular","red","circular","0","/","759","space","14477","14477","(80, 80, 80)","(0, 122, 0)","(179, 0, 0)","(155, 155, 155)","2","legacy","experiment","[3, 4, 5, 6, 7, 0, 1, 2]","/","2500","3000","0","8","252.758751519","1024","2","48000","-16","main","[(0, -252), (178, -178), (252, 0), (178, 178), (0, 252), (-178, 178), (-252, 0), (-178, -178)]","[]","4","even","3","1219558","1339054","1339054","1105710","1104703","1746","1138010","1138010","1746","1746","1120187","1420977","1742","1339054","1420214","1419225","1419226","NA","983","study_X","0","14477","1","yes","1680"
"undefined","undefined","14477","14477","black","no","legacy","legacy","legacy","0","red","(179, 0, 0)","color","present","lowProb4","circular","swap","same","swap","same","green","(0, 122, 0)","lowProb","lowProb5","circular","uniform","1","undefined","0.125","1","1","191.463541667","1","24","36761","0","0","0","0","0","0","0","0","54","0","1","0.125","191.463541667","24","36761","54","54","54","08/11/17 10:42:55","Default description","yes","<openexp._canvas.legacy.legacy object at 0x04A127F0>","<openexp._canvas.legacy.legacy object at 0x04A1D7B0>","<openexp._canvas.legacy.legacy object at 0x04A0A410>","<openexp._canvas.legacy.legacy object at 0x04B009D0>","<openexp._canvas.legacy.legacy object at 0x04AD14B0>","<openexp._canvas.legacy.legacy object at 0x04A21DD0>","<openexp._canvas.legacy.legacy object at 0x04AD2A50>","75","IndividualPriorityWithDis_v1.osexp","C:/Userdata/Michel/SpatialProb/IndividualPriorityMaps/Experiment2","no","mono","no","18","no","white","no","yes","0.09","98","1050","legacy","315","29","29","1","C:/Userdata/Michel/SpatialProb/IndividualPriorityMaps/Experiment2/data/subject-4.csv","legacy","9","192","25","Jazzy James","3.1.3","yes","598477b2b83f69022949e7e9","47","red","circular","green","circular","0","/","992","space","14477","14477","(80, 80, 80)","(0, 122, 0)","(179, 0, 0)","(155, 155, 155)","2","legacy","experiment","[3, 4, 5, 6, 7, 0, 1, 2]","/","2500","3000","0","8","252.758751519","1024","2","48000","-16","main","[(0, -252), (178, -178), (252, 0), (178, 178), (0, 252), (-178, 178), (-252, 0), (-178, -178)]","[]","4","even","1","1219558","1339054","1339054","1105710","1104703","1746","1138010","1138010","1746","1746","1120187","1423386","1742","1339054","1422390","1421401","1421401","NA","983","study_X","0","14477","1","yes","1680"
"undefined","undefined","14477","14477","black","no","legacy","legacy","legacy","0","green","(0, 122, 0)","color","present","lowProb4","rectangular","swap","swap","swap","swap","red","(179, 0, 0)","lowProb","lowProb6","rectangular","uniform","1","undefined","0.130208333333","1","1","201.130208333","1","25","38617","0","0","0","0","0","0","0","0","55","0","1","0.130208333333","201.130208333","25","38617","55","55","55","08/11/17 10:42:55","Default description","yes","<openexp._canvas.legacy.legacy object at 0x04A127F0>","<openexp._canvas.legacy.legacy object at 0x04A1D7B0>","<openexp._canvas.legacy.legacy object at 0x04A0A410>","<openexp._canvas.legacy.legacy object at 0x04B009D0>","<openexp._canvas.legacy.legacy object at 0x04AD14B0>","<openexp._canvas.legacy.legacy object at 0x04B01630>","<openexp._canvas.legacy.legacy object at 0x04AD2A50>","75","IndividualPriorityWithDis_v1.osexp","C:/Userdata/Michel/SpatialProb/IndividualPriorityMaps/Experiment2","no","mono","no","18","no","white","no","yes","0.09","98","1050","legacy","45","30","30","1","C:/Userdata/Michel/SpatialProb/IndividualPriorityMaps/Experiment2/data/subject-4.csv","legacy","9","192","25","Jazzy James","3.1.3","yes","598477b2b83f69022949e7e9","47","green","rectangular","red","rectangular","0","\","1856","space","14477","14477","(80, 80, 80)","(0, 122, 0)","(179, 0, 0)","(155, 155, 155)","2","legacy","experiment","[3, 4, 5, 6, 7, 0, 1, 2]","\","2500","3000","0","8","252.758751519","1024","2","48000","-16","main","[(0, -252), (178, -178), (252, 0), (178, 178), (0, 252), (-178, 178), (-252, 0), (-178, -178)]","[]","4","even","2","1219558","1339054","1339054","1105710","1104703","1746","1138010","1138010","1746","1746","1120187","1426642","1742","1339054","1424782","1423794","1423794","NA","983","study_X","0","14477","1","yes","1680"
"undefined","undefined","14477","14477","black","no","legacy","legacy","legacy","0","red","(179, 0, 0)","shape","present","highProb","rectangular","swap","same","same","swap","red","(179, 0, 0)","lowProb","lowProb5","circular","uniform","1","undefined","0.135416666667","1","1","209.536458333","1","26","40231","0","0","0","0","0","0","0","0","56","0","1","0.135416666667","209.536458333","26","40231","56","56","56","08/11/17 10:42:55","Default description","yes","<openexp._canvas.legacy.legacy object at 0x04A127F0>","<openexp._canvas.legacy.legacy object at 0x04A1D7B0>","<openexp._canvas.legacy.legacy object at 0x04A0A410>","<openexp._canvas.legacy.legacy object at 0x04B009D0>","<openexp._canvas.legacy.legacy object at 0x04AD14B0>","<openexp._canvas.legacy.legacy object at 0x04A21B70>","<openexp._canvas.legacy.legacy object at 0x04AD2A50>","75","IndividualPriorityWithDis_v1.osexp","C:/Userdata/Michel/SpatialProb/IndividualPriorityMaps/Experiment2","no","mono","no","18","no","white","no","yes","0.09","98","1050","legacy","315","31","31","1","C:/Userdata/Michel/SpatialProb/IndividualPriorityMaps/Experiment2/data/subject-4.csv","legacy","9","192","25","Jazzy James","3.1.3","yes","598477b2b83f69022949e7e9","47","red","rectangular","red","circular","0","/","1614","space","14477","14477","(80, 80, 80)","(0, 122, 0)","(179, 0, 0)","(155, 155, 155)","2","legacy","experiment","[3, 4, 5, 6, 7, 0, 1, 2]","/","2500","3000","0","8","252.758751519","1024","2","48000","-16","main","[(0, -252), (178, -178), (252, 0), (178, 178), (0, 252), (-178, 178), (-252, 0), (-178, -178)]","[]","4","even","1","1219558","1339054","1339054","1105710","1104703","1746","1138010","1138010","1746","1746","1120187","1429665","1742","1339054","1428048","1427059","1427059","NA","983","study_X","0","14477","1","yes","1680"
"undefined","undefined","14477","14477","black","no","legacy","legacy","legacy","0","red","(179, 0, 0)","shape","present","highProb","circular","same","swap","same","swap","red","(179, 0, 0)","lowProb","lowProb4","rectangular","uniform","0","undefined","0.135416666667","1","1","222.557291667","1","26","42731","0","0","0","0","0","0","0","0","57","0","1","0.135416666667","222.557291667","26","42731","57","57","57","08/11/17 10:42:55","Default description","yes","<openexp._canvas.legacy.legacy object at 0x04A127F0>","<openexp._canvas.legacy.legacy object at 0x04A1D7B0>","<openexp._canvas.legacy.legacy object at 0x04A0A410>","<openexp._canvas.legacy.legacy object at 0x04B009D0>","<openexp._canvas.legacy.legacy object at 0x04AD14B0>","<openexp._canvas.legacy.legacy object at 0x04A19190>","<openexp._canvas.legacy.legacy object at 0x04AD2A50>","75","IndividualPriorityWithDis_v1.osexp","C:/Userdata/Michel/SpatialProb/IndividualPriorityMaps/Experiment2","no","mono","no","18","no","white","no","yes","0.09","98","1050","legacy","315","32","32","1","C:/Userdata/Michel/SpatialProb/IndividualPriorityMaps/Experiment2/data/subject-4.csv","legacy","9","192","25","Jazzy James","3.1.3","yes","598477b2b83f69022949e7e9","47","red","circular","red","rectangular","0","None","2500","space","14477","14477","(80, 80, 80)","(0, 122, 0)","(179, 0, 0)","(155, 155, 155)","2","legacy","experiment","[3, 4, 5, 6, 7, 0, 1, 2]","/","2500","3000","0","8","252.758751519","1024","2","48000","-16","main","[(0, -252), (178, -178), (252, 0), (178, 178), (0, 252), (-178, 178), (-252, 0), (-178, -178)]","[]","4","even","0","1219558","1339054","1339054","1105710","1104703","1746","1138010","1138010","1746","1746","1120187","1433572","1742","1339054","1431069","1430080","1430080","NA","983","study_X","0","14477","1","yes","1680"
"undefined","undefined","14477","14477","black","no","legacy","legacy","legacy","0","green","(0, 122, 0)","shape","present","highProb","circular","swap","same","swap","same","green","(0, 122, 0)","lowProb","lowProb1","rectangular","uniform","1","undefined","0.140625","1","1","228.546875","1","27","43881","0","0","0","0","0","0","0","0","58","0","1","0.140625","228.546875","27","43881","58","58","58","08/11/17 10:42:55","Default description","yes","<openexp._canvas.legacy.legacy object at 0x04A127F0>","<openexp._canvas.legacy.legacy object at 0x04A1D7B0>","<openexp._canvas.legacy.legacy object at 0x04A0A410>","<openexp._canvas.legacy.legacy object at 0x04B009D0>","<openexp._canvas.legacy.legacy object at 0x04AD14B0>","<openexp._canvas.legacy.legacy object at 0x04B00B30>","<openexp._canvas.legacy.legacy object at 0x04AD2A50>","75","IndividualPriorityWithDis_v1.osexp","C:/Userdata/Michel/SpatialProb/IndividualPriorityMaps/Experiment2","no","mono","no","18","no","white","no","yes","0.09","98","1050","legacy","315","33","33","1","C:/Userdata/Michel/SpatialProb/IndividualPriorityMaps/Experiment2/data/subject-4.csv","legacy","9","192","25","Jazzy James","3.1.3","yes","598477b2b83f69022949e7e9","47","green","circular","green","rectangular","0","/","1150","space","14477","14477","(80, 80, 80)","(0, 122, 0)","(179, 0, 0)","(155, 155, 155)","2","legacy","experiment","[3, 4, 5, 6, 7, 0, 1, 2]","/","2500","3000","0","8","252.758751519","1024","2","48000","-16","main","[(0, -252), (178, -178), (252, 0), (178, 178), (0, 252), (-178, 178), (-252, 0), (-178, -178)]","[]","4","even","4","1219558","1339054","1339054","1105710","1104703","1746","1138010","1138010","1746","1746","1120187","1436129","1742","1339054","1434977","1433988","1433988","NA","983","study_X","0","14477","1","yes","1680"
"undefined","undefined","14477","14477","black","no","legacy","legacy","legacy","0","red","(179, 0, 0)","color","present","highProb","circular","swap","same","same","swap","green","(0, 122, 0)","highProbShape","highProbShape","circular","uniform","1","undefined","0.145833333333","1","1","233.197916667","1","28","44774","0","0","0","0","0","0","0","0","59","0","1","0.145833333333","233.197916667","28","44774","59","59","59","08/11/17 10:42:55","Default description","yes","<openexp._canvas.legacy.legacy object at 0x04A127F0>","<openexp._canvas.legacy.legacy object at 0x04A1D7B0>","<openexp._canvas.legacy.legacy object at 0x04A0A410>","<openexp._canvas.legacy.legacy object at 0x04B009D0>","<openexp._canvas.legacy.legacy object at 0x04AD14B0>","<openexp._canvas.legacy.legacy object at 0x04A0FC50>","<openexp._canvas.legacy.legacy object at 0x04AD2A50>","75","IndividualPriorityWithDis_v1.osexp","C:/Userdata/Michel/SpatialProb/IndividualPriorityMaps/Experiment2","no","mono","no","18","no","white","no","yes","0.09","98","1050","legacy","45","34","34","1","C:/Userdata/Michel/SpatialProb/IndividualPriorityMaps/Experiment2/data/subject-4.csv","legacy","9","192","25","Jazzy James","3.1.3","yes","598477b2b83f69022949e7e9","47","red","circular","green","circular","0","\","893","space","14477","14477","(80, 80, 80)","(0, 122, 0)","(179, 0, 0)","(155, 155, 155)","2","legacy","experiment","[3, 4, 5, 6, 7, 0, 1, 2]","\","2500","3000","0","8","252.758751519","1024","2","48000","-16","main","[(0, -252), (178, -178), (252, 0), (178, 178), (0, 252), (-178, 178), (-252, 0), (-178, -178)]","[]","4","even","7","1219558","1339054","1339054","1105710","1104703","1746","1138010","1138010","1746","1746","1120187","1438441","1742","1339054","1437544","1436555","1436555","NA","983","study_X","0","14477","1","yes","1680"
"undefined","undefined","14477","14477","black","no","legacy","legacy","legacy","0","red","(179, 0, 0)","shape","present","lowProb5","circular","same","same","swap","swap","red","(179, 0, 0)","lowProb","lowProb4","rectangular","uniform","0","undefined","0.145833333333","1","1","246.21875","1","28","47274","0","0","0","0","0","0","0","0","60","0","1","0.145833333333","246.21875","28","47274","60","60","60","08/11/17 10:42:55","Default description","yes","<openexp._canvas.legacy.legacy object at 0x04A127F0>","<openexp._canvas.legacy.legacy object at 0x04A1D7B0>","<openexp._canvas.legacy.legacy object at 0x04A0A410>","<openexp._canvas.legacy.legacy object at 0x04B009D0>","<openexp._canvas.legacy.legacy object at 0x04AD14B0>","<openexp._canvas.legacy.legacy object at 0x04A0EAD0>","<openexp._canvas.legacy.legacy object at 0x04AD2A50>","75","IndividualPriorityWithDis_v1.osexp","C:/Userdata/Michel/SpatialProb/IndividualPriorityMaps/Experiment2","no","mono","no","18","no","white","no","yes","0.09","98","1050","legacy","45","35","35","1","C:/Userdata/Michel/SpatialProb/IndividualPriorityMaps/Experiment2/data/subject-4.csv","legacy","9","192","25","Jazzy James","3.1.3","yes","598477b2b83f69022949e7e9","47","red","circular","red","rectangular","0","None","2500","space","14477","14477","(80, 80, 80)","(0, 122, 0)","(179, 0, 0)","(155, 155, 155)","2","legacy","experiment","[3, 4, 5, 6, 7, 0, 1, 2]","\","2500","3000","0","8","252.758751519","1024","2","48000","-16","main","[(0, -252), (178, -178), (252, 0), (178, 178), (0, 252), (-178, 178), (-252, 0), (-178, -178)]","[]","4","even","0","1219558","1339054","1339054","1105710","1104703","1746","1138010","1138010","1746","1746","1120187","1442364","1742","1339054","1439861","1438872","1438872","NA","983","study_X","0","14477","1","yes","1680"
"undefined","undefined","14477","14477","black","no","legacy","legacy","legacy","0","red","(179, 0, 0)","color","absent","lowProb2","circular","same","same","same","swap","red","(179, 0, 0)","lowProb","lowProb5","circular","uniform","0","undefined","0.145833333333","1","1","254.494791667","1","28","48863","0","0","0","0","0","0","0","0","61","0","1","0.145833333333","254.494791667","28","48863","61","61","61","08/11/17 10:42:55","Default description","yes","<openexp._canvas.legacy.legacy object at 0x04A127F0>","<openexp._canvas.legacy.legacy object at 0x04A1D7B0>","<openexp._canvas.legacy.legacy object at 0x04A0A410>","<openexp._canvas.legacy.legacy object at 0x04B009D0>","<openexp._canvas.legacy.legacy object at 0x04AD14B0>","<openexp._canvas.legacy.legacy object at 0x04B00410>","<openexp._canvas.legacy.legacy object at 0x04AD2A50>","75","IndividualPriorityWithDis_v1.osexp","C:/Userdata/Michel/SpatialProb/IndividualPriorityMaps/Experiment2","no","mono","no","18","no","white","no","yes","0.09","98","1050","legacy","45","36","36","1","C:/Userdata/Michel/SpatialProb/IndividualPriorityMaps/Experiment2/data/subject-4.csv","legacy","9","192","25","Jazzy James","3.1.3","yes","598477b2b83f69022949e7e9","47","red","circular","red","circular","0","/","1589","space","14477","14477","(80, 80, 80)","(0, 122, 0)","(179, 0, 0)","(155, 155, 155)","2","legacy","experiment","[3, 4, 5, 6, 7, 0, 1, 2]","\","2500","3000","0","8","252.758751519","1024","2","48000","-16","main","[(0, -252), (178, -178), (252, 0), (178, 178), (0, 252), (-178, 178), (-252, 0), (-178, -178)]","[]","4","even","1","1219558","1339054","1339054","1105710","1104703","1746","1138010","1138010","1746","1746","1120187","1445369","1742","1339054","1443777","1442789","1442789","NA","983","study_X","0","14477","1","yes","1680"
"undefined","undefined","14477","14477","black","no","legacy","legacy","legacy","0","green","(0, 122, 0)","shape","absent","lowProb2","rectangular","swap","swap","swap","swap","green","(0, 122, 0)","lowProb","lowProb3","rectangular","uniform","1","undefined","0.151041666667","1","1","267.046875","1","29","51273","0","0","0","0","0","0","0","0","62","0","1","0.151041666667","267.046875","29","51273","62","62","62","08/11/17 10:42:55","Default description","yes","<openexp._canvas.legacy.legacy object at 0x04A127F0>","<openexp._canvas.legacy.legacy object at 0x04A1D7B0>","<openexp._canvas.legacy.legacy object at 0x04A0A410>","<openexp._canvas.legacy.legacy object at 0x04B009D0>","<openexp._canvas.legacy.legacy object at 0x04AD14B0>","<openexp._canvas.legacy.legacy object at 0x04A12090>","<openexp._canvas.legacy.legacy object at 0x04AD2A50>","75","IndividualPriorityWithDis_v1.osexp","C:/Userdata/Michel/SpatialProb/IndividualPriorityMaps/Experiment2","no","mono","no","18","no","white","no","yes","0.09","98","1050","legacy","45","37","37","1","C:/Userdata/Michel/SpatialProb/IndividualPriorityMaps/Experiment2/data/subject-4.csv","legacy","9","192","25","Jazzy James","3.1.3","yes","598477b2b83f69022949e7e9","47","green","rectangular","green","rectangular","0","\","2410","space","14477","14477","(80, 80, 80)","(0, 122, 0)","(179, 0, 0)","(155, 155, 155)","2","legacy","experiment","[3, 4, 5, 6, 7, 0, 1, 2]","\","2500","3000","0","8","252.758751519","1024","2","48000","-16","main","[(0, -252), (178, -178), (252, 0), (178, 178), (0, 252), (-178, 178), (-252, 0), (-178, -178)]","[]","4","even","6","1219558","1339054","1339054","1105710","1104703","1746","1138010","1138010","1746","1746","1120187","1449185","1742","1339054","1446772","1445783","1445783","NA","983","study_X","0","14477","1","yes","1680"
"undefined","undefined","14477","14477","black","no","legacy","legacy","legacy","0","green","(0, 122, 0)","color","present","highProb","circular","same","swap","swap","swap","red","(179, 0, 0)","lowProb","lowProb2","circular","uniform","1","undefined","0.15625","1","1","270.5625","1","30","51948","0","0","0","0","0","0","0","0","63","0","1","0.15625","270.5625","30","51948","63","63","63","08/11/17 10:42:55","Default description","yes","<openexp._canvas.legacy.legacy object at 0x04A127F0>","<openexp._canvas.legacy.legacy object at 0x04A1D7B0>","<openexp._canvas.legacy.legacy object at 0x04A0A410>","<openexp._canvas.legacy.legacy object at 0x04B009D0>","<openexp._canvas.legacy.legacy object at 0x04AD14B0>","<openexp._canvas.legacy.legacy object at 0x04A0E150>","<openexp._canvas.legacy.legacy object at 0x04AD2A50>","75","IndividualPriorityWithDis_v1.osexp","C:/Userdata/Michel/SpatialProb/IndividualPriorityMaps/Experiment2","no","mono","no","18","no","white","no","yes","0.09","98","1050","legacy","315","38","38","1","C:/Userdata/Michel/SpatialProb/IndividualPriorityMaps/Experiment2/data/subject-4.csv","legacy","9","192","25","Jazzy James","3.1.3","yes","598477b2b83f69022949e7e9","47","green","circular","red","circular","0","/","675","space","14477","14477","(80, 80, 80)","(0, 122, 0)","(179, 0, 0)","(155, 155, 155)","2","legacy","experiment","[3, 4, 5, 6, 7, 0, 1, 2]","/","2500","3000","0","8","252.758751519","1024","2","48000","-16","main","[(0, -252), (178, -178), (252, 0), (178, 178), (0, 252), (-178, 178), (-252, 0), (-178, -178)]","[]","4","even","5","1219558","1339054","1339054","1105710","1104703","1746","1138010","1138010","1746","1746","1120187","1451273","1742","1339054","1450595","1449606","1449607","NA","983","study_X","0","14477","1","yes","1680"
"undefined","undefined","14477","14477","black","no","legacy","legacy","legacy","0","red","(179, 0, 0)","color","present","highProb","circular","swap","same","swap","same","green","(0, 122, 0)","lowProb","lowProb1","circular","uniform","1","undefined","0.161458333333","1","1","276.947916667","1","31","53174","0","0","0","0","0","0","0","0","64","0","1","0.161458333333","276.947916667","31","53174","64","64","64","08/11/17 10:42:55","Default description","yes","<openexp._canvas.legacy.legacy object at 0x04A127F0>","<openexp._canvas.legacy.legacy object at 0x04A1D7B0>","<openexp._canvas.legacy.legacy object at 0x04A0A410>","<openexp._canvas.legacy.legacy object at 0x04B009D0>","<openexp._canvas.legacy.legacy object at 0x04AD14B0>","<openexp._canvas.legacy.legacy object at 0x04A12D30>","<openexp._canvas.legacy.legacy object at 0x04AD2A50>","75","IndividualPriorityWithDis_v1.osexp","C:/Userdata/Michel/SpatialProb/IndividualPriorityMaps/Experiment2","no","mono","no","18","no","white","no","yes","0.09","98","1050","legacy","315","39","39","1","C:/Userdata/Michel/SpatialProb/IndividualPriorityMaps/Experiment2/data/subject-4.csv","legacy","9","192","25","Jazzy James","3.1.3","yes","598477b2b83f69022949e7e9","47","red","circular","green","circular","0","/","1226","space","14477","14477","(80, 80, 80)","(0, 122, 0)","(179, 0, 0)","(155, 155, 155)","2","legacy","experiment","[3, 4, 5, 6, 7, 0, 1, 2]","/","2500","3000","0","8","252.758751519","1024","2","48000","-16","main","[(0, -252), (178, -178), (252, 0), (178, 178), (0, 252), (-178, 178), (-252, 0), (-178, -178)]","[]","4","even","4","1219558","1339054","1339054","1105710","1104703","1746","1138010","1138010","1746","1746","1120187","1453921","1742","1339054","1452691","1451702","1451702","NA","983","study_X","0","14477","1","yes","1680"
"undefined","undefined","14477","14477","black","no","legacy","legacy","legacy","0","red","(179, 0, 0)","color","present","highProb","circular","same","same","same","same","green","(0, 122, 0)","lowProb","lowProb5","circular","uniform","0","undefined","0.161458333333","1","1","287.114583333","1","31","55126","0","0","0","0","0","0","0","0","65","0","1","0.161458333333","287.114583333","31","55126","65","65","65","08/11/17 10:42:55","Default description","yes","<openexp._canvas.legacy.legacy object at 0x04A127F0>","<openexp._canvas.legacy.legacy object at 0x04A1D7B0>","<openexp._canvas.legacy.legacy object at 0x04A0A410>","<openexp._canvas.legacy.legacy object at 0x04B009D0>","<openexp._canvas.legacy.legacy object at 0x04AD14B0>","<openexp._canvas.legacy.legacy object at 0x04B00CF0>","<openexp._canvas.legacy.legacy object at 0x04AD2A50>","75","IndividualPriorityWithDis_v1.osexp","C:/Userdata/Michel/SpatialProb/IndividualPriorityMaps/Experiment2","no","mono","no","18","no","white","no","yes","0.09","98","1050","legacy","45","40","40","1","C:/Userdata/Michel/SpatialProb/IndividualPriorityMaps/Experiment2/data/subject-4.csv","legacy","9","192","25","Jazzy James","3.1.3","yes","598477b2b83f69022949e7e9","47","red","circular","green","circular","0","/","1952","space","14477","14477","(80, 80, 80)","(0, 122, 0)","(179, 0, 0)","(155, 155, 155)","2","legacy","experiment","[3, 4, 5, 6, 7, 0, 1, 2]","\","2500","3000","0","8","252.758751519","1024","2","48000","-16","main","[(0, -252), (178, -178), (252, 0), (178, 178), (0, 252), (-178, 178), (-252, 0), (-178, -178)]","[]","4","even","1","1219558","1339054","1339054","1105710","1104703","1746","1138010","1138010","1746","1746","1120187","1457289","1742","1339054","1455333","1454345","1454345","NA","983","study_X","0","14477","1","yes","1680"
"undefined","undefined","14477","14477","black","no","legacy","legacy","legacy","0","green","(0, 122, 0)","shape","absent","lowProb2","rectangular","swap","swap","same","swap","green","(0, 122, 0)","highProbColor","highProbColor","rectangular","uniform","0","undefined","0.161458333333","1","1","300.135416667","1","31","57626","0","0","0","0","0","0","0","0","66","0","1","0.161458333333","300.135416667","31","57626","66","66","66","08/11/17 10:42:55","Default description","yes","<openexp._canvas.legacy.legacy object at 0x04A127F0>","<openexp._canvas.legacy.legacy object at 0x04A1D7B0>","<openexp._canvas.legacy.legacy object at 0x04A0A410>","<openexp._canvas.legacy.legacy object at 0x04B009D0>","<openexp._canvas.legacy.legacy object at 0x04AD14B0>","<openexp._canvas.legacy.legacy object at 0x04A190F0>","<openexp._canvas.legacy.legacy object at 0x04AD2A50>","75","IndividualPriorityWithDis_v1.osexp","C:/Userdata/Michel/SpatialProb/IndividualPriorityMaps/Experiment2","no","mono","no","18","no","white","no","yes","0.09","98","1050","legacy","45","41","41","1","C:/Userdata/Michel/SpatialProb/IndividualPriorityMaps/Experiment2/data/subject-4.csv","legacy","9","192","25","Jazzy James","3.1.3","yes","598477b2b83f69022949e7e9","47","green","rectangular","green","rectangular","0","None","2500","space","14477","14477","(80, 80, 80)","(0, 122, 0)","(179, 0, 0)","(155, 155, 155)","2","legacy","experiment","[3, 4, 5, 6, 7, 0, 1, 2]","\","2500","3000","0","8","252.758751519","1024","2","48000","-16","main","[(0, -252), (178, -178), (252, 0), (178, 178), (0, 252), (-178, 178), (-252, 0), (-178, -178)]","[]","4","even","3","1219558","1339054","1339054","1105710","1104703","1746","1138010","1138010","1746","1746","1120187","1461195","1742","1339054","1458692","1457703","1457703","NA","983","study_X","0","14477","1","yes","1680"
"undefined","undefined","14477","14477","black","no","legacy","legacy","legacy","0","green","(0, 122, 0)","color","present","highProb","circular","same","swap","swap","swap","red","(179, 0, 0)","lowProb","lowProb4","circular","uniform","0","undefined","0.161458333333","1","1","313.15625","1","31","60126","0","0","0","0","0","0","0","0","67","0","1","0.161458333333","313.15625","31","60126","67","67","67","08/11/17 10:42:55","Default description","yes","<openexp._canvas.legacy.legacy object at 0x04A127F0>","<openexp._canvas.legacy.legacy object at 0x04A1D7B0>","<openexp._canvas.legacy.legacy object at 0x04A0A410>","<openexp._canvas.legacy.legacy object at 0x04B009D0>","<openexp._canvas.legacy.legacy object at 0x04AD14B0>","<openexp._canvas.legacy.legacy object at 0x04B01410>","<openexp._canvas.legacy.legacy object at 0x04AD2A50>","75","IndividualPriorityWithDis_v1.osexp","C:/Userdata/Michel/SpatialProb/IndividualPriorityMaps/Experiment2","no","mono","no","18","no","white","no","yes","0.09","98","1050","legacy","45","42","42","1","C:/Userdata/Michel/SpatialProb/IndividualPriorityMaps/Experiment2/data/subject-4.csv","legacy","9","192","25","Jazzy James","3.1.3","yes","598477b2b83f69022949e7e9","47","green","circular","red","circular","0","None","2500","space","14477","14477","(80, 80, 80)","(0, 122, 0)","(179, 0, 0)","(155, 155, 155)","2","legacy","experiment","[3, 4, 5, 6, 7, 0, 1, 2]","\","2500","3000","0","8","252.758751519","1024","2","48000","-16","main","[(0, -252), (178, -178), (252, 0), (178, 178), (0, 252), (-178, 178), (-252, 0), (-178, -178)]","[]","4","even","0","1219558","1339054","1339054","1105710","1104703","1746","1138010","1138010","1746","1746","1120187","1465110","1742","1339054","1462607","1461618","1461618","NA","983","study_X","0","14477","1","yes","1680"
"undefined","undefined","14477","14477","black","no","legacy","legacy","legacy","0","green","(0, 122, 0)","shape","present","highProb","rectangular","same","swap","swap","same","green","(0, 122, 0)","highProbColor","highProbColor","circular","uniform","0","undefined","0.161458333333","1","1","322.286458333","1","31","61879","0","0","0","0","0","0","0","0","68","0","1","0.161458333333","322.286458333","31","61879","68","68","68","08/11/17 10:42:55","Default description","yes","<openexp._canvas.legacy.legacy object at 0x04A127F0>","<openexp._canvas.legacy.legacy object at 0x04A1D7B0>","<openexp._canvas.legacy.legacy object at 0x04A0A410>","<openexp._canvas.legacy.legacy object at 0x04B009D0>","<openexp._canvas.legacy.legacy object at 0x04AD14B0>","<openexp._canvas.legacy.legacy object at 0x04A0EBB0>","<openexp._canvas.legacy.legacy object at 0x04AD2A50>","75","IndividualPriorityWithDis_v1.osexp","C:/Userdata/Michel/SpatialProb/IndividualPriorityMaps/Experiment2","no","mono","no","18","no","white","no","yes","0.09","98","1050","legacy","45","43","43","1","C:/Userdata/Michel/SpatialProb/IndividualPriorityMaps/Experiment2/data/subject-4.csv","legacy","9","192","25","Jazzy James","3.1.3","yes","598477b2b83f69022949e7e9","47","green","rectangular","green","circular","0","/","1753","space","14477","14477","(80, 80, 80)","(0, 122, 0)","(179, 0, 0)","(155, 155, 155)","2","legacy","experiment","[3, 4, 5, 6, 7, 0, 1, 2]","\","2500","3000","0","8","252.758751519","1024","2","48000","-16","main","[(0, -252), (178, -178), (252, 0), (178, 178), (0, 252), (-178, 178), (-252, 0), (-178, -178)]","[]","4","even","3","1219558","1339054","1339054","1105710","1104703","1746","1138010","1138010","1746","1746","1120187","1468281","1742","1339054","1466524","1465536","1465536","NA","983","study_X","0","14477","1","yes","1680"
"undefined","undefined","14477","14477","black","no","legacy","legacy","legacy","0","green","(0, 122, 0)","color","present","lowProb5","rectangular","same","same","swap","swap","red","(179, 0, 0)","lowProb","lowProb2","rectangular","uniform","0","undefined","0.161458333333","1","1","335.307291667","1","31","64379","0","0","0","0","0","0","0","0","69","0","1","0.161458333333","335.307291667","31","64379","69","69","69","08/11/17 10:42:55","Default description","yes","<openexp._canvas.legacy.legacy object at 0x04A127F0>","<openexp._canvas.legacy.legacy object at 0x04A1D7B0>","<openexp._canvas.legacy.legacy object at 0x04A0A410>","<openexp._canvas.legacy.legacy object at 0x04B009D0>","<openexp._canvas.legacy.legacy object at 0x04AD14B0>","<openexp._canvas.legacy.legacy object at 0x04A0F270>","<openexp._canvas.legacy.legacy object at 0x04AD2A50>","75","IndividualPriorityWithDis_v1.osexp","C:/Userdata/Michel/SpatialProb/IndividualPriorityMaps/Experiment2","no","mono","no","18","no","white","no","yes","0.09","98","1050","legacy","315","44","44","1","C:/Userdata/Michel/SpatialProb/IndividualPriorityMaps/Experiment2/data/subject-4.csv","legacy","9","192","25","Jazzy James","3.1.3","yes","598477b2b83f69022949e7e9","47","green","rectangular","red","rectangular","0","None","2500","space","14477","14477","(80, 80, 80)","(0, 122, 0)","(179, 0, 0)","(155, 155, 155)","2","legacy","experiment","[3, 4, 5, 6, 7, 0, 1, 2]","/","2500","3000","0","8","252.758751519","1024","2","48000","-16","main","[(0, -252), (178, -178), (252, 0), (178, 178), (0, 252), (-178, 178), (-252, 0), (-178, -178)]","[]","4","even","5","1219558","1339054","1339054","1105710","1104703","1746","1138010","1138010","1746","1746","1120187","1472186","1742","1339054","1469683","1468694","1468694","NA","983","study_X","0","14477","1","yes","1680"
"undefined","undefined","14477","14477","black","no","legacy","legacy","legacy","0","green","(0, 122, 0)","shape","present","highProb","circular","same","swap","swap","same","green","(0, 122, 0)","lowProb","lowProb4","rectangular","uniform","1","undefined","0.166666666667","1","1","348.213541667","1","32","66857","0","0","0","0","0","0","0","0","70","0","1","0.166666666667","348.213541667","32","66857","70","70","70","08/11/17 10:42:55","Default description","yes","<openexp._canvas.legacy.legacy object at 0x04A127F0>","<openexp._canvas.legacy.legacy object at 0x04A1D7B0>","<openexp._canvas.legacy.legacy object at 0x04A0A410>","<openexp._canvas.legacy.legacy object at 0x04B009D0>","<openexp._canvas.legacy.legacy object at 0x04AD14B0>","<openexp._canvas.legacy.legacy object at 0x04A19D30>","<openexp._canvas.legacy.legacy object at 0x04AD2A50>","75","IndividualPriorityWithDis_v1.osexp","C:/Userdata/Michel/SpatialProb/IndividualPriorityMaps/Experiment2","no","mono","no","18","no","white","no","yes","0.09","98","1050","legacy","315","45","45","1","C:/Userdata/Michel/SpatialProb/IndividualPriorityMaps/Experiment2/data/subject-4.csv","legacy","9","192","25","Jazzy James","3.1.3","yes","598477b2b83f69022949e7e9","47","green","circular","green","rectangular","0","/","2478","space","14477","14477","(80, 80, 80)","(0, 122, 0)","(179, 0, 0)","(155, 155, 155)","2","legacy","experiment","[3, 4, 5, 6, 7, 0, 1, 2]","/","2500","3000","0","8","252.758751519","1024","2","48000","-16","main","[(0, -252), (178, -178), (252, 0), (178, 178), (0, 252), (-178, 178), (-252, 0), (-178, -178)]","[]","4","even","0","1219558","1339054","1339054","1105710","1104703","1746","1138010","1138010","1746","1746","1120187","1476073","1742","1339054","1473593","1472605","1472605","NA","983","study_X","0","14477","1","yes","1680"
"undefined","undefined","14477","14477","black","no","legacy","legacy","legacy","0","red","(179, 0, 0)","color","present","highProb","rectangular","swap","swap","same","same","green","(0, 122, 0)","lowProb","lowProb4","rectangular","uniform","1","undefined","0.171875","1","1","355.052083333","1","33","68170","0","0","0","0","0","0","0","0","71","0","1","0.171875","355.052083333","33","68170","71","71","71","08/11/17 10:42:55","Default description","yes","<openexp._canvas.legacy.legacy object at 0x04A127F0>","<openexp._canvas.legacy.legacy object at 0x04A1D7B0>","<openexp._canvas.legacy.legacy object at 0x04A0A410>","<openexp._canvas.legacy.legacy object at 0x04B009D0>","<openexp._canvas.legacy.legacy object at 0x04AD14B0>","<openexp._canvas.legacy.legacy object at 0x04A0E6D0>","<openexp._canvas.legacy.legacy object at 0x04AD2A50>","75","IndividualPriorityWithDis_v1.osexp","C:/Userdata/Michel/SpatialProb/IndividualPriorityMaps/Experiment2","no","mono","no","18","no","white","no","yes","0.09","98","1050","legacy","315","46","46","1","C:/Userdata/Michel/SpatialProb/IndividualPriorityMaps/Experiment2/data/subject-4.csv","legacy","9","192","25","Jazzy James","3.1.3","yes","598477b2b83f69022949e7e9","47","red","rectangular","green","rectangular","0","/","1313","space","14477","14477","(80, 80, 80)","(0, 122, 0)","(179, 0, 0)","(155, 155, 155)","2","legacy","experiment","[3, 4, 5, 6, 7, 0, 1, 2]","/","2500","3000","0","8","252.758751519","1024","2","48000","-16","main","[(0, -252), (178, -178), (252, 0), (178, 178), (0, 252), (-178, 178), (-252, 0), (-178, -178)]","[]","4","even","0","1219558","1339054","1339054","1105710","1104703","1746","1138010","1138010","1746","1746","1120187","1478793","1742","1339054","1477477","1476488","1476488","NA","983","study_X","0","14477","1","yes","1680"
"undefined","undefined","14477","14477","black","no","legacy","legacy","legacy","0","green","(0, 122, 0)","shape","present","highProbOther","rectangular","swap","same","same","swap","green","(0, 122, 0)","lowProb","lowProb6","circular","uniform","0","undefined","0.171875","1","1","366.447916667","1","33","70358","0","0","0","0","0","0","0","0","72","0","1","0.171875","366.447916667","33","70358","72","72","72","08/11/17 10:42:55","Default description","yes","<openexp._canvas.legacy.legacy object at 0x04A127F0>","<openexp._canvas.legacy.legacy object at 0x04A1D7B0>","<openexp._canvas.legacy.legacy object at 0x04A0A410>","<openexp._canvas.legacy.legacy object at 0x04B009D0>","<openexp._canvas.legacy.legacy object at 0x04AD14B0>","<openexp._canvas.legacy.legacy object at 0x04B00430>","<openexp._canvas.legacy.legacy object at 0x04AD2A50>","75","IndividualPriorityWithDis_v1.osexp","C:/Userdata/Michel/SpatialProb/IndividualPriorityMaps/Experiment2","no","mono","no","18","no","white","no","yes","0.09","98","1050","legacy","45","47","47","1","C:/Userdata/Michel/SpatialProb/IndividualPriorityMaps/Experiment2/data/subject-4.csv","legacy","9","192","25","Jazzy James","3.1.3","yes","598477b2b83f69022949e7e9","47","green","rectangular","green","circular","0","/","2188","space","14477","14477","(80, 80, 80)","(0, 122, 0)","(179, 0, 0)","(155, 155, 155)","2","legacy","experiment","[3, 4, 5, 6, 7, 0, 1, 2]","\","2500","3000","0","8","252.758751519","1024","2","48000","-16","main","[(0, -252), (178, -178), (252, 0), (178, 178), (0, 252), (-178, 178), (-252, 0), (-178, -178)]","[]","4","even","2","1219558","1339054","1339054","1105710","1104703","1746","1138010","1138010","1746","1746","1120187","1482393","1742","1339054","1480202","1479213","1479213","NA","983","study_X","0","14477","1","yes","1680"
"undefined","undefined","14477","14477","black","no","legacy","legacy","legacy","0","red","(179, 0, 0)","shape","present","lowProb1","circular","swap","swap","swap","swap","red","(179, 0, 0)","highProbColor","highProbColor","rectangular","uniform","0","undefined","0.171875","1","1","379.46875","1","33","72858","0","0","0","0","0","0","0","0","73","0","1","0.171875","379.46875","33","72858","73","73","73","08/11/17 10:42:55","Default description","yes","<openexp._canvas.legacy.legacy object at 0x04A127F0>","<openexp._canvas.legacy.legacy object at 0x04A1D7B0>","<openexp._canvas.legacy.legacy object at 0x04A0A410>","<openexp._canvas.legacy.legacy object at 0x04B009D0>","<openexp._canvas.legacy.legacy object at 0x04AD14B0>","<openexp._canvas.legacy.legacy object at 0x04A19230>","<openexp._canvas.legacy.legacy object at 0x04AD2A50>","75","IndividualPriorityWithDis_v1.osexp","C:/Userdata/Michel/SpatialProb/IndividualPriorityMaps/Experiment2","no","mono","no","18","no","white","no","yes","0.09","98","1050","legacy","315","48","48","1","C:/Userdata/Michel/SpatialProb/IndividualPriorityMaps/Experiment2/data/subject-4.csv","legacy","9","192","25","Jazzy James","3.1.3","yes","598477b2b83f69022949e7e9","47","red","circular","red","rectangular","0","None","2500","space","14477","14477","(80, 80, 80)","(0, 122, 0)","(179, 0, 0)","(155, 155, 155)","2","legacy","experiment","[3, 4, 5, 6, 7, 0, 1, 2]","/","2500","3000","0","8","252.758751519","1024","2","48000","-16","main","[(0, -252), (178, -178), (252, 0), (178, 178), (0, 252), (-178, 178), (-252, 0), (-178, -178)]","[]","4","even","3","1219558","1339054","1339054","1105710","1104703","1746","1138010","1138010","1746","1746","1120187","1486296","1742","1339054","1483793","1482804","1482804","NA","983","study_X","0","14477","1","yes","1680"
"undefined","undefined","14477","14477","black","no","legacy","legacy","legacy","0","red","(179, 0, 0)","color","present","highProb","circular","same","same","swap","swap","green","(0, 122, 0)","lowProb","lowProb4","circular","uniform","1","undefined","0.177083333333","1","1","391.296875","1","34","75129","0","0","0","0","0","0","0","0","74","0","1","0.177083333333","391.296875","34","75129","74","74","74","08/11/17 10:42:55","Default description","yes","<openexp._canvas.legacy.legacy object at 0x04A127F0>","<openexp._canvas.legacy.legacy object at 0x04A1D7B0>","<openexp._canvas.legacy.legacy object at 0x04A0A410>","<openexp._canvas.legacy.legacy object at 0x04B009D0>","<openexp._canvas.legacy.legacy object at 0x04AD14B0>","<openexp._canvas.legacy.legacy object at 0x04B00C30>","<openexp._canvas.legacy.legacy object at 0x04AD2A50>","75","IndividualPriorityWithDis_v1.osexp","C:/Userdata/Michel/SpatialProb/IndividualPriorityMaps/Experiment2","no","mono","no","18","no","white","no","yes","0.09","98","1050","legacy","45","49","49","1","C:/Userdata/Michel/SpatialProb/IndividualPriorityMaps/Experiment2/data/subject-4.csv","legacy","9","192","25","Jazzy James","3.1.3","yes","598477b2b83f69022949e7e9","47","red","circular","green","circular","0","\","2271","space","14477","14477","(80, 80, 80)","(0, 122, 0)","(179, 0, 0)","(155, 155, 155)","2","legacy","experiment","[3, 4, 5, 6, 7, 0, 1, 2]","\","2500","3000","0","8","252.758751519","1024","2","48000","-16","main","[(0, -252), (178, -178), (252, 0), (178, 178), (0, 252), (-178, 178), (-252, 0), (-178, -178)]","[]","4","even","0","1219558","1339054","1339054","1105710","1104703","1746","1138010","1138010","1746","1746","1120187","1489976","1742","1339054","1487702","1486713","1486714","NA","983","study_X","0","14477","1","yes","1680"
"undefined","undefined","14477","14477","black","no","legacy","legacy","legacy","0","red","(179, 0, 0)","shape","absent","lowProb3","circular","same","same","swap","same","red","(179, 0, 0)","highProbColor","highProbColor","circular","uniform","1","undefined","0.182291666667","1","1","397.916666667","1","35","76400","0","0","0","0","0","0","0","0","75","0","1","0.182291666667","397.916666667","35","76400","75","75","75","08/11/17 10:42:55","Default description","yes","<openexp._canvas.legacy.legacy object at 0x04A127F0>","<openexp._canvas.legacy.legacy object at 0x04A1D7B0>","<openexp._canvas.legacy.legacy object at 0x04A0A410>","<openexp._canvas.legacy.legacy object at 0x04B009D0>","<openexp._canvas.legacy.legacy object at 0x04AD14B0>","<openexp._canvas.legacy.legacy object at 0x04A0ACF0>","<openexp._canvas.legacy.legacy object at 0x04AD2A50>","75","IndividualPriorityWithDis_v1.osexp","C:/Userdata/Michel/SpatialProb/IndividualPriorityMaps/Experiment2","no","mono","no","18","no","white","no","yes","0.09","98","1050","legacy","315","50","50","1","C:/Userdata/Michel/SpatialProb/IndividualPriorityMaps/Experiment2/data/subject-4.csv","legacy","9","192","25","Jazzy James","3.1.3","yes","598477b2b83f69022949e7e9","47","red","circular","red","circular","0","/","1271","space","14477","14477","(80, 80, 80)","(0, 122, 0)","(179, 0, 0)","(155, 155, 155)","2","legacy","experiment","[3, 4, 5, 6, 7, 0, 1, 2]","/","2500","3000","0","8","252.758751519","1024","2","48000","-16","main","[(0, -252), (178, -178), (252, 0), (178, 178), (0, 252), (-178, 178), (-252, 0), (-178, -178)]","[]","4","even","3","1219558","1339054","1339054","1105710","1104703","1746","1138010","1138010","1746","1746","1120187","1492656","1742","1339054","1491382","1490394","1490394","NA","983","study_X","0","14477","1","yes","1680"
"undefined","undefined","14477","14477","black","no","legacy","legacy","legacy","0","red","(179, 0, 0)","color","present","lowProb4","rectangular","same","swap","swap","swap","green","(0, 122, 0)","lowProb","lowProb5","rectangular","uniform","0","undefined","0.182291666667","1","1","410.9375","1","35","78900","0","0","0","0","0","0","0","0","76","0","1","0.182291666667","410.9375","35","78900","76","76","76","08/11/17 10:42:55","Default description","yes","<openexp._canvas.legacy.legacy object at 0x04A127F0>","<openexp._canvas.legacy.legacy object at 0x04A1D7B0>","<openexp._canvas.legacy.legacy object at 0x04A0A410>","<openexp._canvas.legacy.legacy object at 0x04B009D0>","<openexp._canvas.legacy.legacy object at 0x04AD14B0>","<openexp._canvas.legacy.legacy object at 0x04ABE690>","<openexp._canvas.legacy.legacy object at 0x04AD2A50>","75","IndividualPriorityWithDis_v1.osexp","C:/Userdata/Michel/SpatialProb/IndividualPriorityMaps/Experiment2","no","mono","no","18","no","white","no","yes","0.09","98","1050","legacy","315","51","51","1","C:/Userdata/Michel/SpatialProb/IndividualPriorityMaps/Experiment2/data/subject-4.csv","legacy","9","192","25","Jazzy James","3.1.3","yes","598477b2b83f69022949e7e9","47","red","rectangular","green","rectangular","0","None","2500","space","14477","14477","(80, 80, 80)","(0, 122, 0)","(179, 0, 0)","(155, 155, 155)","2","legacy","experiment","[3, 4, 5, 6, 7, 0, 1, 2]","/","2500","3000","0","8","252.758751519","1024","2","48000","-16","main","[(0, -252), (178, -178), (252, 0), (178, 178), (0, 252), (-178, 178), (-252, 0), (-178, -178)]","[]","4","even","1","1219558","1339054","1339054","1105710","1104703","1746","1138010","1138010","1746","1746","1120187","1496566","1742","1339054","1494063","1493074","1493074","NA","983","study_X","0","14477","1","yes","1680"
"undefined","undefined","14477","14477","black","no","legacy","legacy","legacy","0","green","(0, 122, 0)","shape","present","highProb","rectangular","swap","same","same","swap","green","(0, 122, 0)","lowProb","lowProb6","circular","uniform","1","undefined","0.1875","1","1","420.114583333","1","36","80662","0","0","0","0","0","0","0","0","77","0","1","0.1875","420.114583333","36","80662","77","77","77","08/11/17 10:42:55","Default description","yes","<openexp._canvas.legacy.legacy object at 0x04A127F0>","<openexp._canvas.legacy.legacy object at 0x04A1D7B0>","<openexp._canvas.legacy.legacy object at 0x04A0A410>","<openexp._canvas.legacy.legacy object at 0x04B009D0>","<openexp._canvas.legacy.legacy object at 0x04AD14B0>","<openexp._canvas.legacy.legacy object at 0x04A21AF0>","<openexp._canvas.legacy.legacy object at 0x04AD2A50>","75","IndividualPriorityWithDis_v1.osexp","C:/Userdata/Michel/SpatialProb/IndividualPriorityMaps/Experiment2","no","mono","no","18","no","white","no","yes","0.09","98","1050","legacy","45","52","52","1","C:/Userdata/Michel/SpatialProb/IndividualPriorityMaps/Experiment2/data/subject-4.csv","legacy","9","192","25","Jazzy James","3.1.3","yes","598477b2b83f69022949e7e9","47","green","rectangular","green","circular","0","\","1762","space","14477","14477","(80, 80, 80)","(0, 122, 0)","(179, 0, 0)","(155, 155, 155)","2","legacy","experiment","[3, 4, 5, 6, 7, 0, 1, 2]","\","2500","3000","0","8","252.758751519","1024","2","48000","-16","main","[(0, -252), (178, -178), (252, 0), (178, 178), (0, 252), (-178, 178), (-252, 0), (-178, -178)]","[]","4","even","2","1219558","1339054","1339054","1105710","1104703","1746","1138010","1138010","1746","1746","1120187","1499745","1742","1339054","1497979","1496990","1496991","NA","983","study_X","0","14477","1","yes","1680"
